"rt","stimulus","key_press","trial_type","trial_index","time_elapsed","internal_node_id","test_part","correct_response","C1_train","C1","A","C2"
"5930.509999976493","<p style=""color:white;"">Welcome to the experiment! Press any key to begin.</p>","32","html-keyboard-response","0","5936","0.0-0.0","","","","","",""
"2102.290000068024","<p style=""color:white;"">You will see a series of abstract figures. They are adaptations of signs in the Korean alphabet, but that is not important for this study. </p><p style=""color:white;"">Abstract figures sometimes have a more masculine or feminine shape. Here, each figure has already been assigned a gender as <q>Male</q> or <q>Female</q> by a panel of respondents in a pilot study. The respondents were not given specific instructions on how to do this, but were only told to use their intuition and to take into account the entire configuration of the stimulus. </p><p style=""color:white;"">Your task now is to guess the assigned gender of each figure. Please press the corresponding response keys to indicate your choice: </p><p style=""color:white;""> Male &#8594 <q>,</q> (comma)</p><p style=""color:white;""> Female &#8594 <q>.</q> (period)</p><p style=""color:white;"">Press either response keys to continue.</p>","190","html-keyboard-response","1","8040","0.0-1.0","","","","","",""
"831.6500000655651","<p style=""color:white;"">Your choice is correct if it matches the gender assigned by the majority of respondents in the pilot study.</p> <p style=""color:white;"">For each correct choice you will receive 2 cents. There will be 200 trials divided into 4 blocks of 50 trials. You will be able to take a break after every 50 trials.</p> <p style=""color:white;"">Press the space bar to continue.</p>","32","html-keyboard-response","2","8872","0.0-2.0","","","","","",""
"294.17500004637986","<p style=""color:white;"">Here are some examples.</p> <p style=""color:white;"">For each, guess whether the assigned figure is male-like or female-like and indicate your choice by pressing either response keys.</p> <p style=""color:white;"">Press the space bar to continue.</p>","32","html-keyboard-response","3","9167","0.0-3.0","","","","","",""
"null","<div style=""color:white; font-size:60px;"">+</div>","null","html-keyboard-response","4","12168","0.0-4.0-0.0","fixation","","","","",""
"1005.2249999716878","Stimuli/Hangul_E2.bmp","190","image-keyboard-response","5","13175","0.0-4.0-1.0","c1_train",".",".","","",""
"null","<div style=""color:white; font-size:60px;"">+</div>","null","html-keyboard-response","6","14177","0.0-4.0-0.1","fixation","","","","",""
"558.4850000450388","Stimuli/Hangul_E0.bmp","188","image-keyboard-response","7","14736","0.0-4.0-1.1","c1_train",",",",","","",""
"null","<div style=""color:white; font-size:60px;"">+</div>","null","html-keyboard-response","8","15738","0.0-4.0-0.2","fixation","","","","",""
"405.49000003375113","Stimuli/Hangul_E1.bmp","190","image-keyboard-response","9","16144","0.0-4.0-1.2","c1_train",",",".","","",""
"903.2550000119954","<p style=""color:white;"">Let us begin! Press the space bar when you are ready to start block 1 of 4.</p> ","32","html-keyboard-response","10","17048","0.0-5.0","","","","","",""
"null","<div style=""color:white; font-size:60px;"">+</div>","null","html-keyboard-response","11","20050","0.0-6.0-0.0","fixation","","","","",""
"597.0000000670552","Stimuli/Hangul_F14.bmp","188","image-keyboard-response","12","20648","0.0-6.0-1.0","test",".","",",","",""
"null","<div style=""color:white; font-size:60px;"">+</div>","null","html-keyboard-response","13","21651","0.0-6.0-0.1","fixation","","","","",""
"892.3949999734759","Stimuli/Hangul_M4.bmp","188","image-keyboard-response","14","22544","0.0-6.0-1.1","test",",","",",","",""
"null","<div style=""color:white; font-size:60px;"">+</div>","null","html-keyboard-response","15","23545","0.0-6.0-0.2","fixation","","","","",""
"445.52499998826534","Stimuli/Hangul_F4.bmp","188","image-keyboard-response","16","23991","0.0-6.0-1.2","test",".","",",","",""
"null","<div style=""color:white; font-size:60px;"">+</div>","null","html-keyboard-response","17","24993","0.0-6.0-0.3","fixation","","","","",""
"518.1099999463186","Stimuli/Hangul_M9.bmp","188","image-keyboard-response","18","25512","0.0-6.0-1.3","test",",","",",","",""
"null","<div style=""color:white; font-size:60px;"">+</div>","null","html-keyboard-response","19","26514","0.0-6.0-0.4","fixation","","","","",""
"437.36499990336597","Stimuli/Hangul_F16.bmp","188","image-keyboard-response","20","26952","0.0-6.0-1.4","test",".","",",","",""
"null","<div style=""color:white; font-size:60px;"">+</div>","null","html-keyboard-response","21","27953","0.0-6.0-0.5","fixation","","","","",""
"446.2999999523163","Stimuli/Hangul_M17.bmp","188","image-keyboard-response","22","28400","0.0-6.0-1.5","test",",","",",","",""
"null","<div style=""color:white; font-size:60px;"">+</div>","null","html-keyboard-response","23","29401","0.0-6.0-0.6","fixation","","","","",""
"533.7700000964105","Stimuli/Hangul_M8.bmp","188","image-keyboard-response","24","29936","0.0-6.0-1.6","test",",","",",","",""
"null","<div style=""color:white; font-size:60px;"">+</div>","null","html-keyboard-response","25","30936","0.0-6.0-0.7","fixation","","","","",""
"519.2950000055134","Stimuli/Hangul_M19.bmp","190","image-keyboard-response","26","31456","0.0-6.0-1.7","test",",","",".","",""
"null","<div style=""color:white; font-size:60px;"">+</div>","null","html-keyboard-response","27","32457","0.0-6.0-0.8","fixation","","","","",""
"453.8200000533834","Stimuli/Hangul_M3.bmp","188","image-keyboard-response","28","32912","0.0-6.0-1.8","test",",","",",","",""
"null","<div style=""color:white; font-size:60px;"">+</div>","null","html-keyboard-response","29","33912","0.0-6.0-0.9","fixation","","","","",""
"422.84999997355044","Stimuli/Hangul_F21.bmp","188","image-keyboard-response","30","34336","0.0-6.0-1.9","test",".","",",","",""
"null","<div style=""color:white; font-size:60px;"">+</div>","null","html-keyboard-response","31","35337","0.0-6.0-0.10","fixation","","","","",""
"438.20999993477017","Stimuli/Hangul_M7.bmp","188","image-keyboard-response","32","35776","0.0-6.0-1.10","test",",","",",","",""
"null","<div style=""color:white; font-size:60px;"">+</div>","null","html-keyboard-response","33","36777","0.0-6.0-0.11","fixation","","","","",""
"446.40500005334616","Stimuli/Hangul_F0.bmp","190","image-keyboard-response","34","37224","0.0-6.0-1.11","test",".","",".","",""
"null","<div style=""color:white; font-size:60px;"">+</div>","null","html-keyboard-response","35","38226","0.0-6.0-0.12","fixation","","","","",""
"397.120000096038","Stimuli/Hangul_F6.bmp","188","image-keyboard-response","36","38623","0.0-6.0-1.12","test",".","",",","",""
"null","<div style=""color:white; font-size:60px;"">+</div>","null","html-keyboard-response","37","39626","0.0-6.0-0.13","fixation","","","","",""
"388.9099999796599","Stimuli/Hangul_F9.bmp","188","image-keyboard-response","38","40015","0.0-6.0-1.13","test",".","",",","",""
"null","<div style=""color:white; font-size:60px;"">+</div>","null","html-keyboard-response","39","41016","0.0-6.0-0.14","fixation","","","","",""
"430.5600000079721","Stimuli/Hangul_M6.bmp","188","image-keyboard-response","40","41447","0.0-6.0-1.14","test",",","",",","",""
"null","<div style=""color:white; font-size:60px;"">+</div>","null","html-keyboard-response","41","42449","0.0-6.0-0.15","fixation","","","","",""
"534.914999967441","Stimuli/Hangul_M1.bmp","188","image-keyboard-response","42","42984","0.0-6.0-1.15","test",",","",",","",""
"null","<div style=""color:white; font-size:60px;"">+</div>","null","html-keyboard-response","43","43986","0.0-6.0-0.16","fixation","","","","",""
"468.0050000315532","Stimuli/Hangul_F1.bmp","190","image-keyboard-response","44","44455","0.0-6.0-1.16","test",".","",".","",""
"null","<div style=""color:white; font-size:60px;"">+</div>","null","html-keyboard-response","45","45456","0.0-6.0-0.17","fixation","","","","",""
"423.48500003572553","Stimuli/Hangul_M20.bmp","188","image-keyboard-response","46","45880","0.0-6.0-1.17","test",",","",",","",""
"null","<div style=""color:white; font-size:60px;"">+</div>","null","html-keyboard-response","47","46881","0.0-6.0-0.18","fixation","","","","",""
"453.92500003799796","Stimuli/Hangul_F2.bmp","188","image-keyboard-response","48","47335","0.0-6.0-1.18","test",".","",",","",""
"null","<div style=""color:white; font-size:60px;"">+</div>","null","html-keyboard-response","49","48337","0.0-6.0-0.19","fixation","","","","",""
"502.4699999485165","Stimuli/Hangul_M15.bmp","188","image-keyboard-response","50","48840","0.0-6.0-1.19","test",",","",",","",""
"null","<div style=""color:white; font-size:60px;"">+</div>","null","html-keyboard-response","51","49841","0.0-6.0-0.20","fixation","","","","",""
"581.5700000384822","Stimuli/Hangul_F22.bmp","190","image-keyboard-response","52","50423","0.0-6.0-1.20","test",".","",".","",""
"null","<div style=""color:white; font-size:60px;"">+</div>","null","html-keyboard-response","53","51425","0.0-6.0-0.21","fixation","","","","",""
"550.069999997504","Stimuli/Hangul_M2.bmp","188","image-keyboard-response","54","51975","0.0-6.0-1.21","test",",","",",","",""
"null","<div style=""color:white; font-size:60px;"">+</div>","null","html-keyboard-response","55","52977","0.0-6.0-0.22","fixation","","","","",""
"398.2700000051409","Stimuli/Hangul_M16.bmp","188","image-keyboard-response","56","53376","0.0-6.0-1.22","test",",","",",","",""
"null","<div style=""color:white; font-size:60px;"">+</div>","null","html-keyboard-response","57","54377","0.0-6.0-0.23","fixation","","","","",""
"461.4599999040365","Stimuli/Hangul_M23.bmp","190","image-keyboard-response","58","54840","0.0-6.0-1.23","test",",","",".","",""
"null","<div style=""color:white; font-size:60px;"">+</div>","null","html-keyboard-response","59","55840","0.0-6.0-0.24","fixation","","","","",""
"798.3750000130385","Stimuli/Hangul_M18.bmp","190","image-keyboard-response","60","56639","0.0-6.0-1.24","test",",","",".","",""
"null","<div style=""color:white; font-size:60px;"">+</div>","null","html-keyboard-response","61","57641","0.0-6.0-0.25","fixation","","","","",""
"1949.6950000757352","Stimuli/Hangul_F24.bmp","190","image-keyboard-response","62","59591","0.0-6.0-1.25","test",".","",".","",""
"null","<div style=""color:white; font-size:60px;"">+</div>","null","html-keyboard-response","63","60592","0.0-6.0-0.26","fixation","","","","",""
"567.1650000149384","Stimuli/Hangul_M24.bmp","190","image-keyboard-response","64","61159","0.0-6.0-1.26","test",",","",".","",""
"null","<div style=""color:white; font-size:60px;"">+</div>","null","html-keyboard-response","65","62161","0.0-6.0-0.27","fixation","","","","",""
"502.62499996460974","Stimuli/Hangul_F20.bmp","190","image-keyboard-response","66","62664","0.0-6.0-1.27","test",".","",".","",""
"null","<div style=""color:white; font-size:60px;"">+</div>","null","html-keyboard-response","67","63665","0.0-6.0-0.28","fixation","","","","",""
"533.8100000517443","Stimuli/Hangul_F15.bmp","188","image-keyboard-response","68","64200","0.0-6.0-1.28","test",".","",",","",""
"null","<div style=""color:white; font-size:60px;"">+</div>","null","html-keyboard-response","69","65202","0.0-6.0-0.29","fixation","","","","",""
"1325.0749999424443","Stimuli/Hangul_F11.bmp","190","image-keyboard-response","70","66528","0.0-6.0-1.29","test",".","",".","",""
"null","<div style=""color:white; font-size:60px;"">+</div>","null","html-keyboard-response","71","67529","0.0-6.0-0.30","fixation","","","","",""
"557.61999997776","Stimuli/Hangul_F12.bmp","190","image-keyboard-response","72","68087","0.0-6.0-1.30","test",".","",".","",""
"null","<div style=""color:white; font-size:60px;"">+</div>","null","html-keyboard-response","73","69089","0.0-6.0-0.31","fixation","","","","",""
"445.6650000065565","Stimuli/Hangul_F10.bmp","190","image-keyboard-response","74","69535","0.0-6.0-1.31","test",".","",".","",""
"null","<div style=""color:white; font-size:60px;"">+</div>","null","html-keyboard-response","75","70536","0.0-6.0-0.32","fixation","","","","",""
"846.8300000531599","Stimuli/Hangul_M0.bmp","188","image-keyboard-response","76","71384","0.0-6.0-1.32","test",",","",",","",""
"null","<div style=""color:white; font-size:60px;"">+</div>","null","html-keyboard-response","77","72385","0.0-6.0-0.33","fixation","","","","",""
"565.790000022389","Stimuli/Hangul_M11.bmp","188","image-keyboard-response","78","72951","0.0-6.0-1.33","test",",","",",","",""
"null","<div style=""color:white; font-size:60px;"">+</div>","null","html-keyboard-response","79","73953","0.0-6.0-0.34","fixation","","","","",""
"533.32499996759","Stimuli/Hangul_F13.bmp","188","image-keyboard-response","80","74487","0.0-6.0-1.34","test",".","",",","",""
"null","<div style=""color:white; font-size:60px;"">+</div>","null","html-keyboard-response","81","75489","0.0-6.0-0.35","fixation","","","","",""
"510.2849999675527","Stimuli/Hangul_M22.bmp","188","image-keyboard-response","82","75999","0.0-6.0-1.35","test",",","",",","",""
"null","<div style=""color:white; font-size:60px;"">+</div>","null","html-keyboard-response","83","77002","0.0-6.0-0.36","fixation","","","","",""
"422.0499999355525","Stimuli/Hangul_F3.bmp","188","image-keyboard-response","84","77424","0.0-6.0-1.36","test",".","",",","",""
"null","<div style=""color:white; font-size:60px;"">+</div>","null","html-keyboard-response","85","78426","0.0-6.0-0.37","fixation","","","","",""
"660.6699998956174","Stimuli/Hangul_M14.bmp","190","image-keyboard-response","86","79087","0.0-6.0-1.37","test",",","",".","",""
"null","<div style=""color:white; font-size:60px;"">+</div>","null","html-keyboard-response","87","80088","0.0-6.0-0.38","fixation","","","","",""
"486.8049999931827","Stimuli/Hangul_F8.bmp","190","image-keyboard-response","88","80576","0.0-6.0-1.38","test",".","",".","",""
"null","<div style=""color:white; font-size:60px;"">+</div>","null","html-keyboard-response","89","81578","0.0-6.0-0.39","fixation","","","","",""
"412.88499999791384","Stimuli/Hangul_M21.bmp","188","image-keyboard-response","90","81991","0.0-6.0-1.39","test",",","",",","",""
"null","<div style=""color:white; font-size:60px;"">+</div>","null","html-keyboard-response","91","82992","0.0-6.0-0.40","fixation","","","","",""
"454.60499997716397","Stimuli/Hangul_M13.bmp","188","image-keyboard-response","92","83447","0.0-6.0-1.40","test",",","",",","",""
"null","<div style=""color:white; font-size:60px;"">+</div>","null","html-keyboard-response","93","84449","0.0-6.0-0.41","fixation","","","","",""
"605.31000001356","Stimuli/Hangul_F23.bmp","190","image-keyboard-response","94","85055","0.0-6.0-1.41","test",".","",".","",""
"null","<div style=""color:white; font-size:60px;"">+</div>","null","html-keyboard-response","95","86057","0.0-6.0-0.42","fixation","","","","",""
"493.1499999947846","Stimuli/Hangul_F5.bmp","188","image-keyboard-response","96","86551","0.0-6.0-1.42","test",".","",",","",""
"null","<div style=""color:white; font-size:60px;"">+</div>","null","html-keyboard-response","97","87553","0.0-6.0-0.43","fixation","","","","",""
"462.3099999735132","Stimuli/Hangul_F17.bmp","188","image-keyboard-response","98","88015","0.0-6.0-1.43","test",".","",",","",""
"null","<div style=""color:white; font-size:60px;"">+</div>","null","html-keyboard-response","99","89018","0.0-6.0-0.44","fixation","","","","",""
"444.96500003151596","Stimuli/Hangul_M5.bmp","188","image-keyboard-response","100","89463","0.0-6.0-1.44","test",",","",",","",""
"null","<div style=""color:white; font-size:60px;"">+</div>","null","html-keyboard-response","101","90465","0.0-6.0-0.45","fixation","","","","",""
"413.8850000454113","Stimuli/Hangul_M10.bmp","188","image-keyboard-response","102","90879","0.0-6.0-1.45","test",",","",",","",""
"null","<div style=""color:white; font-size:60px;"">+</div>","null","html-keyboard-response","103","91881","0.0-6.0-0.46","fixation","","","","",""
"622.0599999651313","Stimuli/Hangul_M12.bmp","190","image-keyboard-response","104","92503","0.0-6.0-1.46","test",",","",".","",""
"null","<div style=""color:white; font-size:60px;"">+</div>","null","html-keyboard-response","105","93504","0.0-6.0-0.47","fixation","","","","",""
"566.095000016503","Stimuli/Hangul_F7.bmp","188","image-keyboard-response","106","94071","0.0-6.0-1.47","test",".","",",","",""
"null","<div style=""color:white; font-size:60px;"">+</div>","null","html-keyboard-response","107","95071","0.0-6.0-0.48","fixation","","","","",""
"423.5249999910593","Stimuli/Hangul_F19.bmp","190","image-keyboard-response","108","95495","0.0-6.0-1.48","test",".","",".","",""
"null","<div style=""color:white; font-size:60px;"">+</div>","null","html-keyboard-response","109","96497","0.0-6.0-0.49","fixation","","","","",""
"533.1699999514967","Stimuli/Hangul_F18.bmp","190","image-keyboard-response","110","97031","0.0-6.0-1.49","test",".","",".","",""
"934.9899999797344","<p style=""color:white;"">Good job, block 1 complete! Please take a moment to rest.</p> <p style=""color:white;"">When you are ready to continue with block 2 of 4, press the space bar.</p> ","32","html-keyboard-response","111","97967","0.0-7.0","","","","","",""
"null","<div style=""color:white; font-size:60px;"">+</div>","null","html-keyboard-response","112","100969","0.0-8.0-0.0","fixation","","","","",""
"2430.090000038035","Stimuli/Hangul_M45.bmp","188","image-keyboard-response","113","103400","0.0-8.0-1.0","test",",","",",","",""
"null","<div style=""color:white; font-size:60px;"">+</div>","null","html-keyboard-response","114","104402","0.0-8.0-0.1","fixation","","","","",""
"508.64499993622303","Stimuli/Hangul_F38.bmp","188","image-keyboard-response","115","104911","0.0-8.0-1.1","test",".","",",","",""
"null","<div style=""color:white; font-size:60px;"">+</div>","null","html-keyboard-response","116","105912","0.0-8.0-0.2","fixation","","","","",""
"654.2250000638887","Stimuli/Hangul_M30.bmp","188","image-keyboard-response","117","106567","0.0-8.0-1.2","test",",","",",","",""
"null","<div style=""color:white; font-size:60px;"">+</div>","null","html-keyboard-response","118","107569","0.0-8.0-0.3","fixation","","","","",""
"997.3349999636412","Stimuli/Hangul_M46.bmp","188","image-keyboard-response","119","108567","0.0-8.0-1.3","test",",","",",","",""
"null","<div style=""color:white; font-size:60px;"">+</div>","null","html-keyboard-response","120","109568","0.0-8.0-0.4","fixation","","","","",""
"590.6749999849126","Stimuli/Hangul_F28.bmp","190","image-keyboard-response","121","110159","0.0-8.0-1.4","test",".","",".","",""
"null","<div style=""color:white; font-size:60px;"">+</div>","null","html-keyboard-response","122","111161","0.0-8.0-0.5","fixation","","","","",""
"493.55500005185604","Stimuli/Hangul_M41.bmp","188","image-keyboard-response","123","111655","0.0-8.0-1.5","test",",","",",","",""
"null","<div style=""color:white; font-size:60px;"">+</div>","null","html-keyboard-response","124","112655","0.0-8.0-0.6","fixation","","","","",""
"367.42500006221235","Stimuli/Hangul_F34.bmp","190","image-keyboard-response","125","113023","0.0-8.0-1.6","test",".","",".","",""
"null","<div style=""color:white; font-size:60px;"">+</div>","null","html-keyboard-response","126","114025","0.0-8.0-0.7","fixation","","","","",""
"446.28000003285706","Stimuli/Hangul_F45.bmp","190","image-keyboard-response","127","114471","0.0-8.0-1.7","test",".","",".","",""
"null","<div style=""color:white; font-size:60px;"">+</div>","null","html-keyboard-response","128","115473","0.0-8.0-0.8","fixation","","","","",""
"422.1350000007078","Stimuli/Hangul_F30.bmp","188","image-keyboard-response","129","115896","0.0-8.0-1.8","test",".","",",","",""
"null","<div style=""color:white; font-size:60px;"">+</div>","null","html-keyboard-response","130","116897","0.0-8.0-0.9","fixation","","","","",""
"542.064999928698","Stimuli/Hangul_M37.bmp","188","image-keyboard-response","131","117440","0.0-8.0-1.9","test",",","",",","",""
"null","<div style=""color:white; font-size:60px;"">+</div>","null","html-keyboard-response","132","118441","0.0-8.0-0.10","fixation","","","","",""
"405.67500004544854","Stimuli/Hangul_F39.bmp","190","image-keyboard-response","133","118847","0.0-8.0-1.10","test",".","",".","",""
"null","<div style=""color:white; font-size:60px;"">+</div>","null","html-keyboard-response","134","119849","0.0-8.0-0.11","fixation","","","","",""
"565.8650000113994","Stimuli/Hangul_M31.bmp","190","image-keyboard-response","135","120416","0.0-8.0-1.11","test",",","",".","",""
"null","<div style=""color:white; font-size:60px;"">+</div>","null","html-keyboard-response","136","121418","0.0-8.0-0.12","fixation","","","","",""
"645.5599999753758","Stimuli/Hangul_F25.bmp","188","image-keyboard-response","137","122064","0.0-8.0-1.12","test",".","",",","",""
"null","<div style=""color:white; font-size:60px;"">+</div>","null","html-keyboard-response","138","123065","0.0-8.0-0.13","fixation","","","","",""
"462.04000001307577","Stimuli/Hangul_M49.bmp","188","image-keyboard-response","139","123528","0.0-8.0-1.13","test",",","",",","",""
"null","<div style=""color:white; font-size:60px;"">+</div>","null","html-keyboard-response","140","124529","0.0-8.0-0.14","fixation","","","","",""
"509.6550000598654","Stimuli/Hangul_M43.bmp","188","image-keyboard-response","141","125039","0.0-8.0-1.14","test",",","",",","",""
"null","<div style=""color:white; font-size:60px;"">+</div>","null","html-keyboard-response","142","126041","0.0-8.0-0.15","fixation","","","","",""
"710.1349999429658","Stimuli/Hangul_M32.bmp","188","image-keyboard-response","143","126752","0.0-8.0-1.15","test",",","",",","",""
"null","<div style=""color:white; font-size:60px;"">+</div>","null","html-keyboard-response","144","127753","0.0-8.0-0.16","fixation","","","","",""
"526.4500000048429","Stimuli/Hangul_M27.bmp","188","image-keyboard-response","145","128280","0.0-8.0-1.16","test",",","",",","",""
"null","<div style=""color:white; font-size:60px;"">+</div>","null","html-keyboard-response","146","129281","0.0-8.0-0.17","fixation","","","","",""
"630.1450000610203","Stimuli/Hangul_M25.bmp","188","image-keyboard-response","147","129912","0.0-8.0-1.17","test",",","",",","",""
"null","<div style=""color:white; font-size:60px;"">+</div>","null","html-keyboard-response","148","130913","0.0-8.0-0.18","fixation","","","","",""
"526.1399999726564","Stimuli/Hangul_M36.bmp","188","image-keyboard-response","149","131440","0.0-8.0-1.18","test",",","",",","",""
"null","<div style=""color:white; font-size:60px;"">+</div>","null","html-keyboard-response","150","132441","0.0-8.0-0.19","fixation","","","","",""
"741.9349999399856","Stimuli/Hangul_F44.bmp","190","image-keyboard-response","151","133183","0.0-8.0-1.19","test",".","",".","",""
"null","<div style=""color:white; font-size:60px;"">+</div>","null","html-keyboard-response","152","134185","0.0-8.0-0.20","fixation","","","","",""
"454.35999997425824","Stimuli/Hangul_M42.bmp","188","image-keyboard-response","153","134640","0.0-8.0-1.20","test",",","",",","",""
"null","<div style=""color:white; font-size:60px;"">+</div>","null","html-keyboard-response","154","135641","0.0-8.0-0.21","fixation","","","","",""
"542.7899999776855","Stimuli/Hangul_M40.bmp","188","image-keyboard-response","155","136184","0.0-8.0-1.21","test",",","",",","",""
"null","<div style=""color:white; font-size:60px;"">+</div>","null","html-keyboard-response","156","137185","0.0-8.0-0.22","fixation","","","","",""
"733.4150000242516","Stimuli/Hangul_M35.bmp","190","image-keyboard-response","157","137919","0.0-8.0-1.22","test",",","",".","",""
"null","<div style=""color:white; font-size:60px;"">+</div>","null","html-keyboard-response","158","138921","0.0-8.0-0.23","fixation","","","","",""
"613.6949999490753","Stimuli/Hangul_F42.bmp","190","image-keyboard-response","159","139535","0.0-8.0-1.23","test",".","",".","",""
"null","<div style=""color:white; font-size:60px;"">+</div>","null","html-keyboard-response","160","140538","0.0-8.0-0.24","fixation","","","","",""
"628.4900000318885","Stimuli/Hangul_F43.bmp","188","image-keyboard-response","161","141167","0.0-8.0-1.24","test",".","",",","",""
"null","<div style=""color:white; font-size:60px;"">+</div>","null","html-keyboard-response","162","142168","0.0-8.0-0.25","fixation","","","","",""
"582.8050000127405","Stimuli/Hangul_F33.bmp","190","image-keyboard-response","163","142751","0.0-8.0-1.25","test",".","",".","",""
"null","<div style=""color:white; font-size:60px;"">+</div>","null","html-keyboard-response","164","143753","0.0-8.0-0.26","fixation","","","","",""
"942.574999993667","Stimuli/Hangul_M28.bmp","190","image-keyboard-response","165","144696","0.0-8.0-1.26","test",",","",".","",""
"null","<div style=""color:white; font-size:60px;"">+</div>","null","html-keyboard-response","166","145697","0.0-8.0-0.27","fixation","","","","",""
"621.915000025183","Stimuli/Hangul_F47.bmp","188","image-keyboard-response","167","146320","0.0-8.0-1.27","test",".","",",","",""
"null","<div style=""color:white; font-size:60px;"">+</div>","null","html-keyboard-response","168","147321","0.0-8.0-0.28","fixation","","","","",""
"1021.9600000418723","Stimuli/Hangul_M34.bmp","190","image-keyboard-response","169","148344","0.0-8.0-1.28","test",",","",".","",""
"null","<div style=""color:white; font-size:60px;"">+</div>","null","html-keyboard-response","170","149346","0.0-8.0-0.29","fixation","","","","",""
"501.1249999515712","Stimuli/Hangul_M33.bmp","188","image-keyboard-response","171","149847","0.0-8.0-1.29","test",",","",",","",""
"null","<div style=""color:white; font-size:60px;"">+</div>","null","html-keyboard-response","172","150849","0.0-8.0-0.30","fixation","","","","",""
"549.9149999814108","Stimuli/Hangul_F41.bmp","190","image-keyboard-response","173","151400","0.0-8.0-1.30","test",".","",".","",""
"null","<div style=""color:white; font-size:60px;"">+</div>","null","html-keyboard-response","174","152401","0.0-8.0-0.31","fixation","","","","",""
"1069.1599999554455","Stimuli/Hangul_F40.bmp","188","image-keyboard-response","175","153471","0.0-8.0-1.31","test",".","",",","",""
"null","<div style=""color:white; font-size:60px;"">+</div>","null","html-keyboard-response","176","154473","0.0-8.0-0.32","fixation","","","","",""
"630.0249999621883","Stimuli/Hangul_F31.bmp","190","image-keyboard-response","177","155104","0.0-8.0-1.32","test",".","",".","",""
"null","<div style=""color:white; font-size:60px;"">+</div>","null","html-keyboard-response","178","156105","0.0-8.0-0.33","fixation","","","","",""
"501.9000000320375","Stimuli/Hangul_F35.bmp","190","image-keyboard-response","179","156608","0.0-8.0-1.33","test",".","",".","",""
"null","<div style=""color:white; font-size:60px;"">+</div>","null","html-keyboard-response","180","157610","0.0-8.0-0.34","fixation","","","","",""
"493.30500001087785","Stimuli/Hangul_M44.bmp","188","image-keyboard-response","181","158104","0.0-8.0-1.34","test",",","",",","",""
"null","<div style=""color:white; font-size:60px;"">+</div>","null","html-keyboard-response","182","159106","0.0-8.0-0.35","fixation","","","","",""
"477.2499999962747","Stimuli/Hangul_F48.bmp","188","image-keyboard-response","183","159584","0.0-8.0-1.35","test",".","",",","",""
"null","<div style=""color:white; font-size:60px;"">+</div>","null","html-keyboard-response","184","160585","0.0-8.0-0.36","fixation","","","","",""
"590.3150000376627","Stimuli/Hangul_F37.bmp","190","image-keyboard-response","185","161175","0.0-8.0-1.36","test",".","",".","",""
"null","<div style=""color:white; font-size:60px;"">+</div>","null","html-keyboard-response","186","162177","0.0-8.0-0.37","fixation","","","","",""
"534.4899999909103","Stimuli/Hangul_F26.bmp","188","image-keyboard-response","187","162712","0.0-8.0-1.37","test",".","",",","",""
"null","<div style=""color:white; font-size:60px;"">+</div>","null","html-keyboard-response","188","163713","0.0-8.0-0.38","fixation","","","","",""
"541.9950000941753","Stimuli/Hangul_F46.bmp","190","image-keyboard-response","189","164255","0.0-8.0-1.38","test",".","",".","",""
"null","<div style=""color:white; font-size:60px;"">+</div>","null","html-keyboard-response","190","165257","0.0-8.0-0.39","fixation","","","","",""
"389.94999998249114","Stimuli/Hangul_F29.bmp","190","image-keyboard-response","191","165647","0.0-8.0-1.39","test",".","",".","",""
"null","<div style=""color:white; font-size:60px;"">+</div>","null","html-keyboard-response","192","166649","0.0-8.0-0.40","fixation","","","","",""
"565.679999999702","Stimuli/Hangul_F36.bmp","188","image-keyboard-response","193","167216","0.0-8.0-1.40","test",".","",",","",""
"null","<div style=""color:white; font-size:60px;"">+</div>","null","html-keyboard-response","194","168217","0.0-8.0-0.41","fixation","","","","",""
"493.73999994713813","Stimuli/Hangul_M47.bmp","188","image-keyboard-response","195","168712","0.0-8.0-1.41","test",",","",",","",""
"null","<div style=""color:white; font-size:60px;"">+</div>","null","html-keyboard-response","196","169713","0.0-8.0-0.42","fixation","","","","",""
"477.0649999845773","Stimuli/Hangul_F32.bmp","190","image-keyboard-response","197","170191","0.0-8.0-1.42","test",".","",".","",""
"null","<div style=""color:white; font-size:60px;"">+</div>","null","html-keyboard-response","198","171193","0.0-8.0-0.43","fixation","","","","",""
"582.4449999490753","Stimuli/Hangul_M26.bmp","188","image-keyboard-response","199","171776","0.0-8.0-1.43","test",",","",",","",""
"null","<div style=""color:white; font-size:60px;"">+</div>","null","html-keyboard-response","200","172777","0.0-8.0-0.44","fixation","","","","",""
"477.6249999413267","Stimuli/Hangul_F49.bmp","188","image-keyboard-response","201","173255","0.0-8.0-1.44","test",".","",",","",""
"null","<div style=""color:white; font-size:60px;"">+</div>","null","html-keyboard-response","202","174257","0.0-8.0-0.45","fixation","","","","",""
"541.6849999455735","Stimuli/Hangul_M38.bmp","190","image-keyboard-response","203","174800","0.0-8.0-1.45","test",",","",".","",""
"null","<div style=""color:white; font-size:60px;"">+</div>","null","html-keyboard-response","204","175801","0.0-8.0-0.46","fixation","","","","",""
"637.8049999475479","Stimuli/Hangul_M48.bmp","188","image-keyboard-response","205","176440","0.0-8.0-1.46","test",",","",",","",""
"null","<div style=""color:white; font-size:60px;"">+</div>","null","html-keyboard-response","206","177441","0.0-8.0-0.47","fixation","","","","",""
"550.3750001080334","Stimuli/Hangul_M39.bmp","188","image-keyboard-response","207","177992","0.0-8.0-1.47","test",",","",",","",""
"null","<div style=""color:white; font-size:60px;"">+</div>","null","html-keyboard-response","208","178993","0.0-8.0-0.48","fixation","","","","",""
"621.7300000134856","Stimuli/Hangul_M29.bmp","188","image-keyboard-response","209","179615","0.0-8.0-1.48","test",",","",",","",""
"null","<div style=""color:white; font-size:60px;"">+</div>","null","html-keyboard-response","210","180617","0.0-8.0-0.49","fixation","","","","",""
"582.2499999776483","Stimuli/Hangul_F27.bmp","190","image-keyboard-response","211","181200","0.0-8.0-1.49","test",".","",".","",""
"847.1000000135973","<p style=""color:white;"">Half way there! Please take a moment to rest.</p> <p style=""color:white;"">When you are ready to continue with block 3 of 4, press the space bar.</p> ","32","html-keyboard-response","212","182047","0.0-9.0","","","","","",""
"null","<div style=""color:white; font-size:60px;"">+</div>","null","html-keyboard-response","213","185050","0.0-10.0-0.0","fixation","","","","",""
"668.5050000669435","Stimuli/Hangul_M60.bmp","188","image-keyboard-response","214","185719","0.0-10.0-1.0","test",",","",",","",""
"null","<div style=""color:white; font-size:60px;"">+</div>","null","html-keyboard-response","215","186721","0.0-10.0-0.1","fixation","","","","",""
"533.6100000422448","Stimuli/Hangul_M65.bmp","188","image-keyboard-response","216","187255","0.0-10.0-1.1","test",",","",",","",""
"null","<div style=""color:white; font-size:60px;"">+</div>","null","html-keyboard-response","217","188257","0.0-10.0-0.2","fixation","","","","",""
"422.5299999816343","Stimuli/Hangul_M66.bmp","188","image-keyboard-response","218","188680","0.0-10.0-1.2","test",",","",",","",""
"null","<div style=""color:white; font-size:60px;"">+</div>","null","html-keyboard-response","219","189681","0.0-10.0-0.3","fixation","","","","",""
"525.3500000108033","Stimuli/Hangul_F53.bmp","190","image-keyboard-response","220","190207","0.0-10.0-1.3","test",".","",".","",""
"null","<div style=""color:white; font-size:60px;"">+</div>","null","html-keyboard-response","221","191208","0.0-10.0-0.4","fixation","","","","",""
"1022.9049999034032","Stimuli/Hangul_F51.bmp","190","image-keyboard-response","222","192231","0.0-10.0-1.4","test",".","",".","",""
"null","<div style=""color:white; font-size:60px;"">+</div>","null","html-keyboard-response","223","193232","0.0-10.0-0.5","fixation","","","","",""
"542.795000015758","Stimuli/Hangul_M63.bmp","188","image-keyboard-response","224","193775","0.0-10.0-1.5","test",",","",",","",""
"null","<div style=""color:white; font-size:60px;"">+</div>","null","html-keyboard-response","225","194778","0.0-10.0-0.6","fixation","","","","",""
"572.0300000393763","Stimuli/Hangul_M62.bmp","188","image-keyboard-response","226","195350","0.0-10.0-1.6","test",",","",",","",""
"null","<div style=""color:white; font-size:60px;"">+</div>","null","html-keyboard-response","227","196353","0.0-10.0-0.7","fixation","","","","",""
"1014.3200000748038","Stimuli/Hangul_F64.bmp","190","image-keyboard-response","228","197367","0.0-10.0-1.7","test",".","",".","",""
"null","<div style=""color:white; font-size:60px;"">+</div>","null","html-keyboard-response","229","198369","0.0-10.0-0.8","fixation","","","","",""
"718.1499999715015","Stimuli/Hangul_F72.bmp","188","image-keyboard-response","230","199088","0.0-10.0-1.8","test",".","",",","",""
"null","<div style=""color:white; font-size:60px;"">+</div>","null","html-keyboard-response","231","200088","0.0-10.0-0.9","fixation","","","","",""
"926.7400000244379","Stimuli/Hangul_M61.bmp","188","image-keyboard-response","232","201016","0.0-10.0-1.9","test",",","",",","",""
"null","<div style=""color:white; font-size:60px;"">+</div>","null","html-keyboard-response","233","202017","0.0-10.0-0.10","fixation","","","","",""
"565.4250000370666","Stimuli/Hangul_F65.bmp","190","image-keyboard-response","234","202583","0.0-10.0-1.10","test",".","",".","",""
"null","<div style=""color:white; font-size:60px;"">+</div>","null","html-keyboard-response","235","203584","0.0-10.0-0.11","fixation","","","","",""
"510.5599999660626","Stimuli/Hangul_F59.bmp","188","image-keyboard-response","236","204095","0.0-10.0-1.11","test",".","",",","",""
"null","<div style=""color:white; font-size:60px;"">+</div>","null","html-keyboard-response","237","205097","0.0-10.0-0.12","fixation","","","","",""
"972.5850000977516","Stimuli/Hangul_M58.bmp","188","image-keyboard-response","238","206071","0.0-10.0-1.12","test",",","",",","",""
"null","<div style=""color:white; font-size:60px;"">+</div>","null","html-keyboard-response","239","207073","0.0-10.0-0.13","fixation","","","","",""
"462.19999995082617","Stimuli/Hangul_M72.bmp","188","image-keyboard-response","240","207535","0.0-10.0-1.13","test",",","",",","",""
"null","<div style=""color:white; font-size:60px;"">+</div>","null","html-keyboard-response","241","208537","0.0-10.0-0.14","fixation","","","","",""
"461.68999990914017","Stimuli/Hangul_F58.bmp","188","image-keyboard-response","242","208999","0.0-10.0-1.14","test",".","",",","",""
"null","<div style=""color:white; font-size:60px;"">+</div>","null","html-keyboard-response","243","210001","0.0-10.0-0.15","fixation","","","","",""
"446.4699999662116","Stimuli/Hangul_F57.bmp","190","image-keyboard-response","244","210448","0.0-10.0-1.15","test",".","",".","",""
"null","<div style=""color:white; font-size:60px;"">+</div>","null","html-keyboard-response","245","211449","0.0-10.0-0.16","fixation","","","","",""
"493.2499999413267","Stimuli/Hangul_F66.bmp","190","image-keyboard-response","246","211943","0.0-10.0-1.16","test",".","",".","",""
"null","<div style=""color:white; font-size:60px;"">+</div>","null","html-keyboard-response","247","212944","0.0-10.0-0.17","fixation","","","","",""
"630.7500000111759","Stimuli/Hangul_M53.bmp","188","image-keyboard-response","248","213575","0.0-10.0-1.17","test",",","",",","",""
"null","<div style=""color:white; font-size:60px;"">+</div>","null","html-keyboard-response","249","214578","0.0-10.0-0.18","fixation","","","","",""
"596.7899999814108","Stimuli/Hangul_M74.bmp","188","image-keyboard-response","250","215175","0.0-10.0-1.18","test",",","",",","",""
"null","<div style=""color:white; font-size:60px;"">+</div>","null","html-keyboard-response","251","216177","0.0-10.0-0.19","fixation","","","","",""
"502.100000041537","Stimuli/Hangul_F71.bmp","190","image-keyboard-response","252","216679","0.0-10.0-1.19","test",".","",".","",""
"null","<div style=""color:white; font-size:60px;"">+</div>","null","html-keyboard-response","253","217681","0.0-10.0-0.20","fixation","","","","",""
"645.6649999599904","Stimuli/Hangul_F67.bmp","188","image-keyboard-response","254","218327","0.0-10.0-1.20","test",".","",",","",""
"null","<div style=""color:white; font-size:60px;"">+</div>","null","html-keyboard-response","255","219328","0.0-10.0-0.21","fixation","","","","",""
"630.2199999336153","Stimuli/Hangul_F70.bmp","190","image-keyboard-response","256","219959","0.0-10.0-1.21","test",".","",".","",""
"null","<div style=""color:white; font-size:60px;"">+</div>","null","html-keyboard-response","257","220961","0.0-10.0-0.22","fixation","","","","",""
"446.20499992743134","Stimuli/Hangul_M69.bmp","188","image-keyboard-response","258","221408","0.0-10.0-1.22","test",",","",",","",""
"null","<div style=""color:white; font-size:60px;"">+</div>","null","html-keyboard-response","259","222410","0.0-10.0-0.23","fixation","","","","",""
"973.2399999629706","Stimuli/Hangul_F54.bmp","188","image-keyboard-response","260","223383","0.0-10.0-1.23","test",".","",",","",""
"null","<div style=""color:white; font-size:60px;"">+</div>","null","html-keyboard-response","261","224386","0.0-10.0-0.24","fixation","","","","",""
"1012.540000025183","Stimuli/Hangul_M68.bmp","188","image-keyboard-response","262","225399","0.0-10.0-1.24","test",",","",",","",""
"null","<div style=""color:white; font-size:60px;"">+</div>","null","html-keyboard-response","263","226401","0.0-10.0-0.25","fixation","","","","",""
"1101.7099999589846","Stimuli/Hangul_M73.bmp","190","image-keyboard-response","264","227503","0.0-10.0-1.25","test",",","",".","",""
"null","<div style=""color:white; font-size:60px;"">+</div>","null","html-keyboard-response","265","228505","0.0-10.0-0.26","fixation","","","","",""
"1005.6900000199676","Stimuli/Hangul_F62.bmp","188","image-keyboard-response","266","229511","0.0-10.0-1.26","test",".","",",","",""
"null","<div style=""color:white; font-size:60px;"">+</div>","null","html-keyboard-response","267","230512","0.0-10.0-0.27","fixation","","","","",""
"822.1450001001358","Stimuli/Hangul_F55.bmp","188","image-keyboard-response","268","231335","0.0-10.0-1.27","test",".","",",","",""
"null","<div style=""color:white; font-size:60px;"">+</div>","null","html-keyboard-response","269","232336","0.0-10.0-0.28","fixation","","","","",""
"614.7699999855831","Stimuli/Hangul_F68.bmp","190","image-keyboard-response","270","232952","0.0-10.0-1.28","test",".","",".","",""
"null","<div style=""color:white; font-size:60px;"">+</div>","null","html-keyboard-response","271","233953","0.0-10.0-0.29","fixation","","","","",""
"517.4600000027567","Stimuli/Hangul_F56.bmp","190","image-keyboard-response","272","234471","0.0-10.0-1.29","test",".","",".","",""
"null","<div style=""color:white; font-size:60px;"">+</div>","null","html-keyboard-response","273","235473","0.0-10.0-0.30","fixation","","","","",""
"661.6900000954047","Stimuli/Hangul_M52.bmp","188","image-keyboard-response","274","236135","0.0-10.0-1.30","test",",","",",","",""
"null","<div style=""color:white; font-size:60px;"">+</div>","null","html-keyboard-response","275","237136","0.0-10.0-0.31","fixation","","","","",""
"1142.945000086911","Stimuli/Hangul_M64.bmp","188","image-keyboard-response","276","238279","0.0-10.0-1.31","test",",","",",","",""
"null","<div style=""color:white; font-size:60px;"">+</div>","null","html-keyboard-response","277","239281","0.0-10.0-0.32","fixation","","","","",""
"1093.639999977313","Stimuli/Hangul_M50.bmp","190","image-keyboard-response","278","240375","0.0-10.0-1.32","test",",","",".","",""
"null","<div style=""color:white; font-size:60px;"">+</div>","null","html-keyboard-response","279","241376","0.0-10.0-0.33","fixation","","","","",""
"894.2500000121072","Stimuli/Hangul_M70.bmp","190","image-keyboard-response","280","242271","0.0-10.0-1.33","test",",","",".","",""
"null","<div style=""color:white; font-size:60px;"">+</div>","null","html-keyboard-response","281","243272","0.0-10.0-0.34","fixation","","","","",""
"542.8900000406429","Stimuli/Hangul_F69.bmp","190","image-keyboard-response","282","243816","0.0-10.0-1.34","test",".","",".","",""
"null","<div style=""color:white; font-size:60px;"">+</div>","null","html-keyboard-response","283","244817","0.0-10.0-0.35","fixation","","","","",""
"453.3900000387803","Stimuli/Hangul_M67.bmp","190","image-keyboard-response","284","245271","0.0-10.0-1.35","test",",","",".","",""
"null","<div style=""color:white; font-size:60px;"">+</div>","null","html-keyboard-response","285","246273","0.0-10.0-0.36","fixation","","","","",""
"757.1100000059232","Stimuli/Hangul_M59.bmp","188","image-keyboard-response","286","247031","0.0-10.0-1.36","test",",","",",","",""
"null","<div style=""color:white; font-size:60px;"">+</div>","null","html-keyboard-response","287","248033","0.0-10.0-0.37","fixation","","","","",""
"941.1250000121072","Stimuli/Hangul_F74.bmp","188","image-keyboard-response","288","248975","0.0-10.0-1.37","test",".","",",","",""
"null","<div style=""color:white; font-size:60px;"">+</div>","null","html-keyboard-response","289","249977","0.0-10.0-0.38","fixation","","","","",""
"853.2350000459701","Stimuli/Hangul_F63.bmp","188","image-keyboard-response","290","250831","0.0-10.0-1.38","test",".","",",","",""
"null","<div style=""color:white; font-size:60px;"">+</div>","null","html-keyboard-response","291","251833","0.0-10.0-0.39","fixation","","","","",""
"469.5649999193847","Stimuli/Hangul_F73.bmp","190","image-keyboard-response","292","252303","0.0-10.0-1.39","test",".","",".","",""
"null","<div style=""color:white; font-size:60px;"">+</div>","null","html-keyboard-response","293","253305","0.0-10.0-0.40","fixation","","","","",""
"534.0149999829009","Stimuli/Hangul_M71.bmp","188","image-keyboard-response","294","253839","0.0-10.0-1.40","test",",","",",","",""
"null","<div style=""color:white; font-size:60px;"">+</div>","null","html-keyboard-response","295","254841","0.0-10.0-0.41","fixation","","","","",""
"549.5899999514222","Stimuli/Hangul_F52.bmp","190","image-keyboard-response","296","255391","0.0-10.0-1.41","test",".","",".","",""
"null","<div style=""color:white; font-size:60px;"">+</div>","null","html-keyboard-response","297","256393","0.0-10.0-0.42","fixation","","","","",""
"413.9149999246001","Stimuli/Hangul_F50.bmp","190","image-keyboard-response","298","256807","0.0-10.0-1.42","test",".","",".","",""
"null","<div style=""color:white; font-size:60px;"">+</div>","null","html-keyboard-response","299","257808","0.0-10.0-0.43","fixation","","","","",""
"413.1000000052154","Stimuli/Hangul_F60.bmp","190","image-keyboard-response","300","258222","0.0-10.0-1.43","test",".","",".","",""
"null","<div style=""color:white; font-size:60px;"">+</div>","null","html-keyboard-response","301","259223","0.0-10.0-0.44","fixation","","","","",""
"478.1600000569597","Stimuli/Hangul_M54.bmp","188","image-keyboard-response","302","259702","0.0-10.0-1.44","test",",","",",","",""
"null","<div style=""color:white; font-size:60px;"">+</div>","null","html-keyboard-response","303","260704","0.0-10.0-0.45","fixation","","","","",""
"406.55499999411404","Stimuli/Hangul_M51.bmp","188","image-keyboard-response","304","261111","0.0-10.0-1.45","test",",","",",","",""
"null","<div style=""color:white; font-size:60px;"">+</div>","null","html-keyboard-response","305","262113","0.0-10.0-0.46","fixation","","","","",""
"525.6799999624491","Stimuli/Hangul_M55.bmp","188","image-keyboard-response","306","262639","0.0-10.0-1.46","test",",","",",","",""
"null","<div style=""color:white; font-size:60px;"">+</div>","null","html-keyboard-response","307","263640","0.0-10.0-0.47","fixation","","","","",""
"943.0649999994785","Stimuli/Hangul_F61.bmp","188","image-keyboard-response","308","264583","0.0-10.0-1.47","test",".","",",","",""
"null","<div style=""color:white; font-size:60px;"">+</div>","null","html-keyboard-response","309","265584","0.0-10.0-0.48","fixation","","","","",""
"925.9699999820441","Stimuli/Hangul_M57.bmp","190","image-keyboard-response","310","266511","0.0-10.0-1.48","test",",","",".","",""
"null","<div style=""color:white; font-size:60px;"">+</div>","null","html-keyboard-response","311","267512","0.0-10.0-0.49","fixation","","","","",""
"902.18500001356","Stimuli/Hangul_M56.bmp","188","image-keyboard-response","312","268415","0.0-10.0-1.49","test",",","",",","",""
"838.9899999601766","<p style=""color:white;"">One more block to go! Please take a moment to rest.</p> <p style=""color:white;"">When you are ready to continue with block 4 of 4, press the space bar.</p> ","32","html-keyboard-response","313","269255","0.0-11.0","","","","","",""
"null","<div style=""color:white; font-size:60px;"">+</div>","null","html-keyboard-response","314","272258","0.0-12.0-0.0","fixation","","","","",""
"1171.9300000695512","Stimuli/Hangul_F75.bmp","190","image-keyboard-response","315","273431","0.0-12.0-1.0","test",".","",".","",""
"null","<div style=""color:white; font-size:60px;"">+</div>","null","html-keyboard-response","316","274432","0.0-12.0-0.1","fixation","","","","",""
"910.7800000347197","Stimuli/Hangul_F96.bmp","190","image-keyboard-response","317","275343","0.0-12.0-1.1","test",".","",".","",""
"null","<div style=""color:white; font-size:60px;"">+</div>","null","html-keyboard-response","318","276345","0.0-12.0-0.2","fixation","","","","",""
"709.5700000645593","Stimuli/Hangul_F86.bmp","190","image-keyboard-response","319","277055","0.0-12.0-1.2","test",".","",".","",""
"null","<div style=""color:white; font-size:60px;"">+</div>","null","html-keyboard-response","320","278056","0.0-12.0-0.3","fixation","","","","",""
"1165.3599999845028","Stimuli/Hangul_M96.bmp","188","image-keyboard-response","321","279222","0.0-12.0-1.3","test",",","",",","",""
"null","<div style=""color:white; font-size:60px;"">+</div>","null","html-keyboard-response","322","280224","0.0-12.0-0.4","fixation","","","","",""
"885.9000001102686","Stimuli/Hangul_F93.bmp","190","image-keyboard-response","323","281110","0.0-12.0-1.4","test",".","",".","",""
"null","<div style=""color:white; font-size:60px;"">+</div>","null","html-keyboard-response","324","282112","0.0-12.0-0.5","fixation","","","","",""
"966.3400000426918","Stimuli/Hangul_F88.bmp","190","image-keyboard-response","325","283079","0.0-12.0-1.5","test",".","",".","",""
"null","<div style=""color:white; font-size:60px;"">+</div>","null","html-keyboard-response","326","284081","0.0-12.0-0.6","fixation","","","","",""
"981.2600000295788","Stimuli/Hangul_F79.bmp","190","image-keyboard-response","327","285063","0.0-12.0-1.6","test",".","",".","",""
"null","<div style=""color:white; font-size:60px;"">+</div>","null","html-keyboard-response","328","286065","0.0-12.0-0.7","fixation","","","","",""
"1013.8700000243261","Stimuli/Hangul_F99.bmp","190","image-keyboard-response","329","287079","0.0-12.0-1.7","test",".","",".","",""
"null","<div style=""color:white; font-size:60px;"">+</div>","null","html-keyboard-response","330","288081","0.0-12.0-0.8","fixation","","","","",""
"1373.1100000441074","Stimuli/Hangul_M90.bmp","188","image-keyboard-response","331","289454","0.0-12.0-1.8","test",",","",",","",""
"null","<div style=""color:white; font-size:60px;"">+</div>","null","html-keyboard-response","332","290455","0.0-12.0-0.9","fixation","","","","",""
"942.6349999848753","Stimuli/Hangul_F87.bmp","190","image-keyboard-response","333","291399","0.0-12.0-1.9","test",".","",".","",""
"null","<div style=""color:white; font-size:60px;"">+</div>","null","html-keyboard-response","334","292400","0.0-12.0-0.10","fixation","","","","",""
"957.9349999548867","Stimuli/Hangul_F92.bmp","190","image-keyboard-response","335","293359","0.0-12.0-1.10","test",".","",".","",""
"null","<div style=""color:white; font-size:60px;"">+</div>","null","html-keyboard-response","336","294360","0.0-12.0-0.11","fixation","","","","",""
"814.3249999266118","Stimuli/Hangul_M91.bmp","188","image-keyboard-response","337","295175","0.0-12.0-1.11","test",",","",",","",""
"null","<div style=""color:white; font-size:60px;"">+</div>","null","html-keyboard-response","338","296176","0.0-12.0-0.12","fixation","","","","",""
"1262.6649999292567","Stimuli/Hangul_M75.bmp","190","image-keyboard-response","339","297439","0.0-12.0-1.12","test",",","",".","",""
"null","<div style=""color:white; font-size:60px;"">+</div>","null","html-keyboard-response","340","298441","0.0-12.0-0.13","fixation","","","","",""
"1053.4599999664351","Stimuli/Hangul_F89.bmp","190","image-keyboard-response","341","299495","0.0-12.0-1.13","test",".","",".","",""
"null","<div style=""color:white; font-size:60px;"">+</div>","null","html-keyboard-response","342","300496","0.0-12.0-0.14","fixation","","","","",""
"902.7599999681115","Stimuli/Hangul_F95.bmp","190","image-keyboard-response","343","301399","0.0-12.0-1.14","test",".","",".","",""
"null","<div style=""color:white; font-size:60px;"">+</div>","null","html-keyboard-response","344","302400","0.0-12.0-0.15","fixation","","","","",""
"957.8599999658763","Stimuli/Hangul_M76.bmp","188","image-keyboard-response","345","303359","0.0-12.0-1.15","test",",","",",","",""
"null","<div style=""color:white; font-size:60px;"">+</div>","null","html-keyboard-response","346","304360","0.0-12.0-0.16","fixation","","","","",""
"3006.0949999606237","Stimuli/Hangul_F84.bmp","190","image-keyboard-response","347","307367","0.0-12.0-1.16","test",".","",".","",""
"null","<div style=""color:white; font-size:60px;"">+</div>","null","html-keyboard-response","348","308370","0.0-12.0-0.17","fixation","","","","",""
"1116.425000014715","Stimuli/Hangul_F94.bmp","190","image-keyboard-response","349","309487","0.0-12.0-1.17","test",".","",".","",""
"null","<div style=""color:white; font-size:60px;"">+</div>","null","html-keyboard-response","350","310488","0.0-12.0-0.18","fixation","","","","",""
"526.0850000195205","Stimuli/Hangul_M99.bmp","188","image-keyboard-response","351","311015","0.0-12.0-1.18","test",",","",",","",""
"null","<div style=""color:white; font-size:60px;"">+</div>","null","html-keyboard-response","352","312017","0.0-12.0-0.19","fixation","","","","",""
"1268.335000029765","Stimuli/Hangul_M85.bmp","188","image-keyboard-response","353","313286","0.0-12.0-1.19","test",",","",",","",""
"null","<div style=""color:white; font-size:60px;"">+</div>","null","html-keyboard-response","354","314287","0.0-12.0-0.20","fixation","","","","",""
"1239.0199999790639","Stimuli/Hangul_F90.bmp","190","image-keyboard-response","355","315527","0.0-12.0-1.20","test",".","",".","",""
"null","<div style=""color:white; font-size:60px;"">+</div>","null","html-keyboard-response","356","316528","0.0-12.0-0.21","fixation","","","","",""
"998.6849999986589","Stimuli/Hangul_F82.bmp","190","image-keyboard-response","357","317527","0.0-12.0-1.21","test",".","",".","",""
"null","<div style=""color:white; font-size:60px;"">+</div>","null","html-keyboard-response","358","318528","0.0-12.0-0.22","fixation","","","","",""
"1054.6949999406934","Stimuli/Hangul_M78.bmp","188","image-keyboard-response","359","319583","0.0-12.0-1.22","test",",","",",","",""
"null","<div style=""color:white; font-size:60px;"">+</div>","null","html-keyboard-response","360","320585","0.0-12.0-0.23","fixation","","","","",""
"1301.2200000230223","Stimuli/Hangul_F83.bmp","190","image-keyboard-response","361","321886","0.0-12.0-1.23","test",".","",".","",""
"null","<div style=""color:white; font-size:60px;"">+</div>","null","html-keyboard-response","362","322888","0.0-12.0-0.24","fixation","","","","",""
"894.8100000852719","Stimuli/Hangul_M95.bmp","190","image-keyboard-response","363","323783","0.0-12.0-1.24","test",",","",".","",""
"null","<div style=""color:white; font-size:60px;"">+</div>","null","html-keyboard-response","364","324785","0.0-12.0-0.25","fixation","","","","",""
"925.1200000289828","Stimuli/Hangul_F81.bmp","190","image-keyboard-response","365","325711","0.0-12.0-1.25","test",".","",".","",""
"null","<div style=""color:white; font-size:60px;"">+</div>","null","html-keyboard-response","366","326712","0.0-12.0-0.26","fixation","","","","",""
"1109.6800001105294","Stimuli/Hangul_M88.bmp","188","image-keyboard-response","367","327822","0.0-12.0-1.26","test",",","",",","",""
"null","<div style=""color:white; font-size:60px;"">+</div>","null","html-keyboard-response","368","328823","0.0-12.0-0.27","fixation","","","","",""
"959.4349999679253","Stimuli/Hangul_F85.bmp","190","image-keyboard-response","369","329783","0.0-12.0-1.27","test",".","",".","",""
"null","<div style=""color:white; font-size:60px;"">+</div>","null","html-keyboard-response","370","330785","0.0-12.0-0.28","fixation","","","","",""
"1252.6050000451505","Stimuli/Hangul_M87.bmp","190","image-keyboard-response","371","332038","0.0-12.0-1.28","test",",","",".","",""
"null","<div style=""color:white; font-size:60px;"">+</div>","null","html-keyboard-response","372","333040","0.0-12.0-0.29","fixation","","","","",""
"1197.9049999499694","Stimuli/Hangul_M83.bmp","188","image-keyboard-response","373","334238","0.0-12.0-1.29","test",",","",",","",""
"null","<div style=""color:white; font-size:60px;"">+</div>","null","html-keyboard-response","374","335239","0.0-12.0-0.30","fixation","","","","",""
"925.8250000420958","Stimuli/Hangul_F91.bmp","188","image-keyboard-response","375","336166","0.0-12.0-1.30","test",".","",",","",""
"null","<div style=""color:white; font-size:60px;"">+</div>","null","html-keyboard-response","376","337168","0.0-12.0-0.31","fixation","","","","",""
"1078.5499999765307","Stimuli/Hangul_M97.bmp","188","image-keyboard-response","377","338247","0.0-12.0-1.31","test",",","",",","",""
"null","<div style=""color:white; font-size:60px;"">+</div>","null","html-keyboard-response","378","339248","0.0-12.0-0.32","fixation","","","","",""
"1198.97500006482","Stimuli/Hangul_M77.bmp","188","image-keyboard-response","379","340447","0.0-12.0-1.32","test",",","",",","",""
"null","<div style=""color:white; font-size:60px;"">+</div>","null","html-keyboard-response","380","341448","0.0-12.0-0.33","fixation","","","","",""
"1013.5950000258163","Stimuli/Hangul_F78.bmp","190","image-keyboard-response","381","342463","0.0-12.0-1.33","test",".","",".","",""
"null","<div style=""color:white; font-size:60px;"">+</div>","null","html-keyboard-response","382","343463","0.0-12.0-0.34","fixation","","","","",""
"1038.7549999868497","Stimuli/Hangul_M92.bmp","188","image-keyboard-response","383","344503","0.0-12.0-1.34","test",",","",",","",""
"null","<div style=""color:white; font-size:60px;"">+</div>","null","html-keyboard-response","384","345505","0.0-12.0-0.35","fixation","","","","",""
"1133.7100000819191","Stimuli/Hangul_M84.bmp","190","image-keyboard-response","385","346639","0.0-12.0-1.35","test",",","",".","",""
"null","<div style=""color:white; font-size:60px;"">+</div>","null","html-keyboard-response","386","347640","0.0-12.0-0.36","fixation","","","","",""
"1429.0449999971315","Stimuli/Hangul_M94.bmp","188","image-keyboard-response","387","349070","0.0-12.0-1.36","test",",","",",","",""
"null","<div style=""color:white; font-size:60px;"">+</div>","null","html-keyboard-response","388","350072","0.0-12.0-0.37","fixation","","","","",""
"1038.9199999626726","Stimuli/Hangul_M80.bmp","188","image-keyboard-response","389","351111","0.0-12.0-1.37","test",",","",",","",""
"null","<div style=""color:white; font-size:60px;"">+</div>","null","html-keyboard-response","390","352112","0.0-12.0-0.38","fixation","","","","",""
"1030.0699999788776","Stimuli/Hangul_F97.bmp","190","image-keyboard-response","391","353143","0.0-12.0-1.38","test",".","",".","",""
"null","<div style=""color:white; font-size:60px;"">+</div>","null","html-keyboard-response","392","354144","0.0-12.0-0.39","fixation","","","","",""
"1093.460000003688","Stimuli/Hangul_M89.bmp","188","image-keyboard-response","393","355238","0.0-12.0-1.39","test",",","",",","",""
"null","<div style=""color:white; font-size:60px;"">+</div>","null","html-keyboard-response","394","356239","0.0-12.0-0.40","fixation","","","","",""
"1406.8749999860302","Stimuli/Hangul_F77.bmp","190","image-keyboard-response","395","357647","0.0-12.0-1.40","test",".","",".","",""
"null","<div style=""color:white; font-size:60px;"">+</div>","null","html-keyboard-response","396","358648","0.0-12.0-0.41","fixation","","","","",""
"989.5400000968948","Stimuli/Hangul_F76.bmp","190","image-keyboard-response","397","359639","0.0-12.0-1.41","test",".","",".","",""
"null","<div style=""color:white; font-size:60px;"">+</div>","null","html-keyboard-response","398","360640","0.0-12.0-0.42","fixation","","","","",""
"958.1950000720099","Stimuli/Hangul_M98.bmp","188","image-keyboard-response","399","361599","0.0-12.0-1.42","test",",","",",","",""
"null","<div style=""color:white; font-size:60px;"">+</div>","null","html-keyboard-response","400","362600","0.0-12.0-0.43","fixation","","","","",""
"1070.0200001010671","Stimuli/Hangul_M81.bmp","188","image-keyboard-response","401","363671","0.0-12.0-1.43","test",",","",",","",""
"null","<div style=""color:white; font-size:60px;"">+</div>","null","html-keyboard-response","402","364673","0.0-12.0-0.44","fixation","","","","",""
"1060.994999948889","Stimuli/Hangul_M82.bmp","188","image-keyboard-response","403","365735","0.0-12.0-1.44","test",",","",",","",""
"null","<div style=""color:white; font-size:60px;"">+</div>","null","html-keyboard-response","404","366736","0.0-12.0-0.45","fixation","","","","",""
"1142.1400000108406","Stimuli/Hangul_F98.bmp","190","image-keyboard-response","405","367879","0.0-12.0-1.45","test",".","",".","",""
"null","<div style=""color:white; font-size:60px;"">+</div>","null","html-keyboard-response","406","368881","0.0-12.0-0.46","fixation","","","","",""
"821.3649999815971","Stimuli/Hangul_M93.bmp","188","image-keyboard-response","407","369702","0.0-12.0-1.46","test",",","",",","",""
"null","<div style=""color:white; font-size:60px;"">+</div>","null","html-keyboard-response","408","370703","0.0-12.0-0.47","fixation","","","","",""
"879.0400000289083","Stimuli/Hangul_M86.bmp","188","image-keyboard-response","409","371583","0.0-12.0-1.47","test",",","",",","",""
"null","<div style=""color:white; font-size:60px;"">+</div>","null","html-keyboard-response","410","372585","0.0-12.0-0.48","fixation","","","","",""
"909.8849999718368","Stimuli/Hangul_F80.bmp","190","image-keyboard-response","411","373495","0.0-12.0-1.48","test",".","",".","",""
"null","<div style=""color:white; font-size:60px;"">+</div>","null","html-keyboard-response","412","374497","0.0-12.0-0.49","fixation","","","","",""
"981.3849999336526","Stimuli/Hangul_M79.bmp","188","image-keyboard-response","413","375479","0.0-12.0-1.49","test",",","",",","",""
"2678.085000021383","<p style=""color:white;"">Phase I of the experiment is complete.</p> <p style=""color:white;"">Press the space bar to proceed to Phase II of the experiment.</p> ","32","html-keyboard-response","414","378158","0.0-13.0","","","","","",""
"7671.559999929741","<p style=""color:white;"">Now we are interested in how well you can predict patterns in the series of figures. You will be asked to predict whether the next figure in the series is more male-like or female-like. When you see the <q>Next Figure</q> prompt, press the corresponding response keys to indicate your prediction: </p><p style=""color:white;""> Male &#8594 <q>,</q> (comma)</p><p style=""color:white;""> Female &#8594 <q>.</q> (period)</p><p style=""color:white;"">The actual figure will then appear on the screen. After you see the figure, please guess the assigned gender with response keys. </p><p style=""color:white;"">As before, you will receive 2 cents for correctly classifying each figure.</p><p style=""color:white;"">Press either response keys to continue.</p>","188","html-keyboard-response","415","387830","0.0-14.0","","","","","",""
"12136.129999998957","<p style=""color:white;"">PREDICTION BONUS</p> <p style=""color:white;"">Your prediction accuracy is the total number of correct predictions you make over the 200 trials.</p> <p style=""color:white;"">In addition to the 2 cents per correct figure classification, you have the chance to receive a bonus of 40 dollars IF your accuracy is above average relative to previous participants.</p><p style=""color:white;"">If your accuracy is below average relative to previous participants, then you will not receive the 40 dollar bonus.</p><p style=""color:white;"">Press the space bar to continue.</p>","32","html-keyboard-response","416","399967","0.0-15.0","","","","","",""
"7853.705000015907","<p style=""color:white;"">Here are some examples.</p> <p style=""color:white;"">For each, predict whether the next figure looks more male-like or female-like. Then, when the figure appears, guess whether it looks more male-like or female-like and indicate your choice.</p> <p style=""color:white;"">Press the space bar to continue.</p>","32","html-keyboard-response","417","407822","0.0-16.0","","","","","",""
"807.8499999828637","<p style=""color:white;""> Next Figure: Male or Female? </p>","188","html-keyboard-response","418","410631","0.0-17.0-0.0","prediction_train","","","",",",""
"null","<div style=""color:white; font-size:60px;"">+</div>","null","html-keyboard-response","419","411633","0.0-17.0-1.0","fixation","","","","",""
"940.3800000436604","Stimuli/Hangul_E2.bmp","190","image-keyboard-response","420","412574","0.0-17.0-2.0","c2_train",".","","","","."
"86.75999997649342","<p style=""color:white;""> Next Figure: Male or Female? </p>","188","html-keyboard-response","421","412663","0.0-17.0-0.1","prediction_train","","","",",",""
"null","<div style=""color:white; font-size:60px;"">+</div>","null","html-keyboard-response","422","413664","0.0-17.0-1.1","fixation","","","","",""
"957.8449999680743","Stimuli/Hangul_E1.bmp","188","image-keyboard-response","423","414623","0.0-17.0-2.1","c2_train",",","","","",","
"166.90499999094754","<p style=""color:white;""> Next Figure: Male or Female? </p>","190","html-keyboard-response","424","414790","0.0-17.0-0.2","prediction_train","","","",".",""
"null","<div style=""color:white; font-size:60px;"">+</div>","null","html-keyboard-response","425","415791","0.0-17.0-1.2","fixation","","","","",""
"718.9500000094995","Stimuli/Hangul_E0.bmp","188","image-keyboard-response","426","416510","0.0-17.0-2.2","c2_train",",","","","",","
"942.8499999921769","<p style=""color:white;"">Let us begin! Press the space bar when you are ready to start block 1 of 4.</p> ","32","html-keyboard-response","427","417454","0.0-18.0","","","","","",""
"613.3400000398979","<p style=""color:white;""> Next Figure: Male or Female? </p>","188","html-keyboard-response","428","420070","0.0-19.0-0.0","prediction","","","",",",""
"null","<div style=""color:white; font-size:60px;"">+</div>","null","html-keyboard-response","429","421072","0.0-19.0-1.0","fixation","","","","",""
"734.4049999956042","Stimuli/Hangul_M4.bmp","188","image-keyboard-response","430","421807","0.0-19.0-2.0","c2_test",",","","","",","
"135.0550000788644","<p style=""color:white;""> Next Figure: Male or Female? </p>","188","html-keyboard-response","431","421942","0.0-19.0-0.1","prediction","","","",",",""
"null","<div style=""color:white; font-size:60px;"">+</div>","null","html-keyboard-response","432","422943","0.0-19.0-1.1","fixation","","","","",""
"566.3550000172108","Stimuli/Hangul_F23.bmp","188","image-keyboard-response","433","423510","0.0-19.0-2.1","c2_test",".","","","",","
"142.64500001445413","<p style=""color:white;""> Next Figure: Male or Female? </p>","188","html-keyboard-response","434","423653","0.0-19.0-0.2","prediction","","","",",",""
"null","<div style=""color:white; font-size:60px;"">+</div>","null","html-keyboard-response","435","424655","0.0-19.0-1.2","fixation","","","","",""
"509.82500007376075","Stimuli/Hangul_F10.bmp","190","image-keyboard-response","436","425165","0.0-19.0-2.2","c2_test",".","","","","."
"136.12999999895692","<p style=""color:white;""> Next Figure: Male or Female? </p>","190","html-keyboard-response","437","425302","0.0-19.0-0.3","prediction","","","",".",""
"null","<div style=""color:white; font-size:60px;"">+</div>","null","html-keyboard-response","438","426303","0.0-19.0-1.3","fixation","","","","",""
"710.120000061579","Stimuli/Hangul_F2.bmp","188","image-keyboard-response","439","427014","0.0-19.0-2.3","c2_test",".","","","",","
"151.52000007219613","<p style=""color:white;""> Next Figure: Male or Female? </p>","188","html-keyboard-response","440","427166","0.0-19.0-0.4","prediction","","","",",",""
"null","<div style=""color:white; font-size:60px;"">+</div>","null","html-keyboard-response","441","428167","0.0-19.0-1.4","fixation","","","","",""
"630.3750000661239","Stimuli/Hangul_M23.bmp","190","image-keyboard-response","442","428798","0.0-19.0-2.4","c2_test",",","","","","."
"151.6200000187382","<p style=""color:white;""> Next Figure: Male or Female? </p>","190","html-keyboard-response","443","428950","0.0-19.0-0.5","prediction","","","",".",""
"null","<div style=""color:white; font-size:60px;"">+</div>","null","html-keyboard-response","444","429951","0.0-19.0-1.5","fixation","","","","",""
"598.1600000523031","Stimuli/Hangul_F6.bmp","188","image-keyboard-response","445","430550","0.0-19.0-2.5","c2_test",".","","","",","
"151.769999996759","<p style=""color:white;""> Next Figure: Male or Female? </p>","188","html-keyboard-response","446","430702","0.0-19.0-0.6","prediction","","","",",",""
"null","<div style=""color:white; font-size:60px;"">+</div>","null","html-keyboard-response","447","431703","0.0-19.0-1.6","fixation","","","","",""
"694.9899999890476","Stimuli/Hangul_M19.bmp","188","image-keyboard-response","448","432399","0.0-19.0-2.6","c2_test",",","","","",","
"126.86499999836087","<p style=""color:white;""> Next Figure: Male or Female? </p>","188","html-keyboard-response","449","432526","0.0-19.0-0.7","prediction","","","",",",""
"null","<div style=""color:white; font-size:60px;"">+</div>","null","html-keyboard-response","450","433529","0.0-19.0-1.7","fixation","","","","",""
"685.3050000499934","Stimuli/Hangul_M17.bmp","188","image-keyboard-response","451","434215","0.0-19.0-2.7","c2_test",",","","","",","
"62.89999990258366","<p style=""color:white;""> Next Figure: Male or Female? </p>","190","html-keyboard-response","452","434278","0.0-19.0-0.8","prediction","","","",".",""
"null","<div style=""color:white; font-size:60px;"">+</div>","null","html-keyboard-response","453","435279","0.0-19.0-1.8","fixation","","","","",""
"758.0549999838695","Stimuli/Hangul_M1.bmp","188","image-keyboard-response","454","436038","0.0-19.0-2.8","c2_test",",","","","",","
"39.539999910630286","<p style=""color:white;""> Next Figure: Male or Female? </p>","190","html-keyboard-response","455","436078","0.0-19.0-0.9","prediction","","","",".",""
"null","<div style=""color:white; font-size:60px;"">+</div>","null","html-keyboard-response","456","437079","0.0-19.0-1.9","fixation","","","","",""
"750.5899999523535","Stimuli/Hangul_F16.bmp","188","image-keyboard-response","457","437830","0.0-19.0-2.9","c2_test",".","","","",","
"63.48499993328005","<p style=""color:white;""> Next Figure: Male or Female? </p>","190","html-keyboard-response","458","437894","0.0-19.0-0.10","prediction","","","",".",""
"null","<div style=""color:white; font-size:60px;"">+</div>","null","html-keyboard-response","459","438896","0.0-19.0-1.10","fixation","","","","",""
"669.5800001034513","Stimuli/Hangul_M7.bmp","188","image-keyboard-response","460","439566","0.0-19.0-2.10","c2_test",",","","","",","
"79.28499998524785","<p style=""color:white;""> Next Figure: Male or Female? </p>","190","html-keyboard-response","461","439646","0.0-19.0-0.11","prediction","","","",".",""
"null","<div style=""color:white; font-size:60px;"">+</div>","null","html-keyboard-response","462","440648","0.0-19.0-1.11","fixation","","","","",""
"1109.2850000131875","Stimuli/Hangul_M24.bmp","188","image-keyboard-response","463","441758","0.0-19.0-2.11","c2_test",",","","","",","
"142.64999993611127","<p style=""color:white;""> Next Figure: Male or Female? </p>","188","html-keyboard-response","464","441902","0.0-19.0-0.12","prediction","","","",",",""
"null","<div style=""color:white; font-size:60px;"">+</div>","null","html-keyboard-response","465","442903","0.0-19.0-1.12","fixation","","","","",""
"542.7050000289455","Stimuli/Hangul_M21.bmp","188","image-keyboard-response","466","443447","0.0-19.0-2.12","c2_test",",","","","",","
"54.5549999224022","<p style=""color:white;""> Next Figure: Male or Female? </p>","190","html-keyboard-response","467","443502","0.0-19.0-0.13","prediction","","","",".",""
"null","<div style=""color:white; font-size:60px;"">+</div>","null","html-keyboard-response","468","444504","0.0-19.0-1.13","fixation","","","","",""
"1205.8150001103058","Stimuli/Hangul_M12.bmp","188","image-keyboard-response","469","445710","0.0-19.0-2.13","c2_test",",","","","",","
"46.919999993406236","<p style=""color:white;""> Next Figure: Male or Female? </p>","190","html-keyboard-response","470","445758","0.0-19.0-0.14","prediction","","","",".",""
"null","<div style=""color:white; font-size:60px;"">+</div>","null","html-keyboard-response","471","446759","0.0-19.0-1.14","fixation","","","","",""
"701.7200000118464","Stimuli/Hangul_M13.bmp","190","image-keyboard-response","472","447462","0.0-19.0-2.14","c2_test",",","","","","."
"159.85500009264797","<p style=""color:white;""> Next Figure: Male or Female? </p>","190","html-keyboard-response","473","447622","0.0-19.0-0.15","prediction","","","",".",""
"null","<div style=""color:white; font-size:60px;"">+</div>","null","html-keyboard-response","474","448623","0.0-19.0-1.15","fixation","","","","",""
"1861.5249999566004","Stimuli/Hangul_F24.bmp","190","image-keyboard-response","475","450485","0.0-19.0-2.15","c2_test",".","","","","."
"135.59499999973923","<p style=""color:white;""> Next Figure: Male or Female? </p>","190","html-keyboard-response","476","450622","0.0-19.0-0.16","prediction","","","",".",""
"null","<div style=""color:white; font-size:60px;"">+</div>","null","html-keyboard-response","477","451623","0.0-19.0-1.16","fixation","","","","",""
"1094.2849999992177","Stimuli/Hangul_F11.bmp","190","image-keyboard-response","478","452718","0.0-19.0-2.16","c2_test",".","","","","."
"142.96500000637025","<p style=""color:white;""> Next Figure: Male or Female? </p>","190","html-keyboard-response","479","452862","0.0-19.0-0.17","prediction","","","",".",""
"null","<div style=""color:white; font-size:60px;"">+</div>","null","html-keyboard-response","480","453864","0.0-19.0-1.17","fixation","","","","",""
"1574.3300000904128","Stimuli/Hangul_F7.bmp","188","image-keyboard-response","481","455439","0.0-19.0-2.17","c2_test",".","","","",","
"142.78999995440245","<p style=""color:white;""> Next Figure: Male or Female? </p>","188","html-keyboard-response","482","455582","0.0-19.0-0.18","prediction","","","",",",""
"null","<div style=""color:white; font-size:60px;"">+</div>","null","html-keyboard-response","483","456583","0.0-19.0-1.18","fixation","","","","",""
"679.0600001113489","Stimuli/Hangul_F0.bmp","188","image-keyboard-response","484","457262","0.0-19.0-2.18","c2_test",".","","","",","
"135.36499999463558","<p style=""color:white;""> Next Figure: Male or Female? </p>","188","html-keyboard-response","485","457398","0.0-19.0-0.19","prediction","","","",",",""
"null","<div style=""color:white; font-size:60px;"">+</div>","null","html-keyboard-response","486","458399","0.0-19.0-1.19","fixation","","","","",""
"534.4350000377744","Stimuli/Hangul_F19.bmp","188","image-keyboard-response","487","458934","0.0-19.0-2.19","c2_test",".","","","",","
"63.54500004090369","<p style=""color:white;""> Next Figure: Male or Female? </p>","190","html-keyboard-response","488","458998","0.0-19.0-0.20","prediction","","","",".",""
"null","<div style=""color:white; font-size:60px;"">+</div>","null","html-keyboard-response","489","460000","0.0-19.0-1.20","fixation","","","","",""
"717.3699999693781","Stimuli/Hangul_M9.bmp","188","image-keyboard-response","490","460718","0.0-19.0-2.20","c2_test",",","","","",","
"79.50500003062189","<p style=""color:white;""> Next Figure: Male or Female? </p>","188","html-keyboard-response","491","460798","0.0-19.0-0.21","prediction","","","",",",""
"null","<div style=""color:white; font-size:60px;"">+</div>","null","html-keyboard-response","492","461799","0.0-19.0-1.21","fixation","","","","",""
"614.5849999738857","Stimuli/Hangul_M15.bmp","190","image-keyboard-response","493","462414","0.0-19.0-2.21","c2_test",",","","","","."
"142.76499999687076","<p style=""color:white;""> Next Figure: Male or Female? </p>","190","html-keyboard-response","494","462558","0.0-19.0-0.22","prediction","","","",".",""
"null","<div style=""color:white; font-size:60px;"">+</div>","null","html-keyboard-response","495","463558","0.0-19.0-1.22","fixation","","","","",""
"863.1749999476597","Stimuli/Hangul_M2.bmp","188","image-keyboard-response","496","464422","0.0-19.0-2.22","c2_test",",","","","",","
"47.60000004898757","<p style=""color:white;""> Next Figure: Male or Female? </p>","190","html-keyboard-response","497","464470","0.0-19.0-0.23","prediction","","","",".",""
"null","<div style=""color:white; font-size:60px;"">+</div>","null","html-keyboard-response","498","465471","0.0-19.0-1.23","fixation","","","","",""
"638.6699998984113","Stimuli/Hangul_M14.bmp","188","image-keyboard-response","499","466110","0.0-19.0-2.23","c2_test",",","","","",","
"62.34500010032207","<p style=""color:white;""> Next Figure: Male or Female? </p>","190","html-keyboard-response","500","466173","0.0-19.0-0.24","prediction","","","",".",""
"null","<div style=""color:white; font-size:60px;"">+</div>","null","html-keyboard-response","501","467175","0.0-19.0-1.24","fixation","","","","",""
"510.77000005170703","Stimuli/Hangul_M11.bmp","188","image-keyboard-response","502","467686","0.0-19.0-2.24","c2_test",",","","","",","
"79.06999997794628","<p style=""color:white;""> Next Figure: Male or Female? </p>","190","html-keyboard-response","503","467766","0.0-19.0-0.25","prediction","","","",".",""
"null","<div style=""color:white; font-size:60px;"">+</div>","null","html-keyboard-response","504","468768","0.0-19.0-1.25","fixation","","","","",""
"805.1850000629202","Stimuli/Hangul_F22.bmp","190","image-keyboard-response","505","469574","0.0-19.0-2.25","c2_test",".","","","","."
"135.49000001512468","<p style=""color:white;""> Next Figure: Male or Female? </p>","190","html-keyboard-response","506","469710","0.0-19.0-0.26","prediction","","","",".",""
"null","<div style=""color:white; font-size:60px;"">+</div>","null","html-keyboard-response","507","470711","0.0-19.0-1.26","fixation","","","","",""
"565.1999999536201","Stimuli/Hangul_F13.bmp","188","image-keyboard-response","508","471277","0.0-19.0-2.26","c2_test",".","","","",","
"71.94499997422099","<p style=""color:white;""> Next Figure: Male or Female? </p>","190","html-keyboard-response","509","471350","0.0-19.0-0.27","prediction","","","",".",""
"null","<div style=""color:white; font-size:60px;"">+</div>","null","html-keyboard-response","510","472352","0.0-19.0-1.27","fixation","","","","",""
"749.695000005886","Stimuli/Hangul_M3.bmp","188","image-keyboard-response","511","473102","0.0-19.0-2.27","c2_test",",","","","",","
"159.63999996893108","<p style=""color:white;""> Next Figure: Male or Female? </p>","188","html-keyboard-response","512","473262","0.0-19.0-0.28","prediction","","","",",",""
"null","<div style=""color:white; font-size:60px;"">+</div>","null","html-keyboard-response","513","474264","0.0-19.0-1.28","fixation","","","","",""
"589.6250000223517","Stimuli/Hangul_M18.bmp","188","image-keyboard-response","514","474854","0.0-19.0-2.28","c2_test",",","","","",","
"127.24500009790063","<p style=""color:white;""> Next Figure: Male or Female? </p>","188","html-keyboard-response","515","474982","0.0-19.0-0.29","prediction","","","",",",""
"null","<div style=""color:white; font-size:60px;"">+</div>","null","html-keyboard-response","516","475984","0.0-19.0-1.29","fixation","","","","",""
"1117.255000048317","Stimuli/Hangul_F8.bmp","190","image-keyboard-response","517","477102","0.0-19.0-2.29","c2_test",".","","","","."
"157.81000000424683","<p style=""color:white;""> Next Figure: Male or Female? </p>","190","html-keyboard-response","518","477261","0.0-19.0-0.30","prediction","","","",".",""
"null","<div style=""color:white; font-size:60px;"">+</div>","null","html-keyboard-response","519","478262","0.0-19.0-1.30","fixation","","","","",""
"2751.4049999881536","Stimuli/Hangul_F15.bmp","188","image-keyboard-response","520","481014","0.0-19.0-2.30","c2_test",".","","","",","
"95.6500000320375","<p style=""color:white;""> Next Figure: Male or Female? </p>","190","html-keyboard-response","521","481111","0.0-19.0-0.31","prediction","","","",".",""
"null","<div style=""color:white; font-size:60px;"">+</div>","null","html-keyboard-response","522","482112","0.0-19.0-1.31","fixation","","","","",""
"829.7350000357255","Stimuli/Hangul_M0.bmp","188","image-keyboard-response","523","482943","0.0-19.0-2.31","c2_test",",","","","",","
"151.1000000173226","<p style=""color:white;""> Next Figure: Male or Female? </p>","188","html-keyboard-response","524","483094","0.0-19.0-0.32","prediction","","","",",",""
"null","<div style=""color:white; font-size:60px;"">+</div>","null","html-keyboard-response","525","484095","0.0-19.0-1.32","fixation","","","","",""
"542.7949998993427","Stimuli/Hangul_F5.bmp","188","image-keyboard-response","526","484639","0.0-19.0-2.32","c2_test",".","","","",","
"110.17499992158264","<p style=""color:white;""> Next Figure: Male or Female? </p>","188","html-keyboard-response","527","484750","0.0-19.0-0.33","prediction","","","",",",""
"null","<div style=""color:white; font-size:60px;"">+</div>","null","html-keyboard-response","528","485752","0.0-19.0-1.33","fixation","","","","",""
"725.6150000030175","Stimuli/Hangul_F1.bmp","190","image-keyboard-response","529","486478","0.0-19.0-2.33","c2_test",".","","","","."
"127.54999997559935","<p style=""color:white;""> Next Figure: Male or Female? </p>","190","html-keyboard-response","530","486606","0.0-19.0-0.34","prediction","","","",".",""
"null","<div style=""color:white; font-size:60px;"">+</div>","null","html-keyboard-response","531","487608","0.0-19.0-1.34","fixation","","","","",""
"741.4199999766424","Stimuli/Hangul_M16.bmp","190","image-keyboard-response","532","488350","0.0-19.0-2.34","c2_test",",","","","","."
"143.37499998509884","<p style=""color:white;""> Next Figure: Male or Female? </p>","190","html-keyboard-response","533","488494","0.0-19.0-0.35","prediction","","","",".",""
"null","<div style=""color:white; font-size:60px;"">+</div>","null","html-keyboard-response","534","489496","0.0-19.0-1.35","fixation","","","","",""
"614.2349999863654","Stimuli/Hangul_M8.bmp","188","image-keyboard-response","535","490110","0.0-19.0-2.35","c2_test",",","","","",","
"174.63999998290092","<p style=""color:white;""> Next Figure: Male or Female? </p>","188","html-keyboard-response","536","490286","0.0-19.0-0.36","prediction","","","",",",""
"null","<div style=""color:white; font-size:60px;"">+</div>","null","html-keyboard-response","537","491287","0.0-19.0-1.36","fixation","","","","",""
"885.1299999514595","Stimuli/Hangul_M5.bmp","188","image-keyboard-response","538","492173","0.0-19.0-2.36","c2_test",",","","","",","
"55.315000005066395","<p style=""color:white;""> Next Figure: Male or Female? </p>","190","html-keyboard-response","539","492229","0.0-19.0-0.37","prediction","","","",".",""
"null","<div style=""color:white; font-size:60px;"">+</div>","null","html-keyboard-response","540","493231","0.0-19.0-1.37","fixation","","","","",""
"805.9900000225753","Stimuli/Hangul_F9.bmp","188","image-keyboard-response","541","494038","0.0-19.0-2.37","c2_test",".","","","",","
"39.42499996628612","<p style=""color:white;""> Next Figure: Male or Female? </p>","190","html-keyboard-response","542","494078","0.0-19.0-0.38","prediction","","","",".",""
"null","<div style=""color:white; font-size:60px;"">+</div>","null","html-keyboard-response","543","495079","0.0-19.0-1.38","fixation","","","","",""
"919.205000041984","Stimuli/Hangul_M20.bmp","188","image-keyboard-response","544","495999","0.0-19.0-2.38","c2_test",",","","","",","
"150.0350000569597","<p style=""color:white;""> Next Figure: Male or Female? </p>","188","html-keyboard-response","545","496150","0.0-19.0-0.39","prediction","","","",",",""
"null","<div style=""color:white; font-size:60px;"">+</div>","null","html-keyboard-response","546","497152","0.0-19.0-1.39","fixation","","","","",""
"597.8549999417737","Stimuli/Hangul_F3.bmp","188","image-keyboard-response","547","497750","0.0-19.0-2.39","c2_test",".","","","",","
"159.09500000998378","<p style=""color:white;""> Next Figure: Male or Female? </p>","188","html-keyboard-response","548","497910","0.0-19.0-0.40","prediction","","","",",",""
"null","<div style=""color:white; font-size:60px;"">+</div>","null","html-keyboard-response","549","498912","0.0-19.0-1.40","fixation","","","","",""
"150.0700000906363","Stimuli/Hangul_F12.bmp","188","image-keyboard-response","550","499062","0.0-19.0-2.40","c2_test",".","","","",","
"678.929999936372","<p style=""color:white;""> Next Figure: Male or Female? </p>","188","html-keyboard-response","551","499742","0.0-19.0-0.41","prediction","","","",",",""
"null","<div style=""color:white; font-size:60px;"">+</div>","null","html-keyboard-response","552","500744","0.0-19.0-1.41","fixation","","","","",""
"925.9799999417737","Stimuli/Hangul_F14.bmp","188","image-keyboard-response","553","501670","0.0-19.0-2.41","c2_test",".","","","",","
"23.595000035129488","<p style=""color:white;""> Next Figure: Male or Female? </p>","190","html-keyboard-response","554","501694","0.0-19.0-0.42","prediction","","","",".",""
"null","<div style=""color:white; font-size:60px;"">+</div>","null","html-keyboard-response","555","502695","0.0-19.0-1.42","fixation","","","","",""
"757.9149999655783","Stimuli/Hangul_M6.bmp","188","image-keyboard-response","556","503454","0.0-19.0-2.42","c2_test",",","","","",","
"359.7000000299886","<p style=""color:white;""> Next Figure: Male or Female? </p>","188","html-keyboard-response","557","503814","0.0-19.0-0.43","prediction","","","",",",""
"null","<div style=""color:white; font-size:60px;"">+</div>","null","html-keyboard-response","558","504815","0.0-19.0-1.43","fixation","","","","",""
"837.9149999236688","Stimuli/Hangul_F4.bmp","190","image-keyboard-response","559","505654","0.0-19.0-2.43","c2_test",".","","","","."
"128.19499999750406","<p style=""color:white;""> Next Figure: Male or Female? </p>","190","html-keyboard-response","560","505783","0.0-19.0-0.44","prediction","","","",".",""
"null","<div style=""color:white; font-size:60px;"">+</div>","null","html-keyboard-response","561","506785","0.0-19.0-1.44","fixation","","","","",""
"677.0699999760836","Stimuli/Hangul_M22.bmp","188","image-keyboard-response","562","507462","0.0-19.0-2.44","c2_test",",","","","",","
"151.24000003561378","<p style=""color:white;""> Next Figure: Male or Female? </p>","188","html-keyboard-response","563","507614","0.0-19.0-0.45","prediction","","","",",",""
"null","<div style=""color:white; font-size:60px;"">+</div>","null","html-keyboard-response","564","508616","0.0-19.0-1.45","fixation","","","","",""
"573.4749999828637","Stimuli/Hangul_F21.bmp","188","image-keyboard-response","565","509190","0.0-19.0-2.45","c2_test",".","","","",","
"71.69000001158565","<p style=""color:white;""> Next Figure: Male or Female? </p>","190","html-keyboard-response","566","509263","0.0-19.0-0.46","prediction","","","",".",""
"null","<div style=""color:white; font-size:60px;"">+</div>","null","html-keyboard-response","567","510264","0.0-19.0-1.46","fixation","","","","",""
"565.610000048764","Stimuli/Hangul_F18.bmp","190","image-keyboard-response","568","510830","0.0-19.0-2.46","c2_test",".","","","","."
"135.40500006638467","<p style=""color:white;""> Next Figure: Male or Female? </p>","190","html-keyboard-response","569","510966","0.0-19.0-0.47","prediction","","","",".",""
"null","<div style=""color:white; font-size:60px;"">+</div>","null","html-keyboard-response","570","511967","0.0-19.0-1.47","fixation","","","","",""
"654.3650000821799","Stimuli/Hangul_F17.bmp","188","image-keyboard-response","571","512622","0.0-19.0-2.47","c2_test",".","","","",","
"151.16000000853091","<p style=""color:white;""> Next Figure: Male or Female? </p>","188","html-keyboard-response","572","512774","0.0-19.0-0.48","prediction","","","",",",""
"null","<div style=""color:white; font-size:60px;"">+</div>","null","html-keyboard-response","573","513776","0.0-19.0-1.48","fixation","","","","",""
"718.044999986887","Stimuli/Hangul_F20.bmp","190","image-keyboard-response","574","514494","0.0-19.0-2.48","c2_test",".","","","","."
"110.88000005111098","<p style=""color:white;""> Next Figure: Male or Female? </p>","190","html-keyboard-response","575","514606","0.0-19.0-0.49","prediction","","","",".",""
"null","<div style=""color:white; font-size:60px;"">+</div>","null","html-keyboard-response","576","515608","0.0-19.0-1.49","fixation","","","","",""
"1325.6950000068173","Stimuli/Hangul_M10.bmp","188","image-keyboard-response","577","516934","0.0-19.0-2.49","c2_test",",","","","",","
"816.010000067763","<p style=""color:white;"">Good job, block 1 complete! Please take a moment to rest.</p> <p style=""color:white;"">When you are ready to continue with block 2 of 4, press the space bar.</p> ","32","html-keyboard-response","578","517751","0.0-20.0","","","","","",""
"422.24999994505197","<p style=""color:white;""> Next Figure: Male or Female? </p>","188","html-keyboard-response","579","520174","0.0-21.0-0.0","prediction","","","",",",""
"null","<div style=""color:white; font-size:60px;"">+</div>","null","html-keyboard-response","580","521176","0.0-21.0-1.0","fixation","","","","",""
"885.9250000678003","Stimuli/Hangul_M35.bmp","190","image-keyboard-response","581","522062","0.0-21.0-2.0","c2_test",",","","","","."
"135.40999998804182","<p style=""color:white;""> Next Figure: Male or Female? </p>","190","html-keyboard-response","582","522198","0.0-21.0-0.1","prediction","","","",".",""
"null","<div style=""color:white; font-size:60px;"">+</div>","null","html-keyboard-response","583","523199","0.0-21.0-1.1","fixation","","","","",""
"926.3100000098348","Stimuli/Hangul_F36.bmp","188","image-keyboard-response","584","524126","0.0-21.0-2.1","c2_test",".","","","",","
"135.53500000853091","<p style=""color:white;""> Next Figure: Male or Female? </p>","188","html-keyboard-response","585","524262","0.0-21.0-0.2","prediction","","","",",",""
"null","<div style=""color:white; font-size:60px;"">+</div>","null","html-keyboard-response","586","525264","0.0-21.0-1.2","fixation","","","","",""
"837.2700000181794","Stimuli/Hangul_M38.bmp","188","image-keyboard-response","587","526102","0.0-21.0-2.2","c2_test",",","","","",","
"134.35499998740852","<p style=""color:white;""> Next Figure: Male or Female? </p>","188","html-keyboard-response","588","526237","0.0-21.0-0.3","prediction","","","",",",""
"null","<div style=""color:white; font-size:60px;"">+</div>","null","html-keyboard-response","589","527239","0.0-21.0-1.3","fixation","","","","",""
"710.9550000168383","Stimuli/Hangul_F43.bmp","188","image-keyboard-response","590","527951","0.0-21.0-2.3","c2_test",".","","","",","
"158.91500003635883","<p style=""color:white;""> Next Figure: Male or Female? </p>","188","html-keyboard-response","591","528110","0.0-21.0-0.4","prediction","","","",",",""
"null","<div style=""color:white; font-size:60px;"">+</div>","null","html-keyboard-response","592","529112","0.0-21.0-1.4","fixation","","","","",""
"573.5149999381974","Stimuli/Hangul_F49.bmp","188","image-keyboard-response","593","529686","0.0-21.0-2.4","c2_test",".","","","",","
"167.44999994989485","<p style=""color:white;""> Next Figure: Male or Female? </p>","188","html-keyboard-response","594","529854","0.0-21.0-0.5","prediction","","","",",",""
"null","<div style=""color:white; font-size:60px;"">+</div>","null","html-keyboard-response","595","530855","0.0-21.0-1.5","fixation","","","","",""
"558.6349999066442","Stimuli/Hangul_M30.bmp","188","image-keyboard-response","596","531414","0.0-21.0-2.5","c2_test",",","","","",","
"183.27499995939434","<p style=""color:white;""> Next Figure: Male or Female? </p>","188","html-keyboard-response","597","531598","0.0-21.0-0.6","prediction","","","",",",""
"null","<div style=""color:white; font-size:60px;"">+</div>","null","html-keyboard-response","598","532600","0.0-21.0-1.6","fixation","","","","",""
"597.1600000048056","Stimuli/Hangul_M36.bmp","188","image-keyboard-response","599","533198","0.0-21.0-2.6","c2_test",",","","","",","
"143.2550000026822","<p style=""color:white;""> Next Figure: Male or Female? </p>","188","html-keyboard-response","600","533342","0.0-21.0-0.7","prediction","","","",",",""
"null","<div style=""color:white; font-size:60px;"">+</div>","null","html-keyboard-response","601","534343","0.0-21.0-1.7","fixation","","","","",""
"550.4650000948459","Stimuli/Hangul_M41.bmp","188","image-keyboard-response","602","534894","0.0-21.0-2.7","c2_test",",","","","",","
"183.34499991033226","<p style=""color:white;""> Next Figure: Male or Female? </p>","188","html-keyboard-response","603","535078","0.0-21.0-0.8","prediction","","","",",",""
"null","<div style=""color:white; font-size:60px;"">+</div>","null","html-keyboard-response","604","536081","0.0-21.0-1.8","fixation","","","","",""
"1115.9200000111014","Stimuli/Hangul_M37.bmp","188","image-keyboard-response","605","537197","0.0-21.0-2.8","c2_test",",","","","",","
"160.42500000912696","<p style=""color:white;""> Next Figure: Male or Female? </p>","188","html-keyboard-response","606","537358","0.0-21.0-0.9","prediction","","","",",",""
"null","<div style=""color:white; font-size:60px;"">+</div>","null","html-keyboard-response","607","538359","0.0-21.0-1.9","fixation","","","","",""
"662.8700000001118","Stimuli/Hangul_F35.bmp","190","image-keyboard-response","608","539022","0.0-21.0-2.9","c2_test",".","","","","."
"166.39500006567687","<p style=""color:white;""> Next Figure: Male or Female? </p>","190","html-keyboard-response","609","539190","0.0-21.0-0.10","prediction","","","",".",""
"null","<div style=""color:white; font-size:60px;"">+</div>","null","html-keyboard-response","610","540192","0.0-21.0-1.10","fixation","","","","",""
"1044.705000007525","Stimuli/Hangul_M49.bmp","188","image-keyboard-response","611","541237","0.0-21.0-2.10","c2_test",",","","","",","
"135.5099999345839","<p style=""color:white;""> Next Figure: Male or Female? </p>","188","html-keyboard-response","612","541374","0.0-21.0-0.11","prediction","","","",",",""
"null","<div style=""color:white; font-size:60px;"">+</div>","null","html-keyboard-response","613","542375","0.0-21.0-1.11","fixation","","","","",""
"686.5750000579283","Stimuli/Hangul_M34.bmp","190","image-keyboard-response","614","543062","0.0-21.0-2.11","c2_test",",","","","","."
"174.25000004004687","<p style=""color:white;""> Next Figure: Male or Female? </p>","190","html-keyboard-response","615","543237","0.0-21.0-0.12","prediction","","","",".",""
"null","<div style=""color:white; font-size:60px;"">+</div>","null","html-keyboard-response","616","544239","0.0-21.0-1.12","fixation","","","","",""
"702.5999999605119","Stimuli/Hangul_M43.bmp","188","image-keyboard-response","617","544942","0.0-21.0-2.12","c2_test",",","","","",","
"183.11500002164394","<p style=""color:white;""> Next Figure: Male or Female? </p>","188","html-keyboard-response","618","545126","0.0-21.0-0.13","prediction","","","",",",""
"null","<div style=""color:white; font-size:60px;"">+</div>","null","html-keyboard-response","619","546128","0.0-21.0-1.13","fixation","","","","",""
"853.4450000151992","Stimuli/Hangul_M47.bmp","188","image-keyboard-response","620","546982","0.0-21.0-2.13","c2_test",",","","","",","
"47.07500000949949","<p style=""color:white;""> Next Figure: Male or Female? </p>","190","html-keyboard-response","621","547030","0.0-21.0-0.14","prediction","","","",".",""
"null","<div style=""color:white; font-size:60px;"">+</div>","null","html-keyboard-response","622","548032","0.0-21.0-1.14","fixation","","","","",""
"1204.6700000064448","Stimuli/Hangul_M26.bmp","188","image-keyboard-response","623","549237","0.0-21.0-2.14","c2_test",",","","","",","
"71.23000000137836","<p style=""color:white;""> Next Figure: Male or Female? </p>","190","html-keyboard-response","624","549309","0.0-21.0-0.15","prediction","","","",".",""
"null","<div style=""color:white; font-size:60px;"">+</div>","null","html-keyboard-response","625","550310","0.0-21.0-1.15","fixation","","","","",""
"678.4749999642372","Stimuli/Hangul_F32.bmp","190","image-keyboard-response","626","550989","0.0-21.0-2.15","c2_test",".","","","","."
"143.74500000849366","<p style=""color:white;""> Next Figure: Male or Female? </p>","190","html-keyboard-response","627","551134","0.0-21.0-0.16","prediction","","","",".",""
"null","<div style=""color:white; font-size:60px;"">+</div>","null","html-keyboard-response","628","552135","0.0-21.0-1.16","fixation","","","","",""
"630.7200000155717","Stimuli/Hangul_F40.bmp","190","image-keyboard-response","629","552766","0.0-21.0-2.16","c2_test",".","","","","."
"150.83499997854233","<p style=""color:white;""> Next Figure: Male or Female? </p>","190","html-keyboard-response","630","552917","0.0-21.0-0.17","prediction","","","",".",""
"null","<div style=""color:white; font-size:60px;"">+</div>","null","html-keyboard-response","631","553919","0.0-21.0-1.17","fixation","","","","",""
"838.3749999338761","Stimuli/Hangul_F45.bmp","190","image-keyboard-response","632","554758","0.0-21.0-2.17","c2_test",".","","","","."
"215.67499998491257","<p style=""color:white;""> Next Figure: Male or Female? </p>","190","html-keyboard-response","633","554974","0.0-21.0-0.18","prediction","","","",".",""
"null","<div style=""color:white; font-size:60px;"">+</div>","null","html-keyboard-response","634","555975","0.0-21.0-1.18","fixation","","","","",""
"590.5100000090897","Stimuli/Hangul_F37.bmp","190","image-keyboard-response","635","556566","0.0-21.0-2.18","c2_test",".","","","","."
"167.17000002972782","<p style=""color:white;""> Next Figure: Male or Female? </p>","190","html-keyboard-response","636","556734","0.0-21.0-0.19","prediction","","","",".",""
"null","<div style=""color:white; font-size:60px;"">+</div>","null","html-keyboard-response","637","557735","0.0-21.0-1.19","fixation","","","","",""
"1086.1649999860674","Stimuli/Hangul_M27.bmp","188","image-keyboard-response","638","558822","0.0-21.0-2.19","c2_test",",","","","",","
"159.52999994624406","<p style=""color:white;""> Next Figure: Male or Female? </p>","190","html-keyboard-response","639","558982","0.0-21.0-0.20","prediction","","","",".",""
"null","<div style=""color:white; font-size:60px;"">+</div>","null","html-keyboard-response","640","559983","0.0-21.0-1.20","fixation","","","","",""
"1054.0000000037253","Stimuli/Hangul_F26.bmp","188","image-keyboard-response","641","561038","0.0-21.0-2.20","c2_test",".","","","",","
"165.94999993685633","<p style=""color:white;""> Next Figure: Male or Female? </p>","188","html-keyboard-response","642","561205","0.0-21.0-0.21","prediction","","","",",",""
"null","<div style=""color:white; font-size:60px;"">+</div>","null","html-keyboard-response","643","562206","0.0-21.0-1.21","fixation","","","","",""
"734.9600000306964","Stimuli/Hangul_F33.bmp","190","image-keyboard-response","644","562942","0.0-21.0-2.21","c2_test",".","","","","."
"143.4950000839308","<p style=""color:white;""> Next Figure: Male or Female? </p>","190","html-keyboard-response","645","563086","0.0-21.0-0.22","prediction","","","",".",""
"null","<div style=""color:white; font-size:60px;"">+</div>","null","html-keyboard-response","646","564087","0.0-21.0-1.22","fixation","","","","",""
"1046.3349999627098","Stimuli/Hangul_M25.bmp","188","image-keyboard-response","647","565134","0.0-21.0-2.22","c2_test",",","","","",","
"79.42500000353903","<p style=""color:white;""> Next Figure: Male or Female? </p>","190","html-keyboard-response","648","565214","0.0-21.0-0.23","prediction","","","",".",""
"null","<div style=""color:white; font-size:60px;"">+</div>","null","html-keyboard-response","649","566215","0.0-21.0-1.23","fixation","","","","",""
"701.4199999393895","Stimuli/Hangul_F25.bmp","188","image-keyboard-response","650","566917","0.0-21.0-2.23","c2_test",".","","","",","
"151.23000007588416","<p style=""color:white;""> Next Figure: Male or Female? </p>","188","html-keyboard-response","651","567069","0.0-21.0-0.24","prediction","","","",",",""
"null","<div style=""color:white; font-size:60px;"">+</div>","null","html-keyboard-response","652","568071","0.0-21.0-1.24","fixation","","","","",""
"749.9799999641255","Stimuli/Hangul_M39.bmp","188","image-keyboard-response","653","568821","0.0-21.0-2.24","c2_test",",","","","",","
"151.6950000077486","<p style=""color:white;""> Next Figure: Male or Female? </p>","188","html-keyboard-response","654","568974","0.0-21.0-0.25","prediction","","","",",",""
"null","<div style=""color:white; font-size:60px;"">+</div>","null","html-keyboard-response","655","569975","0.0-21.0-1.25","fixation","","","","",""
"525.7849999470636","Stimuli/Hangul_M42.bmp","188","image-keyboard-response","656","570502","0.0-21.0-2.25","c2_test",",","","","",","
"71.41500001307577","<p style=""color:white;""> Next Figure: Male or Female? </p>","190","html-keyboard-response","657","570574","0.0-21.0-0.26","prediction","","","",".",""
"null","<div style=""color:white; font-size:60px;"">+</div>","null","html-keyboard-response","658","571575","0.0-21.0-1.26","fixation","","","","",""
