"rt","stimulus","key_press","trial_type","trial_index","time_elapsed","internal_node_id","test_part","correct_response","C1_train","C1","A","C2"
"2887.8050000057556","<p style=""color:white;"">Welcome to the experiment! Press any key to begin.</p>","32","html-keyboard-response","0","2894","0.0-0.0","","","","","",""
"30624.225000006845","<p style=""color:white;"">You will see a series of abstract figures. They are adaptations of signs in the Korean alphabet, but that is not important for this study. </p><p style=""color:white;"">Abstract figures sometimes have a more masculine or feminine shape. Here, each figure has already been assigned a gender as <q>Male</q> or <q>Female</q> by a panel of respondents in a pilot study. The respondents were not given specific instructions on how to do this, but were only told to use their intuition and to take into account the entire configuration of the stimulus. </p><p style=""color:white;"">Your task now is to guess the assigned gender of each figure. Please press the corresponding response keys to indicate your choice: </p><p style=""color:white;""> Male &#8594 <q>,</q> (comma)</p><p style=""color:white;""> Female &#8594 <q>.</q> (period)</p><p style=""color:white;"">Press either response keys to continue.</p>","190","html-keyboard-response","1","33519","0.0-1.0","","","","","",""
"7423.535000008997","<p style=""color:white;"">Your choice is correct if it matches the gender assigned by the majority of respondents in the pilot study.</p> <p style=""color:white;"">For each correct choice you will receive 2 cents. There will be 200 trials divided into 4 blocks of 50 trials. You will be able to take a break after every 50 trials.</p> <p style=""color:white;"">Press the space bar to continue.</p>","32","html-keyboard-response","2","40943","0.0-2.0","","","","","",""
"19144.304999994347","<p style=""color:white;"">Here are some examples.</p> <p style=""color:white;"">For each, guess whether the assigned figure is male-like or female-like and indicate your choice by pressing either response keys.</p> <p style=""color:white;"">Press the space bar to continue.</p>","32","html-keyboard-response","3","60088","0.0-3.0","","","","","",""
"null","<div style=""color:white; font-size:60px;"">+</div>","null","html-keyboard-response","4","63090","0.0-4.0-0.0","fixation","","","","",""
"4383.4499999939","Stimuli/Hangul_E2.bmp","188","image-keyboard-response","5","67475","0.0-4.0-1.0","c1_train",".",",","","",""
"null","<div style=""color:white; font-size:60px;"">+</div>","null","html-keyboard-response","6","68476","0.0-4.0-0.1","fixation","","","","",""
"2803.60000001383","Stimuli/Hangul_E1.bmp","190","image-keyboard-response","7","71281","0.0-4.0-1.1","c1_train",",",".","","",""
"null","<div style=""color:white; font-size:60px;"">+</div>","null","html-keyboard-response","8","72282","0.0-4.0-0.2","fixation","","","","",""
"2374.180000013439","Stimuli/Hangul_E0.bmp","188","image-keyboard-response","9","74657","0.0-4.0-1.2","c1_train",",",",","","",""
"2423.2800000172574","<p style=""color:white;"">Let us begin! Press the space bar when you are ready to start block 1 of 4.</p> ","32","html-keyboard-response","10","77081","0.0-5.0","","","","","",""
"null","<div style=""color:white; font-size:60px;"">+</div>","null","html-keyboard-response","11","80083","0.0-6.0-0.0","fixation","","","","",""
"2471.6850000259","Stimuli/Hangul_M17.bmp","188","image-keyboard-response","12","82556","0.0-6.0-1.0","test",",","",",","",""
"null","<div style=""color:white; font-size:60px;"">+</div>","null","html-keyboard-response","13","83556","0.0-6.0-0.1","fixation","","","","",""
"2908.3300000056624","Stimuli/Hangul_M23.bmp","190","image-keyboard-response","14","86465","0.0-6.0-1.1","test",",","",".","",""
"null","<div style=""color:white; font-size:60px;"">+</div>","null","html-keyboard-response","15","87466","0.0-6.0-0.2","fixation","","","","",""
"2150.774999987334","Stimuli/Hangul_M2.bmp","188","image-keyboard-response","16","89617","0.0-6.0-1.2","test",",","",",","",""
"null","<div style=""color:white; font-size:60px;"">+</div>","null","html-keyboard-response","17","90618","0.0-6.0-0.3","fixation","","","","",""
"4016.9049999967683","Stimuli/Hangul_F22.bmp","190","image-keyboard-response","18","94636","0.0-6.0-1.3","test",".","",".","",""
"null","<div style=""color:white; font-size:60px;"">+</div>","null","html-keyboard-response","19","95638","0.0-6.0-0.4","fixation","","","","",""
"3555.6199999991804","Stimuli/Hangul_F14.bmp","190","image-keyboard-response","20","99194","0.0-6.0-1.4","test",".","",".","",""
"null","<div style=""color:white; font-size:60px;"">+</div>","null","html-keyboard-response","21","100195","0.0-6.0-0.5","fixation","","","","",""
"2526.624999998603","Stimuli/Hangul_M21.bmp","188","image-keyboard-response","22","102722","0.0-6.0-1.5","test",",","",",","",""
"null","<div style=""color:white; font-size:60px;"">+</div>","null","html-keyboard-response","23","103725","0.0-6.0-0.6","fixation","","","","",""
"2047.4599999724887","Stimuli/Hangul_M20.bmp","188","image-keyboard-response","24","105773","0.0-6.0-1.6","test",",","",",","",""
"null","<div style=""color:white; font-size:60px;"">+</div>","null","html-keyboard-response","25","106774","0.0-6.0-0.7","fixation","","","","",""
"1811.0499999893364","Stimuli/Hangul_F4.bmp","190","image-keyboard-response","26","108586","0.0-6.0-1.7","test",".","",".","",""
"null","<div style=""color:white; font-size:60px;"">+</div>","null","html-keyboard-response","27","109588","0.0-6.0-0.8","fixation","","","","",""
"2582.250000006752","Stimuli/Hangul_F20.bmp","188","image-keyboard-response","28","112171","0.0-6.0-1.8","test",".","",",","",""
"null","<div style=""color:white; font-size:60px;"">+</div>","null","html-keyboard-response","29","113172","0.0-6.0-0.9","fixation","","","","",""
"4472.789999999804","Stimuli/Hangul_M3.bmp","188","image-keyboard-response","30","117646","0.0-6.0-1.9","test",",","",",","",""
"null","<div style=""color:white; font-size:60px;"">+</div>","null","html-keyboard-response","31","118647","0.0-6.0-0.10","fixation","","","","",""
"2114.999999990687","Stimuli/Hangul_F23.bmp","190","image-keyboard-response","32","120763","0.0-6.0-1.10","test",".","",".","",""
"null","<div style=""color:white; font-size:60px;"">+</div>","null","html-keyboard-response","33","121764","0.0-6.0-0.11","fixation","","","","",""
"3326.600000000326","Stimuli/Hangul_M0.bmp","188","image-keyboard-response","34","125091","0.0-6.0-1.11","test",",","",",","",""
"null","<div style=""color:white; font-size:60px;"">+</div>","null","html-keyboard-response","35","126092","0.0-6.0-0.12","fixation","","","","",""
"2297.080000018468","Stimuli/Hangul_F12.bmp","190","image-keyboard-response","36","128390","0.0-6.0-1.12","test",".","",".","",""
"null","<div style=""color:white; font-size:60px;"">+</div>","null","html-keyboard-response","37","129391","0.0-6.0-0.13","fixation","","","","",""
"3067.6300000050105","Stimuli/Hangul_M4.bmp","190","image-keyboard-response","38","132460","0.0-6.0-1.13","test",",","",".","",""
"null","<div style=""color:white; font-size:60px;"">+</div>","null","html-keyboard-response","39","133460","0.0-6.0-0.14","fixation","","","","",""
"2942.65500002075","Stimuli/Hangul_M19.bmp","188","image-keyboard-response","40","136404","0.0-6.0-1.14","test",",","",",","",""
"null","<div style=""color:white; font-size:60px;"">+</div>","null","html-keyboard-response","41","137406","0.0-6.0-0.15","fixation","","","","",""
"2191.6700000001583","Stimuli/Hangul_M1.bmp","188","image-keyboard-response","42","139599","0.0-6.0-1.15","test",",","",",","",""
"null","<div style=""color:white; font-size:60px;"">+</div>","null","html-keyboard-response","43","140600","0.0-6.0-0.16","fixation","","","","",""
"4356.084999977611","Stimuli/Hangul_M5.bmp","188","image-keyboard-response","44","144956","0.0-6.0-1.16","test",",","",",","",""
"null","<div style=""color:white; font-size:60px;"">+</div>","null","html-keyboard-response","45","145959","0.0-6.0-0.17","fixation","","","","",""
"1805.080000020098","Stimuli/Hangul_F1.bmp","190","image-keyboard-response","46","147765","0.0-6.0-1.17","test",".","",".","",""
"null","<div style=""color:white; font-size:60px;"">+</div>","null","html-keyboard-response","47","148765","0.0-6.0-0.18","fixation","","","","",""
"4121.364999999059","Stimuli/Hangul_F3.bmp","188","image-keyboard-response","48","152887","0.0-6.0-1.18","test",".","",",","",""
"null","<div style=""color:white; font-size:60px;"">+</div>","null","html-keyboard-response","49","153888","0.0-6.0-0.19","fixation","","","","",""
"2484.3150000087917","Stimuli/Hangul_F15.bmp","188","image-keyboard-response","50","156373","0.0-6.0-1.19","test",".","",",","",""
"null","<div style=""color:white; font-size:60px;"">+</div>","null","html-keyboard-response","51","157375","0.0-6.0-0.20","fixation","","","","",""
"3837.8950000042096","Stimuli/Hangul_F7.bmp","190","image-keyboard-response","52","161213","0.0-6.0-1.20","test",".","",".","",""
"null","<div style=""color:white; font-size:60px;"">+</div>","null","html-keyboard-response","53","162215","0.0-6.0-0.21","fixation","","","","",""
"2672.359999996843","Stimuli/Hangul_M13.bmp","188","image-keyboard-response","54","164888","0.0-6.0-1.21","test",",","",",","",""
"null","<div style=""color:white; font-size:60px;"">+</div>","null","html-keyboard-response","55","165889","0.0-6.0-0.22","fixation","","","","",""
"2643.499999976484","Stimuli/Hangul_M18.bmp","188","image-keyboard-response","56","168533","0.0-6.0-1.22","test",",","",",","",""
"null","<div style=""color:white; font-size:60px;"">+</div>","null","html-keyboard-response","57","169534","0.0-6.0-0.23","fixation","","","","",""
"2950.574999995297","Stimuli/Hangul_F21.bmp","190","image-keyboard-response","58","172486","0.0-6.0-1.23","test",".","",".","",""
"null","<div style=""color:white; font-size:60px;"">+</div>","null","html-keyboard-response","59","173487","0.0-6.0-0.24","fixation","","","","",""
"3448.159999999916","Stimuli/Hangul_M14.bmp","188","image-keyboard-response","60","176936","0.0-6.0-1.24","test",",","",",","",""
"null","<div style=""color:white; font-size:60px;"">+</div>","null","html-keyboard-response","61","177937","0.0-6.0-0.25","fixation","","","","",""
"2955.979999998817","Stimuli/Hangul_F24.bmp","190","image-keyboard-response","62","180894","0.0-6.0-1.25","test",".","",".","",""
"null","<div style=""color:white; font-size:60px;"">+</div>","null","html-keyboard-response","63","181896","0.0-6.0-0.26","fixation","","","","",""
"3469.74999998929","Stimuli/Hangul_M22.bmp","190","image-keyboard-response","64","185366","0.0-6.0-1.26","test",",","",".","",""
"null","<div style=""color:white; font-size:60px;"">+</div>","null","html-keyboard-response","65","186368","0.0-6.0-0.27","fixation","","","","",""
"2960.545000009006","Stimuli/Hangul_F9.bmp","188","image-keyboard-response","66","189329","0.0-6.0-1.27","test",".","",",","",""
"null","<div style=""color:white; font-size:60px;"">+</div>","null","html-keyboard-response","67","190331","0.0-6.0-0.28","fixation","","","","",""
"3987.7599999890663","Stimuli/Hangul_F0.bmp","188","image-keyboard-response","68","194319","0.0-6.0-1.28","test",".","",",","",""
"null","<div style=""color:white; font-size:60px;"">+</div>","null","html-keyboard-response","69","195320","0.0-6.0-0.29","fixation","","","","",""
"3798.6350000137463","Stimuli/Hangul_M24.bmp","188","image-keyboard-response","70","199119","0.0-6.0-1.29","test",",","",",","",""
"null","<div style=""color:white; font-size:60px;"">+</div>","null","html-keyboard-response","71","200120","0.0-6.0-0.30","fixation","","","","",""
"2368.4249999932945","Stimuli/Hangul_F6.bmp","188","image-keyboard-response","72","202490","0.0-6.0-1.30","test",".","",",","",""
"null","<div style=""color:white; font-size:60px;"">+</div>","null","html-keyboard-response","73","203491","0.0-6.0-0.31","fixation","","","","",""
"3115.720000001602","Stimuli/Hangul_M9.bmp","188","image-keyboard-response","74","206608","0.0-6.0-1.31","test",",","",",","",""
"null","<div style=""color:white; font-size:60px;"">+</div>","null","html-keyboard-response","75","207609","0.0-6.0-0.32","fixation","","","","",""
"3917.8850000025705","Stimuli/Hangul_M11.bmp","190","image-keyboard-response","76","211528","0.0-6.0-1.32","test",",","",".","",""
"null","<div style=""color:white; font-size:60px;"">+</div>","null","html-keyboard-response","77","212530","0.0-6.0-0.33","fixation","","","","",""
"3223.5600000130944","Stimuli/Hangul_M8.bmp","188","image-keyboard-response","78","215754","0.0-6.0-1.33","test",",","",",","",""
"null","<div style=""color:white; font-size:60px;"">+</div>","null","html-keyboard-response","79","216757","0.0-6.0-0.34","fixation","","","","",""
"2530.364999984158","Stimuli/Hangul_F2.bmp","188","image-keyboard-response","80","219288","0.0-6.0-1.34","test",".","",",","",""
"null","<div style=""color:white; font-size:60px;"">+</div>","null","html-keyboard-response","81","220289","0.0-6.0-0.35","fixation","","","","",""
"2510.4250000149477","Stimuli/Hangul_F17.bmp","188","image-keyboard-response","82","222800","0.0-6.0-1.35","test",".","",",","",""
"null","<div style=""color:white; font-size:60px;"">+</div>","null","html-keyboard-response","83","223802","0.0-6.0-0.36","fixation","","","","",""
"2776.129999983823","Stimuli/Hangul_F16.bmp","188","image-keyboard-response","84","226579","0.0-6.0-1.36","test",".","",",","",""
"null","<div style=""color:white; font-size:60px;"">+</div>","null","html-keyboard-response","85","227579","0.0-6.0-0.37","fixation","","","","",""
"2676.4449999900535","Stimuli/Hangul_F18.bmp","190","image-keyboard-response","86","230257","0.0-6.0-1.37","test",".","",".","",""
"null","<div style=""color:white; font-size:60px;"">+</div>","null","html-keyboard-response","87","231258","0.0-6.0-0.38","fixation","","","","",""
"1654.5899999910034","Stimuli/Hangul_F8.bmp","190","image-keyboard-response","88","232913","0.0-6.0-1.38","test",".","",".","",""
"null","<div style=""color:white; font-size:60px;"">+</div>","null","html-keyboard-response","89","233915","0.0-6.0-0.39","fixation","","","","",""
"3656.2250000133645","Stimuli/Hangul_F11.bmp","188","image-keyboard-response","90","237572","0.0-6.0-1.39","test",".","",",","",""
"null","<div style=""color:white; font-size:60px;"">+</div>","null","html-keyboard-response","91","238573","0.0-6.0-0.40","fixation","","","","",""
"2747.6450000249315","Stimuli/Hangul_M10.bmp","188","image-keyboard-response","92","241321","0.0-6.0-1.40","test",",","",",","",""
"null","<div style=""color:white; font-size:60px;"">+</div>","null","html-keyboard-response","93","242323","0.0-6.0-0.41","fixation","","","","",""
"2293.98499999661","Stimuli/Hangul_F13.bmp","188","image-keyboard-response","94","244617","0.0-6.0-1.41","test",".","",",","",""
"null","<div style=""color:white; font-size:60px;"">+</div>","null","html-keyboard-response","95","245618","0.0-6.0-0.42","fixation","","","","",""
"2600.880000012694","Stimuli/Hangul_F5.bmp","188","image-keyboard-response","96","248220","0.0-6.0-1.42","test",".","",",","",""
"null","<div style=""color:white; font-size:60px;"">+</div>","null","html-keyboard-response","97","249221","0.0-6.0-0.43","fixation","","","","",""
"2404.4249999860767","Stimuli/Hangul_F10.bmp","190","image-keyboard-response","98","251626","0.0-6.0-1.43","test",".","",".","",""
"null","<div style=""color:white; font-size:60px;"">+</div>","null","html-keyboard-response","99","252627","0.0-6.0-0.44","fixation","","","","",""
"2150.724999984959","Stimuli/Hangul_M6.bmp","188","image-keyboard-response","100","254778","0.0-6.0-1.44","test",",","",",","",""
"null","<div style=""color:white; font-size:60px;"">+</div>","null","html-keyboard-response","101","255779","0.0-6.0-0.45","fixation","","","","",""
"2792.5600000016857","Stimuli/Hangul_M16.bmp","188","image-keyboard-response","102","258572","0.0-6.0-1.45","test",",","",",","",""
"null","<div style=""color:white; font-size:60px;"">+</div>","null","html-keyboard-response","103","259574","0.0-6.0-0.46","fixation","","","","",""
"3339.589999988675","Stimuli/Hangul_M15.bmp","188","image-keyboard-response","104","262915","0.0-6.0-1.46","test",",","",",","",""
"null","<div style=""color:white; font-size:60px;"">+</div>","null","html-keyboard-response","105","263916","0.0-6.0-0.47","fixation","","","","",""
"2613.8299999875017","Stimuli/Hangul_M12.bmp","188","image-keyboard-response","106","266531","0.0-6.0-1.47","test",",","",",","",""
"null","<div style=""color:white; font-size:60px;"">+</div>","null","html-keyboard-response","107","267532","0.0-6.0-0.48","fixation","","","","",""
"3520.829999994021","Stimuli/Hangul_F19.bmp","188","image-keyboard-response","108","271053","0.0-6.0-1.48","test",".","",",","",""
"null","<div style=""color:white; font-size:60px;"">+</div>","null","html-keyboard-response","109","272055","0.0-6.0-0.49","fixation","","","","",""
"2747.3599999793805","Stimuli/Hangul_M7.bmp","188","image-keyboard-response","110","274804","0.0-6.0-1.49","test",",","",",","",""
"95748.43500001589","<p style=""color:white;"">Good job, block 1 complete! Please take a moment to rest.</p> <p style=""color:white;"">When you are ready to continue with block 2 of 4, press the space bar.</p> ","32","html-keyboard-response","111","370553","0.0-7.0","","","","","",""
"null","<div style=""color:white; font-size:60px;"">+</div>","null","html-keyboard-response","112","373556","0.0-8.0-0.0","fixation","","","","",""
"2262.8550000081304","Stimuli/Hangul_M34.bmp","188","image-keyboard-response","113","375819","0.0-8.0-1.0","test",",","",",","",""
"null","<div style=""color:white; font-size:60px;"">+</div>","null","html-keyboard-response","114","376820","0.0-8.0-0.1","fixation","","","","",""
"2556.335000001127","Stimuli/Hangul_M25.bmp","188","image-keyboard-response","115","379377","0.0-8.0-1.1","test",",","",",","",""
"null","<div style=""color:white; font-size:60px;"">+</div>","null","html-keyboard-response","116","380378","0.0-8.0-0.2","fixation","","","","",""
"2182.2449999745004","Stimuli/Hangul_F34.bmp","190","image-keyboard-response","117","382561","0.0-8.0-1.2","test",".","",".","",""
"null","<div style=""color:white; font-size:60px;"">+</div>","null","html-keyboard-response","118","383562","0.0-8.0-0.3","fixation","","","","",""
"2600.559999991674","Stimuli/Hangul_M45.bmp","188","image-keyboard-response","119","386164","0.0-8.0-1.3","test",",","",",","",""
"null","<div style=""color:white; font-size:60px;"">+</div>","null","html-keyboard-response","120","387165","0.0-8.0-0.4","fixation","","","","",""
"2827.8599999903236","Stimuli/Hangul_F26.bmp","188","image-keyboard-response","121","389993","0.0-8.0-1.4","test",".","",",","",""
"null","<div style=""color:white; font-size:60px;"">+</div>","null","html-keyboard-response","122","390995","0.0-8.0-0.5","fixation","","","","",""
"3182.165000005625","Stimuli/Hangul_M28.bmp","188","image-keyboard-response","123","394178","0.0-8.0-1.5","test",",","",",","",""
"null","<div style=""color:white; font-size:60px;"">+</div>","null","html-keyboard-response","124","395179","0.0-8.0-0.6","fixation","","","","",""
"2696.7600000207312","Stimuli/Hangul_M48.bmp","188","image-keyboard-response","125","397876","0.0-8.0-1.6","test",",","",",","",""
"null","<div style=""color:white; font-size:60px;"">+</div>","null","html-keyboard-response","126","398877","0.0-8.0-0.7","fixation","","","","",""
"3668.084999982966","Stimuli/Hangul_M49.bmp","188","image-keyboard-response","127","402546","0.0-8.0-1.7","test",",","",",","",""
"null","<div style=""color:white; font-size:60px;"">+</div>","null","html-keyboard-response","128","403547","0.0-8.0-0.8","fixation","","","","",""
"2550.2900000137743","Stimuli/Hangul_M46.bmp","188","image-keyboard-response","129","406098","0.0-8.0-1.8","test",",","",",","",""
"null","<div style=""color:white; font-size:60px;"">+</div>","null","html-keyboard-response","130","407099","0.0-8.0-0.9","fixation","","","","",""
"4305.374999996275","Stimuli/Hangul_M36.bmp","190","image-keyboard-response","131","411405","0.0-8.0-1.9","test",",","",".","",""
"null","<div style=""color:white; font-size:60px;"">+</div>","null","html-keyboard-response","132","412406","0.0-8.0-0.10","fixation","","","","",""
"2363.4449999954086","Stimuli/Hangul_F49.bmp","188","image-keyboard-response","133","414771","0.0-8.0-1.10","test",".","",",","",""
"null","<div style=""color:white; font-size:60px;"">+</div>","null","html-keyboard-response","134","415772","0.0-8.0-0.11","fixation","","","","",""
"2502.875000005588","Stimuli/Hangul_F41.bmp","188","image-keyboard-response","135","418275","0.0-8.0-1.11","test",".","",",","",""
"null","<div style=""color:white; font-size:60px;"">+</div>","null","html-keyboard-response","136","419277","0.0-8.0-0.12","fixation","","","","",""
"1757.3350000020582","Stimuli/Hangul_F30.bmp","190","image-keyboard-response","137","421035","0.0-8.0-1.12","test",".","",".","",""
"null","<div style=""color:white; font-size:60px;"">+</div>","null","html-keyboard-response","138","422037","0.0-8.0-0.13","fixation","","","","",""
"2600.7300000055693","Stimuli/Hangul_M30.bmp","188","image-keyboard-response","139","424638","0.0-8.0-1.13","test",",","",",","",""
"null","<div style=""color:white; font-size:60px;"">+</div>","null","html-keyboard-response","140","425639","0.0-8.0-0.14","fixation","","","","",""
"1947.4000000045635","Stimuli/Hangul_F35.bmp","190","image-keyboard-response","141","427587","0.0-8.0-1.14","test",".","",".","",""
"null","<div style=""color:white; font-size:60px;"">+</div>","null","html-keyboard-response","142","428588","0.0-8.0-0.15","fixation","","","","",""
"2406.170000002021","Stimuli/Hangul_F45.bmp","188","image-keyboard-response","143","430995","0.0-8.0-1.15","test",".","",",","",""
"null","<div style=""color:white; font-size:60px;"">+</div>","null","html-keyboard-response","144","431997","0.0-8.0-0.16","fixation","","","","",""
"3304.7499999811407","Stimuli/Hangul_M40.bmp","188","image-keyboard-response","145","435302","0.0-8.0-1.16","test",",","",",","",""
"null","<div style=""color:white; font-size:60px;"">+</div>","null","html-keyboard-response","146","436303","0.0-8.0-0.17","fixation","","","","",""
"2963.8099999865517","Stimuli/Hangul_M29.bmp","188","image-keyboard-response","147","439268","0.0-8.0-1.17","test",",","",",","",""
"null","<div style=""color:white; font-size:60px;"">+</div>","null","html-keyboard-response","148","440269","0.0-8.0-0.18","fixation","","","","",""
"1870.3300000051968","Stimuli/Hangul_F27.bmp","188","image-keyboard-response","149","442140","0.0-8.0-1.18","test",".","",",","",""
"null","<div style=""color:white; font-size:60px;"">+</div>","null","html-keyboard-response","150","443141","0.0-8.0-0.19","fixation","","","","",""
"1654.7000000136904","Stimuli/Hangul_F42.bmp","190","image-keyboard-response","151","444796","0.0-8.0-1.19","test",".","",".","",""
"null","<div style=""color:white; font-size:60px;"">+</div>","null","html-keyboard-response","152","445797","0.0-8.0-0.20","fixation","","","","",""
"2320.9400000050664","Stimuli/Hangul_F38.bmp","188","image-keyboard-response","153","448119","0.0-8.0-1.20","test",".","",",","",""
"null","<div style=""color:white; font-size:60px;"">+</div>","null","html-keyboard-response","154","449120","0.0-8.0-0.21","fixation","","","","",""
"2947.5150000071153","Stimuli/Hangul_F48.bmp","188","image-keyboard-response","155","452068","0.0-8.0-1.21","test",".","",",","",""
"null","<div style=""color:white; font-size:60px;"">+</div>","null","html-keyboard-response","156","453070","0.0-8.0-0.22","fixation","","","","",""
"2437.8499999875203","Stimuli/Hangul_M47.bmp","188","image-keyboard-response","157","455509","0.0-8.0-1.22","test",",","",",","",""
"null","<div style=""color:white; font-size:60px;"">+</div>","null","html-keyboard-response","158","456510","0.0-8.0-0.23","fixation","","","","",""
"2360.530000005383","Stimuli/Hangul_F44.bmp","190","image-keyboard-response","159","458871","0.0-8.0-1.23","test",".","",".","",""
"null","<div style=""color:white; font-size:60px;"">+</div>","null","html-keyboard-response","160","459874","0.0-8.0-0.24","fixation","","","","",""
"2602.7650000178255","Stimuli/Hangul_M32.bmp","190","image-keyboard-response","161","462477","0.0-8.0-1.24","test",",","",".","",""
"null","<div style=""color:white; font-size:60px;"">+</div>","null","html-keyboard-response","162","463478","0.0-8.0-0.25","fixation","","","","",""
"2462.1750000223983","Stimuli/Hangul_M27.bmp","188","image-keyboard-response","163","465941","0.0-8.0-1.25","test",",","",",","",""
"null","<div style=""color:white; font-size:60px;"">+</div>","null","html-keyboard-response","164","466943","0.0-8.0-0.26","fixation","","","","",""
"2552.625000011176","Stimuli/Hangul_F37.bmp","190","image-keyboard-response","165","469496","0.0-8.0-1.26","test",".","",".","",""
"null","<div style=""color:white; font-size:60px;"">+</div>","null","html-keyboard-response","166","470498","0.0-8.0-0.27","fixation","","","","",""
"2322.3700000089593","Stimuli/Hangul_F28.bmp","188","image-keyboard-response","167","472822","0.0-8.0-1.27","test",".","",",","",""
"null","<div style=""color:white; font-size:60px;"">+</div>","null","html-keyboard-response","168","473823","0.0-8.0-0.28","fixation","","","","",""
"2822.180000017397","Stimuli/Hangul_F43.bmp","188","image-keyboard-response","169","476646","0.0-8.0-1.28","test",".","",",","",""
"null","<div style=""color:white; font-size:60px;"">+</div>","null","html-keyboard-response","170","477648","0.0-8.0-0.29","fixation","","","","",""
"2391.750000009779","Stimuli/Hangul_M44.bmp","188","image-keyboard-response","171","480040","0.0-8.0-1.29","test",",","",",","",""
"null","<div style=""color:white; font-size:60px;"">+</div>","null","html-keyboard-response","172","481042","0.0-8.0-0.30","fixation","","","","",""
"2139.3049999896903","Stimuli/Hangul_M33.bmp","188","image-keyboard-response","173","483182","0.0-8.0-1.30","test",",","",",","",""
"null","<div style=""color:white; font-size:60px;"">+</div>","null","html-keyboard-response","174","484183","0.0-8.0-0.31","fixation","","","","",""
"1950.8400000049733","Stimuli/Hangul_M26.bmp","188","image-keyboard-response","175","486134","0.0-8.0-1.31","test",",","",",","",""
"null","<div style=""color:white; font-size:60px;"">+</div>","null","html-keyboard-response","176","487136","0.0-8.0-0.32","fixation","","","","",""
"1949.4249999988824","Stimuli/Hangul_F39.bmp","190","image-keyboard-response","177","489086","0.0-8.0-1.32","test",".","",".","",""
"null","<div style=""color:white; font-size:60px;"">+</div>","null","html-keyboard-response","178","490087","0.0-8.0-0.33","fixation","","","","",""
"3233.394999988377","Stimuli/Hangul_M39.bmp","188","image-keyboard-response","179","493321","0.0-8.0-1.33","test",",","",",","",""
"null","<div style=""color:white; font-size:60px;"">+</div>","null","html-keyboard-response","180","494322","0.0-8.0-0.34","fixation","","","","",""
"2923.4449999930803","Stimuli/Hangul_M38.bmp","188","image-keyboard-response","181","497246","0.0-8.0-1.34","test",",","",",","",""
"null","<div style=""color:white; font-size:60px;"">+</div>","null","html-keyboard-response","182","498248","0.0-8.0-0.35","fixation","","","","",""
"2118.095000012545","Stimuli/Hangul_F31.bmp","190","image-keyboard-response","183","500367","0.0-8.0-1.35","test",".","",".","",""
"null","<div style=""color:white; font-size:60px;"">+</div>","null","html-keyboard-response","184","501367","0.0-8.0-0.36","fixation","","","","",""
"1790.580000000773","Stimuli/Hangul_M31.bmp","188","image-keyboard-response","185","503159","0.0-8.0-1.36","test",",","",",","",""
"null","<div style=""color:white; font-size:60px;"">+</div>","null","html-keyboard-response","186","504159","0.0-8.0-0.37","fixation","","","","",""
"2377.475000015693","Stimuli/Hangul_M37.bmp","188","image-keyboard-response","187","506537","0.0-8.0-1.37","test",",","",",","",""
"null","<div style=""color:white; font-size:60px;"">+</div>","null","html-keyboard-response","188","507538","0.0-8.0-0.38","fixation","","","","",""
"1836.1950000107754","Stimuli/Hangul_F32.bmp","190","image-keyboard-response","189","509375","0.0-8.0-1.38","test",".","",".","",""
"null","<div style=""color:white; font-size:60px;"">+</div>","null","html-keyboard-response","190","510376","0.0-8.0-0.39","fixation","","","","",""
"2462.375000002794","Stimuli/Hangul_F46.bmp","188","image-keyboard-response","191","512839","0.0-8.0-1.39","test",".","",",","",""
"null","<div style=""color:white; font-size:60px;"">+</div>","null","html-keyboard-response","192","513841","0.0-8.0-0.40","fixation","","","","",""
"2485.6499999877997","Stimuli/Hangul_M42.bmp","188","image-keyboard-response","193","516328","0.0-8.0-1.40","test",",","",",","",""
"null","<div style=""color:white; font-size:60px;"">+</div>","null","html-keyboard-response","194","517329","0.0-8.0-0.41","fixation","","","","",""
"2168.53500000434","Stimuli/Hangul_F33.bmp","190","image-keyboard-response","195","519498","0.0-8.0-1.41","test",".","",".","",""
"null","<div style=""color:white; font-size:60px;"">+</div>","null","html-keyboard-response","196","520499","0.0-8.0-0.42","fixation","","","","",""
"2059.500000003027","Stimuli/Hangul_F36.bmp","188","image-keyboard-response","197","522560","0.0-8.0-1.42","test",".","",",","",""
"null","<div style=""color:white; font-size:60px;"">+</div>","null","html-keyboard-response","198","523561","0.0-8.0-0.43","fixation","","","","",""
"2566.045000014128","Stimuli/Hangul_M41.bmp","188","image-keyboard-response","199","526128","0.0-8.0-1.43","test",",","",",","",""
"null","<div style=""color:white; font-size:60px;"">+</div>","null","html-keyboard-response","200","527129","0.0-8.0-0.44","fixation","","","","",""
"2496.1849999963306","Stimuli/Hangul_F47.bmp","188","image-keyboard-response","201","529627","0.0-8.0-1.44","test",".","",",","",""
"null","<div style=""color:white; font-size:60px;"">+</div>","null","html-keyboard-response","202","530628","0.0-8.0-0.45","fixation","","","","",""
"3307.7199999825098","Stimuli/Hangul_M35.bmp","188","image-keyboard-response","203","533936","0.0-8.0-1.45","test",",","",",","",""
"null","<div style=""color:white; font-size:60px;"">+</div>","null","html-keyboard-response","204","534938","0.0-8.0-0.46","fixation","","","","",""
"3454.2099999962375","Stimuli/Hangul_F40.bmp","190","image-keyboard-response","205","538393","0.0-8.0-1.46","test",".","",".","",""
"null","<div style=""color:white; font-size:60px;"">+</div>","null","html-keyboard-response","206","539395","0.0-8.0-0.47","fixation","","","","",""
"2103.4299999882933","Stimuli/Hangul_F29.bmp","190","image-keyboard-response","207","541499","0.0-8.0-1.47","test",".","",".","",""
"null","<div style=""color:white; font-size:60px;"">+</div>","null","html-keyboard-response","208","542500","0.0-8.0-0.48","fixation","","","","",""
"2491.9149999914225","Stimuli/Hangul_F25.bmp","190","image-keyboard-response","209","544993","0.0-8.0-1.48","test",".","",".","",""
"null","<div style=""color:white; font-size:60px;"">+</div>","null","html-keyboard-response","210","545995","0.0-8.0-0.49","fixation","","","","",""
"2245.630000019446","Stimuli/Hangul_M43.bmp","188","image-keyboard-response","211","548241","0.0-8.0-1.49","test",",","",",","",""
"23336.58000000287","<p style=""color:white;"">Half way there! Please take a moment to rest.</p> <p style=""color:white;"">When you are ready to continue with block 3 of 4, press the space bar.</p> ","32","html-keyboard-response","212","571579","0.0-9.0","","","","","",""
"null","<div style=""color:white; font-size:60px;"">+</div>","null","html-keyboard-response","213","574581","0.0-10.0-0.0","fixation","","","","",""
"3229.1699999768753","Stimuli/Hangul_F63.bmp","188","image-keyboard-response","214","577811","0.0-10.0-1.0","test",".","",",","",""
"null","<div style=""color:white; font-size:60px;"">+</div>","null","html-keyboard-response","215","578813","0.0-10.0-0.1","fixation","","","","",""
"1839.5550000132062","Stimuli/Hangul_M73.bmp","188","image-keyboard-response","216","580653","0.0-10.0-1.1","test",",","",",","",""
"null","<div style=""color:white; font-size:60px;"">+</div>","null","html-keyboard-response","217","581655","0.0-10.0-0.2","fixation","","","","",""
"3860.1400000043213","Stimuli/Hangul_M53.bmp","190","image-keyboard-response","218","585515","0.0-10.0-1.2","test",",","",".","",""
"null","<div style=""color:white; font-size:60px;"">+</div>","null","html-keyboard-response","219","586517","0.0-10.0-0.3","fixation","","","","",""
"1613.7800000142306","Stimuli/Hangul_M58.bmp","188","image-keyboard-response","220","588131","0.0-10.0-1.3","test",",","",",","",""
"null","<div style=""color:white; font-size:60px;"">+</div>","null","html-keyboard-response","221","589132","0.0-10.0-0.4","fixation","","","","",""
"2353.739999991376","Stimuli/Hangul_M68.bmp","188","image-keyboard-response","222","591486","0.0-10.0-1.4","test",",","",",","",""
"null","<div style=""color:white; font-size:60px;"">+</div>","null","html-keyboard-response","223","592487","0.0-10.0-0.5","fixation","","","","",""
"2651.8449999857694","Stimuli/Hangul_M54.bmp","188","image-keyboard-response","224","595140","0.0-10.0-1.5","test",",","",",","",""
"null","<div style=""color:white; font-size:60px;"">+</div>","null","html-keyboard-response","225","596140","0.0-10.0-0.6","fixation","","","","",""
"1782.3700000008103","Stimuli/Hangul_F71.bmp","190","image-keyboard-response","226","597924","0.0-10.0-1.6","test",".","",".","",""
"null","<div style=""color:white; font-size:60px;"">+</div>","null","html-keyboard-response","227","598925","0.0-10.0-0.7","fixation","","","","",""
"2872.544999991078","Stimuli/Hangul_M59.bmp","188","image-keyboard-response","228","601799","0.0-10.0-1.7","test",",","",",","",""
"null","<div style=""color:white; font-size:60px;"">+</div>","null","html-keyboard-response","229","602800","0.0-10.0-0.8","fixation","","","","",""
"2419.579999987036","Stimuli/Hangul_M69.bmp","188","image-keyboard-response","230","605220","0.0-10.0-1.8","test",",","",",","",""
"null","<div style=""color:white; font-size:60px;"">+</div>","null","html-keyboard-response","231","606222","0.0-10.0-0.9","fixation","","","","",""
"2029.7150000114925","Stimuli/Hangul_M63.bmp","188","image-keyboard-response","232","608253","0.0-10.0-1.9","test",",","",",","",""
"null","<div style=""color:white; font-size:60px;"">+</div>","null","html-keyboard-response","233","609254","0.0-10.0-0.10","fixation","","","","",""
"3457.1100000175647","Stimuli/Hangul_M55.bmp","190","image-keyboard-response","234","612712","0.0-10.0-1.10","test",",","",".","",""
"null","<div style=""color:white; font-size:60px;"">+</div>","null","html-keyboard-response","235","613714","0.0-10.0-0.11","fixation","","","","",""
"2298.704999993788","Stimuli/Hangul_M60.bmp","188","image-keyboard-response","236","616013","0.0-10.0-1.11","test",",","",",","",""
"null","<div style=""color:white; font-size:60px;"">+</div>","null","html-keyboard-response","237","617015","0.0-10.0-0.12","fixation","","","","",""
"2653.98499998264","Stimuli/Hangul_M56.bmp","190","image-keyboard-response","238","619669","0.0-10.0-1.12","test",",","",".","",""
"null","<div style=""color:white; font-size:60px;"">+</div>","null","html-keyboard-response","239","620670","0.0-10.0-0.13","fixation","","","","",""
"3784.8250000097323","Stimuli/Hangul_F52.bmp","188","image-keyboard-response","240","624456","0.0-10.0-1.13","test",".","",",","",""
"null","<div style=""color:white; font-size:60px;"">+</div>","null","html-keyboard-response","241","625458","0.0-10.0-0.14","fixation","","","","",""
"2267.4199999892153","Stimuli/Hangul_F74.bmp","190","image-keyboard-response","242","627726","0.0-10.0-1.14","test",".","",".","",""
"null","<div style=""color:white; font-size:60px;"">+</div>","null","html-keyboard-response","243","628727","0.0-10.0-0.15","fixation","","","","",""
"2566.0599999828264","Stimuli/Hangul_M72.bmp","188","image-keyboard-response","244","631294","0.0-10.0-1.15","test",",","",",","",""
"null","<div style=""color:white; font-size:60px;"">+</div>","null","html-keyboard-response","245","632296","0.0-10.0-0.16","fixation","","","","",""
"2288.6600000201724","Stimuli/Hangul_F53.bmp","190","image-keyboard-response","246","634585","0.0-10.0-1.16","test",".","",".","",""
"null","<div style=""color:white; font-size:60px;"">+</div>","null","html-keyboard-response","247","635586","0.0-10.0-0.17","fixation","","","","",""
"3163.044999993872","Stimuli/Hangul_M52.bmp","190","image-keyboard-response","248","638750","0.0-10.0-1.17","test",",","",".","",""
"null","<div style=""color:white; font-size:60px;"">+</div>","null","html-keyboard-response","249","639752","0.0-10.0-0.18","fixation","","","","",""
"1718.1250000139698","Stimuli/Hangul_F59.bmp","190","image-keyboard-response","250","641471","0.0-10.0-1.18","test",".","",".","",""
"null","<div style=""color:white; font-size:60px;"">+</div>","null","html-keyboard-response","251","642472","0.0-10.0-0.19","fixation","","","","",""
"2496.854999975767","Stimuli/Hangul_F58.bmp","188","image-keyboard-response","252","644969","0.0-10.0-1.19","test",".","",",","",""
"null","<div style=""color:white; font-size:60px;"">+</div>","null","html-keyboard-response","253","645971","0.0-10.0-0.20","fixation","","","","",""
"2323.949999990873","Stimuli/Hangul_F61.bmp","188","image-keyboard-response","254","648295","0.0-10.0-1.20","test",".","",",","",""
"null","<div style=""color:white; font-size:60px;"">+</div>","null","html-keyboard-response","255","649296","0.0-10.0-0.21","fixation","","","","",""
"2309.8549999995157","Stimuli/Hangul_F67.bmp","188","image-keyboard-response","256","651607","0.0-10.0-1.21","test",".","",",","",""
"null","<div style=""color:white; font-size:60px;"">+</div>","null","html-keyboard-response","257","652608","0.0-10.0-0.22","fixation","","","","",""
"3920.9350000019185","Stimuli/Hangul_M65.bmp","188","image-keyboard-response","258","656530","0.0-10.0-1.22","test",",","",",","",""
"null","<div style=""color:white; font-size:60px;"">+</div>","null","html-keyboard-response","259","657531","0.0-10.0-0.23","fixation","","","","",""
"2459.7149999754038","Stimuli/Hangul_M66.bmp","188","image-keyboard-response","260","659992","0.0-10.0-1.23","test",",","",",","",""
"null","<div style=""color:white; font-size:60px;"">+</div>","null","html-keyboard-response","261","660992","0.0-10.0-0.24","fixation","","","","",""
"1998.4950000070967","Stimuli/Hangul_F64.bmp","190","image-keyboard-response","262","662992","0.0-10.0-1.24","test",".","",".","",""
"null","<div style=""color:white; font-size:60px;"">+</div>","null","html-keyboard-response","263","663993","0.0-10.0-0.25","fixation","","","","",""
"1694.5399999967776","Stimuli/Hangul_F68.bmp","190","image-keyboard-response","264","665688","0.0-10.0-1.25","test",".","",".","",""
"null","<div style=""color:white; font-size:60px;"">+</div>","null","html-keyboard-response","265","666689","0.0-10.0-0.26","fixation","","","","",""
"2424.5499999960884","Stimuli/Hangul_F70.bmp","188","image-keyboard-response","266","669115","0.0-10.0-1.26","test",".","",",","",""
"null","<div style=""color:white; font-size:60px;"">+</div>","null","html-keyboard-response","267","670117","0.0-10.0-0.27","fixation","","","","",""
"3547.129999991739","Stimuli/Hangul_M57.bmp","190","image-keyboard-response","268","673664","0.0-10.0-1.27","test",",","",".","",""
"null","<div style=""color:white; font-size:60px;"">+</div>","null","html-keyboard-response","269","674666","0.0-10.0-0.28","fixation","","","","",""
"1742.180000001099","Stimuli/Hangul_F56.bmp","188","image-keyboard-response","270","676409","0.0-10.0-1.28","test",".","",",","",""
"null","<div style=""color:white; font-size:60px;"">+</div>","null","html-keyboard-response","271","677410","0.0-10.0-0.29","fixation","","","","",""
"2176.565000001574","Stimuli/Hangul_F69.bmp","190","image-keyboard-response","272","679588","0.0-10.0-1.29","test",".","",".","",""
"null","<div style=""color:white; font-size:60px;"">+</div>","null","html-keyboard-response","273","680589","0.0-10.0-0.30","fixation","","","","",""
"3354.764999996405","Stimuli/Hangul_F62.bmp","190","image-keyboard-response","274","683945","0.0-10.0-1.30","test",".","",".","",""
"null","<div style=""color:white; font-size:60px;"">+</div>","null","html-keyboard-response","275","684946","0.0-10.0-0.31","fixation","","","","",""
"2390.270000003511","Stimuli/Hangul_M50.bmp","188","image-keyboard-response","276","687337","0.0-10.0-1.31","test",",","",",","",""
"null","<div style=""color:white; font-size:60px;"">+</div>","null","html-keyboard-response","277","688338","0.0-10.0-0.32","fixation","","","","",""
"2160.9149999858346","Stimuli/Hangul_M62.bmp","188","image-keyboard-response","278","690500","0.0-10.0-1.32","test",",","",",","",""
"null","<div style=""color:white; font-size:60px;"">+</div>","null","html-keyboard-response","279","691502","0.0-10.0-0.33","fixation","","","","",""
"1754.994999995688","Stimuli/Hangul_F60.bmp","190","image-keyboard-response","280","693257","0.0-10.0-1.33","test",".","",".","",""
"null","<div style=""color:white; font-size:60px;"">+</div>","null","html-keyboard-response","281","694259","0.0-10.0-0.34","fixation","","","","",""
"2414.294999995036","Stimuli/Hangul_F55.bmp","188","image-keyboard-response","282","696674","0.0-10.0-1.34","test",".","",",","",""
"null","<div style=""color:white; font-size:60px;"">+</div>","null","html-keyboard-response","283","697675","0.0-10.0-0.35","fixation","","","","",""
"3336.4650000003166","Stimuli/Hangul_M61.bmp","188","image-keyboard-response","284","701012","0.0-10.0-1.35","test",",","",",","",""
"null","<div style=""color:white; font-size:60px;"">+</div>","null","html-keyboard-response","285","702013","0.0-10.0-0.36","fixation","","","","",""
"2404.080000007525","Stimuli/Hangul_M71.bmp","188","image-keyboard-response","286","704418","0.0-10.0-1.36","test",",","",",","",""
"null","<div style=""color:white; font-size:60px;"">+</div>","null","html-keyboard-response","287","705419","0.0-10.0-0.37","fixation","","","","",""
"1781.8800000241026","Stimuli/Hangul_F50.bmp","190","image-keyboard-response","288","707202","0.0-10.0-1.37","test",".","",".","",""
"null","<div style=""color:white; font-size:60px;"">+</div>","null","html-keyboard-response","289","708204","0.0-10.0-0.38","fixation","","","","",""
"2677.579999988666","Stimuli/Hangul_F57.bmp","190","image-keyboard-response","290","710882","0.0-10.0-1.38","test",".","",".","",""
"null","<div style=""color:white; font-size:60px;"">+</div>","null","html-keyboard-response","291","711883","0.0-10.0-0.39","fixation","","","","",""
"2209.1050000162795","Stimuli/Hangul_M67.bmp","190","image-keyboard-response","292","714093","0.0-10.0-1.39","test",",","",".","",""
"null","<div style=""color:white; font-size:60px;"">+</div>","null","html-keyboard-response","293","715094","0.0-10.0-0.40","fixation","","","","",""
"1819.404999987455","Stimuli/Hangul_F73.bmp","190","image-keyboard-response","294","716915","0.0-10.0-1.40","test",".","",".","",""
"null","<div style=""color:white; font-size:60px;"">+</div>","null","html-keyboard-response","295","717915","0.0-10.0-0.41","fixation","","","","",""
"2142.714999994496","Stimuli/Hangul_F66.bmp","190","image-keyboard-response","296","720059","0.0-10.0-1.41","test",".","",".","",""
"null","<div style=""color:white; font-size:60px;"">+</div>","null","html-keyboard-response","297","721060","0.0-10.0-0.42","fixation","","","","",""
"2326.13499998115","Stimuli/Hangul_M64.bmp","188","image-keyboard-response","298","723387","0.0-10.0-1.42","test",",","",",","",""
"null","<div style=""color:white; font-size:60px;"">+</div>","null","html-keyboard-response","299","724388","0.0-10.0-0.43","fixation","","","","",""
"2121.370000008028","Stimuli/Hangul_F51.bmp","190","image-keyboard-response","300","726510","0.0-10.0-1.43","test",".","",".","",""
"null","<div style=""color:white; font-size:60px;"">+</div>","null","html-keyboard-response","301","727511","0.0-10.0-0.44","fixation","","","","",""
"2947.809999983292","Stimuli/Hangul_F54.bmp","188","image-keyboard-response","302","730459","0.0-10.0-1.44","test",".","",",","",""
"null","<div style=""color:white; font-size:60px;"">+</div>","null","html-keyboard-response","303","731461","0.0-10.0-0.45","fixation","","","","",""
"2597.6899999950547","Stimuli/Hangul_M70.bmp","188","image-keyboard-response","304","734059","0.0-10.0-1.45","test",",","",",","",""
"null","<div style=""color:white; font-size:60px;"">+</div>","null","html-keyboard-response","305","735061","0.0-10.0-0.46","fixation","","","","",""
"2376.4899999951012","Stimuli/Hangul_F65.bmp","190","image-keyboard-response","306","737438","0.0-10.0-1.46","test",".","",".","",""
"null","<div style=""color:white; font-size:60px;"">+</div>","null","html-keyboard-response","307","738439","0.0-10.0-0.47","fixation","","","","",""
"2979.7550000075717","Stimuli/Hangul_M74.bmp","188","image-keyboard-response","308","741420","0.0-10.0-1.47","test",",","",",","",""
"null","<div style=""color:white; font-size:60px;"">+</div>","null","html-keyboard-response","309","742420","0.0-10.0-0.48","fixation","","","","",""
"4070.884999993723","Stimuli/Hangul_M51.bmp","188","image-keyboard-response","310","746492","0.0-10.0-1.48","test",",","",",","",""
"null","<div style=""color:white; font-size:60px;"">+</div>","null","html-keyboard-response","311","747493","0.0-10.0-0.49","fixation","","","","",""
"1959.9699999962468","Stimuli/Hangul_F72.bmp","188","image-keyboard-response","312","749454","0.0-10.0-1.49","test",".","",",","",""
"172358.03000000305","<p style=""color:white;"">One more block to go! Please take a moment to rest.</p> <p style=""color:white;"">When you are ready to continue with block 4 of 4, press the space bar.</p> ","32","html-keyboard-response","313","921814","0.0-11.0","","","","","",""
"null","<div style=""color:white; font-size:60px;"">+</div>","null","html-keyboard-response","314","924816","0.0-12.0-0.0","fixation","","","","",""
"2029.2199999967124","Stimuli/Hangul_M92.bmp","188","image-keyboard-response","315","926846","0.0-12.0-1.0","test",",","",",","",""
"null","<div style=""color:white; font-size:60px;"">+</div>","null","html-keyboard-response","316","927847","0.0-12.0-0.1","fixation","","","","",""
"2456.895000010263","Stimuli/Hangul_M80.bmp","188","image-keyboard-response","317","930305","0.0-12.0-1.1","test",",","",",","",""
"null","<div style=""color:white; font-size:60px;"">+</div>","null","html-keyboard-response","318","931306","0.0-12.0-0.2","fixation","","","","",""
"2619.2100000043865","Stimuli/Hangul_F85.bmp","190","image-keyboard-response","319","933926","0.0-12.0-1.2","test",".","",".","",""
"null","<div style=""color:white; font-size:60px;"">+</div>","null","html-keyboard-response","320","934928","0.0-12.0-0.3","fixation","","","","",""
"2461.7549999966286","Stimuli/Hangul_F90.bmp","188","image-keyboard-response","321","937390","0.0-12.0-1.3","test",".","",",","",""
"null","<div style=""color:white; font-size:60px;"">+</div>","null","html-keyboard-response","322","938392","0.0-12.0-0.4","fixation","","","","",""
"2272.9749999998603","Stimuli/Hangul_F92.bmp","190","image-keyboard-response","323","940665","0.0-12.0-1.4","test",".","",".","",""
"null","<div style=""color:white; font-size:60px;"">+</div>","null","html-keyboard-response","324","941666","0.0-12.0-0.5","fixation","","","","",""
"2259.4800000078976","Stimuli/Hangul_F93.bmp","190","image-keyboard-response","325","943927","0.0-12.0-1.5","test",".","",".","",""
"null","<div style=""color:white; font-size:60px;"">+</div>","null","html-keyboard-response","326","944928","0.0-12.0-0.6","fixation","","","","",""
"2246.4150000014342","Stimuli/Hangul_F76.bmp","190","image-keyboard-response","327","947175","0.0-12.0-1.6","test",".","",".","",""
"null","<div style=""color:white; font-size:60px;"">+</div>","null","html-keyboard-response","328","948176","0.0-12.0-0.7","fixation","","","","",""
"2374.440000014147","Stimuli/Hangul_M90.bmp","188","image-keyboard-response","329","950551","0.0-12.0-1.7","test",",","",",","",""
"null","<div style=""color:white; font-size:60px;"">+</div>","null","html-keyboard-response","330","951552","0.0-12.0-0.8","fixation","","","","",""
"2449.0650000225287","Stimuli/Hangul_F83.bmp","190","image-keyboard-response","331","954002","0.0-12.0-1.8","test",".","",".","",""
"null","<div style=""color:white; font-size:60px;"">+</div>","null","html-keyboard-response","332","955003","0.0-12.0-0.9","fixation","","","","",""
"2771.0899999947287","Stimuli/Hangul_M85.bmp","188","image-keyboard-response","333","957775","0.0-12.0-1.9","test",",","",",","",""
"null","<div style=""color:white; font-size:60px;"">+</div>","null","html-keyboard-response","334","958777","0.0-12.0-0.10","fixation","","","","",""
"2590.230000001611","Stimuli/Hangul_M79.bmp","188","image-keyboard-response","335","961368","0.0-12.0-1.10","test",",","",",","",""
"null","<div style=""color:white; font-size:60px;"">+</div>","null","html-keyboard-response","336","962369","0.0-12.0-0.11","fixation","","","","",""
"2360.849999997299","Stimuli/Hangul_F77.bmp","190","image-keyboard-response","337","964730","0.0-12.0-1.11","test",".","",".","",""
"null","<div style=""color:white; font-size:60px;"">+</div>","null","html-keyboard-response","338","965732","0.0-12.0-0.12","fixation","","","","",""
"2603.14500000095","Stimuli/Hangul_F75.bmp","190","image-keyboard-response","339","968336","0.0-12.0-1.12","test",".","",".","",""
"null","<div style=""color:white; font-size:60px;"">+</div>","null","html-keyboard-response","340","969337","0.0-12.0-0.13","fixation","","","","",""
"2318.154999986291","Stimuli/Hangul_M89.bmp","188","image-keyboard-response","341","971656","0.0-12.0-1.13","test",",","",",","",""
"null","<div style=""color:white; font-size:60px;"">+</div>","null","html-keyboard-response","342","972657","0.0-12.0-0.14","fixation","","","","",""
"2697.279999993043","Stimuli/Hangul_M97.bmp","190","image-keyboard-response","343","975355","0.0-12.0-1.14","test",",","",".","",""
"null","<div style=""color:white; font-size:60px;"">+</div>","null","html-keyboard-response","344","976356","0.0-12.0-0.15","fixation","","","","",""
"2595.679999998538","Stimuli/Hangul_F79.bmp","190","image-keyboard-response","345","978953","0.0-12.0-1.15","test",".","",".","",""
"null","<div style=""color:white; font-size:60px;"">+</div>","null","html-keyboard-response","346","979954","0.0-12.0-0.16","fixation","","","","",""
"2838.1700000027195","Stimuli/Hangul_M77.bmp","188","image-keyboard-response","347","982792","0.0-12.0-1.16","test",",","",",","",""
"null","<div style=""color:white; font-size:60px;"">+</div>","null","html-keyboard-response","348","983794","0.0-12.0-0.17","fixation","","","","",""
"2703.7899999995716","Stimuli/Hangul_F99.bmp","188","image-keyboard-response","349","986499","0.0-12.0-1.17","test",".","",",","",""
"null","<div style=""color:white; font-size:60px;"">+</div>","null","html-keyboard-response","350","987500","0.0-12.0-0.18","fixation","","","","",""
"1811.0799999849405","Stimuli/Hangul_M87.bmp","190","image-keyboard-response","351","989313","0.0-12.0-1.18","test",",","",".","",""
"null","<div style=""color:white; font-size:60px;"">+</div>","null","html-keyboard-response","352","990314","0.0-12.0-0.19","fixation","","","","",""
"2446.1499999742955","Stimuli/Hangul_M94.bmp","188","image-keyboard-response","353","992761","0.0-12.0-1.19","test",",","",",","",""
"null","<div style=""color:white; font-size:60px;"">+</div>","null","html-keyboard-response","354","993763","0.0-12.0-0.20","fixation","","","","",""
"3527.425000007497","Stimuli/Hangul_M96.bmp","190","image-keyboard-response","355","997291","0.0-12.0-1.20","test",",","",".","",""
"null","<div style=""color:white; font-size:60px;"">+</div>","null","html-keyboard-response","356","998292","0.0-12.0-0.21","fixation","","","","",""
"2739.9850000219885","Stimuli/Hangul_F81.bmp","190","image-keyboard-response","357","1001033","0.0-12.0-1.21","test",".","",".","",""
"null","<div style=""color:white; font-size:60px;"">+</div>","null","html-keyboard-response","358","1002034","0.0-12.0-0.22","fixation","","","","",""
"2478.3450000104494","Stimuli/Hangul_M95.bmp","188","image-keyboard-response","359","1004513","0.0-12.0-1.22","test",",","",",","",""
"null","<div style=""color:white; font-size:60px;"">+</div>","null","html-keyboard-response","360","1005514","0.0-12.0-0.23","fixation","","","","",""
"2729.2250000173226","Stimuli/Hangul_M86.bmp","188","image-keyboard-response","361","1008244","0.0-12.0-1.23","test",",","",",","",""
"null","<div style=""color:white; font-size:60px;"">+</div>","null","html-keyboard-response","362","1009246","0.0-12.0-0.24","fixation","","","","",""
"2595.020000007935","Stimuli/Hangul_F95.bmp","190","image-keyboard-response","363","1011842","0.0-12.0-1.24","test",".","",".","",""
"null","<div style=""color:white; font-size:60px;"">+</div>","null","html-keyboard-response","364","1012843","0.0-12.0-0.25","fixation","","","","",""
"2350.494999991497","Stimuli/Hangul_F80.bmp","190","image-keyboard-response","365","1015194","0.0-12.0-1.25","test",".","",".","",""
"null","<div style=""color:white; font-size:60px;"">+</div>","null","html-keyboard-response","366","1016195","0.0-12.0-0.26","fixation","","","","",""
"2320.5049999814946","Stimuli/Hangul_F89.bmp","190","image-keyboard-response","367","1018516","0.0-12.0-1.26","test",".","",".","",""
"null","<div style=""color:white; font-size:60px;"">+</div>","null","html-keyboard-response","368","1019518","0.0-12.0-0.27","fixation","","","","",""
"2507.4449999956414","Stimuli/Hangul_M82.bmp","188","image-keyboard-response","369","1022026","0.0-12.0-1.27","test",",","",",","",""
"null","<div style=""color:white; font-size:60px;"">+</div>","null","html-keyboard-response","370","1023027","0.0-12.0-0.28","fixation","","","","",""
"1950.4200000083074","Stimuli/Hangul_M78.bmp","188","image-keyboard-response","371","1024978","0.0-12.0-1.28","test",",","",",","",""
"null","<div style=""color:white; font-size:60px;"">+</div>","null","html-keyboard-response","372","1025980","0.0-12.0-0.29","fixation","","","","",""
"1981.8899999954738","Stimuli/Hangul_M81.bmp","188","image-keyboard-response","373","1027963","0.0-12.0-1.29","test",",","",",","",""
"null","<div style=""color:white; font-size:60px;"">+</div>","null","html-keyboard-response","374","1028964","0.0-12.0-0.30","fixation","","","","",""
"2368.445000000065","Stimuli/Hangul_F97.bmp","190","image-keyboard-response","375","1031333","0.0-12.0-1.30","test",".","",".","",""
"null","<div style=""color:white; font-size:60px;"">+</div>","null","html-keyboard-response","376","1032334","0.0-12.0-0.31","fixation","","","","",""
"1844.0599999739788","Stimuli/Hangul_M98.bmp","188","image-keyboard-response","377","1034179","0.0-12.0-1.31","test",",","",",","",""
"null","<div style=""color:white; font-size:60px;"">+</div>","null","html-keyboard-response","378","1035180","0.0-12.0-0.32","fixation","","","","",""
"2398.094999982277","Stimuli/Hangul_F87.bmp","190","image-keyboard-response","379","1037579","0.0-12.0-1.32","test",".","",".","",""
"null","<div style=""color:white; font-size:60px;"">+</div>","null","html-keyboard-response","380","1038581","0.0-12.0-0.33","fixation","","","","",""
"2213.9399999869056","Stimuli/Hangul_F98.bmp","190","image-keyboard-response","381","1040795","0.0-12.0-1.33","test",".","",".","",""
"null","<div style=""color:white; font-size:60px;"">+</div>","null","html-keyboard-response","382","1041797","0.0-12.0-0.34","fixation","","","","",""
"1672.3049999854993","Stimuli/Hangul_F96.bmp","190","image-keyboard-response","383","1043471","0.0-12.0-1.34","test",".","",".","",""
"null","<div style=""color:white; font-size:60px;"">+</div>","null","html-keyboard-response","384","1044472","0.0-12.0-0.35","fixation","","","","",""
"2899.5900000154506","Stimuli/Hangul_M93.bmp","188","image-keyboard-response","385","1047372","0.0-12.0-1.35","test",",","",",","",""
"null","<div style=""color:white; font-size:60px;"">+</div>","null","html-keyboard-response","386","1048374","0.0-12.0-0.36","fixation","","","","",""
"2261.590000009164","Stimuli/Hangul_M84.bmp","190","image-keyboard-response","387","1050636","0.0-12.0-1.36","test",",","",".","",""
"null","<div style=""color:white; font-size:60px;"">+</div>","null","html-keyboard-response","388","1051637","0.0-12.0-0.37","fixation","","","","",""
"2721.2500000023283","Stimuli/Hangul_M99.bmp","188","image-keyboard-response","389","1054359","0.0-12.0-1.37","test",",","",",","",""
"null","<div style=""color:white; font-size:60px;"">+</div>","null","html-keyboard-response","390","1055360","0.0-12.0-0.38","fixation","","","","",""
"2243.5200000181794","Stimuli/Hangul_F86.bmp","190","image-keyboard-response","391","1057605","0.0-12.0-1.38","test",".","",".","",""
"null","<div style=""color:white; font-size:60px;"">+</div>","null","html-keyboard-response","392","1058606","0.0-12.0-0.39","fixation","","","","",""
"2518.24000000488","Stimuli/Hangul_F94.bmp","190","image-keyboard-response","393","1061125","0.0-12.0-1.39","test",".","",".","",""
"null","<div style=""color:white; font-size:60px;"">+</div>","null","html-keyboard-response","394","1062126","0.0-12.0-0.40","fixation","","","","",""
"2520.3200000105426","Stimuli/Hangul_F78.bmp","190","image-keyboard-response","395","1064647","0.0-12.0-1.40","test",".","",".","",""
"null","<div style=""color:white; font-size:60px;"">+</div>","null","html-keyboard-response","396","1065649","0.0-12.0-0.41","fixation","","","","",""
"1683.3449999976438","Stimuli/Hangul_F88.bmp","190","image-keyboard-response","397","1067333","0.0-12.0-1.41","test",".","",".","",""
"null","<div style=""color:white; font-size:60px;"">+</div>","null","html-keyboard-response","398","1068335","0.0-12.0-0.42","fixation","","","","",""
"2494.135000015376","Stimuli/Hangul_M91.bmp","188","image-keyboard-response","399","1070829","0.0-12.0-1.42","test",",","",",","",""
"null","<div style=""color:white; font-size:60px;"">+</div>","null","html-keyboard-response","400","1071831","0.0-12.0-0.43","fixation","","","","",""
"1942.1649999858346","Stimuli/Hangul_M83.bmp","188","image-keyboard-response","401","1073774","0.0-12.0-1.43","test",",","",",","",""
"null","<div style=""color:white; font-size:60px;"">+</div>","null","html-keyboard-response","402","1074775","0.0-12.0-0.44","fixation","","","","",""
"4064.5900000235997","Stimuli/Hangul_F91.bmp","190","image-keyboard-response","403","1078840","0.0-12.0-1.44","test",".","",".","",""
"null","<div style=""color:white; font-size:60px;"">+</div>","null","html-keyboard-response","404","1079843","0.0-12.0-0.45","fixation","","","","",""
"2834.564999997383","Stimuli/Hangul_M76.bmp","188","image-keyboard-response","405","1082678","0.0-12.0-1.45","test",",","",",","",""
"null","<div style=""color:white; font-size:60px;"">+</div>","null","html-keyboard-response","406","1083679","0.0-12.0-0.46","fixation","","","","",""
"2374.515000003157","Stimuli/Hangul_F82.bmp","190","image-keyboard-response","407","1086054","0.0-12.0-1.46","test",".","",".","",""
"null","<div style=""color:white; font-size:60px;"">+</div>","null","html-keyboard-response","408","1087056","0.0-12.0-0.47","fixation","","","","",""
"1742.020000005141","Stimuli/Hangul_F84.bmp","190","image-keyboard-response","409","1088798","0.0-12.0-1.47","test",".","",".","",""
"null","<div style=""color:white; font-size:60px;"">+</div>","null","html-keyboard-response","410","1089799","0.0-12.0-0.48","fixation","","","","",""
"2585.4249999974854","Stimuli/Hangul_M88.bmp","188","image-keyboard-response","411","1092385","0.0-12.0-1.48","test",",","",",","",""
"null","<div style=""color:white; font-size:60px;"">+</div>","null","html-keyboard-response","412","1093386","0.0-12.0-0.49","fixation","","","","",""
"2755.8650000137277","Stimuli/Hangul_M75.bmp","188","image-keyboard-response","413","1096143","0.0-12.0-1.49","test",",","",",","",""
"2383.254999993369","<p style=""color:white;"">Phase I of the experiment is complete.</p> <p style=""color:white;"">Press the space bar to proceed to Phase II of the experiment.</p> ","32","html-keyboard-response","414","1098527","0.0-13.0","","","","","",""
"21935.42999998317","<p style=""color:white;"">Now we are interested in how well you can predict patterns in the series of figures. You will be asked to predict whether the next figure in the series is more male-like or female-like. When you see the <q>Next Figure</q> prompt, press the corresponding response keys to indicate your prediction: </p><p style=""color:white;""> Male &#8594 <q>,</q> (comma)</p><p style=""color:white;""> Female &#8594 <q>.</q> (period)</p><p style=""color:white;"">The actual figure will then appear on the screen. After you see the figure, please guess the assigned gender with response keys. </p><p style=""color:white;"">As before, you will receive 2 cents for correctly classifying each figure.</p><p style=""color:white;"">Press either response keys to continue.</p>","188","html-keyboard-response","415","1122464","0.0-14.0","","","","","",""
"14538.759999995818","<p style=""color:white;"">PREDICTION BONUS</p> <p style=""color:white;"">Your prediction accuracy is the total number of correct predictions you make over the 200 trials.</p> <p style=""color:white;"">In addition to the 2 cents per correct figure classification, you have the chance to receive a bonus of 40 dollars IF your accuracy is above average relative to previous participants.</p><p style=""color:white;"">If your accuracy is below average relative to previous participants, then you will not receive the 40 dollar bonus.</p><p style=""color:white;"">Press the space bar to continue.</p>","32","html-keyboard-response","416","1137004","0.0-15.0","","","","","",""
"9757.595000002766","<p style=""color:white;"">Here are some examples.</p> <p style=""color:white;"">For each, predict whether the next figure looks more male-like or female-like. Then, when the figure appears, guess whether it looks more male-like or female-like and indicate your choice.</p> <p style=""color:white;"">Press the space bar to continue.</p>","32","html-keyboard-response","417","1146762","0.0-16.0","","","","","",""
"3224.0749999764375","<p style=""color:white;""> Next Figure: Male or Female? </p>","190","html-keyboard-response","418","1151988","0.0-17.0-0.0","prediction_train","","","",".",""
"null","<div style=""color:white; font-size:60px;"">+</div>","null","html-keyboard-response","419","1152990","0.0-17.0-1.0","fixation","","","","",""
"1250.7699999841861","Stimuli/Hangul_E1.bmp","188","image-keyboard-response","420","1154242","0.0-17.0-2.0","c2_train",",","","","",","
"1815.3950000123587","<p style=""color:white;""> Next Figure: Male or Female? </p>","188","html-keyboard-response","421","1156058","0.0-17.0-0.1","prediction_train","","","",",",""
"null","<div style=""color:white; font-size:60px;"">+</div>","null","html-keyboard-response","422","1157059","0.0-17.0-1.1","fixation","","","","",""
"854.49499997776","Stimuli/Hangul_E0.bmp","188","image-keyboard-response","423","1157914","0.0-17.0-2.1","c2_train",",","","","",","
"1047.5250000017695","<p style=""color:white;""> Next Figure: Male or Female? </p>","190","html-keyboard-response","424","1158962","0.0-17.0-0.2","prediction_train","","","",".",""
"null","<div style=""color:white; font-size:60px;"">+</div>","null","html-keyboard-response","425","1159964","0.0-17.0-1.2","fixation","","","","",""
"469.7850000229664","Stimuli/Hangul_E2.bmp","190","image-keyboard-response","426","1160434","0.0-17.0-2.2","c2_train",".","","","","."
"3065.854999993462","<p style=""color:white;"">Let us begin! Press the space bar when you are ready to start block 1 of 4.</p> ","32","html-keyboard-response","427","1163501","0.0-18.0","","","","","",""
"835.6949999870267","<p style=""color:white;""> Next Figure: Male or Female? </p>","190","html-keyboard-response","428","1166339","0.0-19.0-0.0","prediction","","","",".",""
"null","<div style=""color:white; font-size:60px;"">+</div>","null","html-keyboard-response","429","1167340","0.0-19.0-1.0","fixation","","","","",""
"973.7850000092294","Stimuli/Hangul_M13.bmp","188","image-keyboard-response","430","1168315","0.0-19.0-2.0","c2_test",",","","","",","
"1199.1149999957997","<p style=""color:white;""> Next Figure: Male or Female? </p>","188","html-keyboard-response","431","1169515","0.0-19.0-0.1","prediction","","","",",",""
"null","<div style=""color:white; font-size:60px;"">+</div>","null","html-keyboard-response","432","1170516","0.0-19.0-1.1","fixation","","","","",""
"638.1750000000466","Stimuli/Hangul_M22.bmp","188","image-keyboard-response","433","1171155","0.0-19.0-2.1","c2_test",",","","","",","
"926.8799999845214","<p style=""color:white;""> Next Figure: Male or Female? </p>","188","html-keyboard-response","434","1172083","0.0-19.0-0.2","prediction","","","",",",""
"null","<div style=""color:white; font-size:60px;"">+</div>","null","html-keyboard-response","435","1173084","0.0-19.0-1.2","fixation","","","","",""
"544.995000003837","Stimuli/Hangul_F10.bmp","190","image-keyboard-response","436","1173630","0.0-19.0-2.2","c2_test",".","","","","."
"939.3200000049546","<p style=""color:white;""> Next Figure: Male or Female? </p>","190","html-keyboard-response","437","1174571","0.0-19.0-0.3","prediction","","","",".",""
"null","<div style=""color:white; font-size:60px;"">+</div>","null","html-keyboard-response","438","1175572","0.0-19.0-1.3","fixation","","","","",""
"702.6849999965634","Stimuli/Hangul_M15.bmp","188","image-keyboard-response","439","1176275","0.0-19.0-2.3","c2_test",",","","","",","
"1135.5599999951664","<p style=""color:white;""> Next Figure: Male or Female? </p>","188","html-keyboard-response","440","1177411","0.0-19.0-0.4","prediction","","","",",",""
"null","<div style=""color:white; font-size:60px;"">+</div>","null","html-keyboard-response","441","1178414","0.0-19.0-1.4","fixation","","","","",""
"460.9899999923073","Stimuli/Hangul_M19.bmp","188","image-keyboard-response","442","1178875","0.0-19.0-2.4","c2_test",",","","","",","
"1055.450000014389","<p style=""color:white;""> Next Figure: Male or Female? </p>","190","html-keyboard-response","443","1179931","0.0-19.0-0.5","prediction","","","",".",""
"null","<div style=""color:white; font-size:60px;"">+</div>","null","html-keyboard-response","444","1180933","0.0-19.0-1.5","fixation","","","","",""
"1029.9850000010338","Stimuli/Hangul_M23.bmp","188","image-keyboard-response","445","1181963","0.0-19.0-2.5","c2_test",",","","","",","
"719.5000000065193","<p style=""color:white;""> Next Figure: Male or Female? </p>","190","html-keyboard-response","446","1182683","0.0-19.0-0.6","prediction","","","",".",""
"null","<div style=""color:white; font-size:60px;"">+</div>","null","html-keyboard-response","447","1183685","0.0-19.0-1.6","fixation","","","","",""
"504.5300000056159","Stimuli/Hangul_F21.bmp","190","image-keyboard-response","448","1184190","0.0-19.0-2.6","c2_test",".","","","","."
"1172.855000011623","<p style=""color:white;""> Next Figure: Male or Female? </p>","188","html-keyboard-response","449","1185363","0.0-19.0-0.7","prediction","","","",",",""
"null","<div style=""color:white; font-size:60px;"">+</div>","null","html-keyboard-response","450","1186365","0.0-19.0-1.7","fixation","","","","",""
"438.1850000063423","Stimuli/Hangul_F15.bmp","188","image-keyboard-response","451","1186804","0.0-19.0-2.7","c2_test",".","","","",","
"1591.5249999961816","<p style=""color:white;""> Next Figure: Male or Female? </p>","190","html-keyboard-response","452","1188396","0.0-19.0-0.8","prediction","","","",".",""
"null","<div style=""color:white; font-size:60px;"">+</div>","null","html-keyboard-response","453","1189397","0.0-19.0-1.8","fixation","","","","",""
"1462.679999996908","Stimuli/Hangul_M2.bmp","188","image-keyboard-response","454","1190860","0.0-19.0-2.8","c2_test",",","","","",","
"735.3200000070501","<p style=""color:white;""> Next Figure: Male or Female? </p>","188","html-keyboard-response","455","1191596","0.0-19.0-0.9","prediction","","","",",",""
"null","<div style=""color:white; font-size:60px;"">+</div>","null","html-keyboard-response","456","1192597","0.0-19.0-1.9","fixation","","","","",""
"429.7400000214111","Stimuli/Hangul_M11.bmp","188","image-keyboard-response","457","1193028","0.0-19.0-2.9","c2_test",",","","","",","
"527.5599999877159","<p style=""color:white;""> Next Figure: Male or Female? </p>","188","html-keyboard-response","458","1193556","0.0-19.0-0.10","prediction","","","",",",""
"null","<div style=""color:white; font-size:60px;"">+</div>","null","html-keyboard-response","459","1194557","0.0-19.0-1.10","fixation","","","","",""
"481.4299999852665","Stimuli/Hangul_F23.bmp","188","image-keyboard-response","460","1195040","0.0-19.0-2.10","c2_test",".","","","",","
"763.810000004014","<p style=""color:white;""> Next Figure: Male or Female? </p>","190","html-keyboard-response","461","1195804","0.0-19.0-0.11","prediction","","","",".",""
"null","<div style=""color:white; font-size:60px;"">+</div>","null","html-keyboard-response","462","1196805","0.0-19.0-1.11","fixation","","","","",""
"926.3099999807309","Stimuli/Hangul_F2.bmp","188","image-keyboard-response","463","1197732","0.0-19.0-2.11","c2_test",".","","","",","
"775.4800000111572","<p style=""color:white;""> Next Figure: Male or Female? </p>","190","html-keyboard-response","464","1198508","0.0-19.0-0.12","prediction","","","",".",""
"null","<div style=""color:white; font-size:60px;"">+</div>","null","html-keyboard-response","465","1199510","0.0-19.0-1.12","fixation","","","","",""
"517.8849999792874","Stimuli/Hangul_F4.bmp","190","image-keyboard-response","466","1200028","0.0-19.0-2.12","c2_test",".","","","","."
"879.5549999922514","<p style=""color:white;""> Next Figure: Male or Female? </p>","190","html-keyboard-response","467","1200908","0.0-19.0-0.13","prediction","","","",".",""
"null","<div style=""color:white; font-size:60px;"">+</div>","null","html-keyboard-response","468","1201910","0.0-19.0-1.13","fixation","","","","",""
"749.8049999994691","Stimuli/Hangul_F11.bmp","188","image-keyboard-response","469","1202661","0.0-19.0-2.13","c2_test",".","","","",","
"638.730000006035","<p style=""color:white;""> Next Figure: Male or Female? </p>","188","html-keyboard-response","470","1203301","0.0-19.0-0.14","prediction","","","",",",""
"null","<div style=""color:white; font-size:60px;"">+</div>","null","html-keyboard-response","471","1204301","0.0-19.0-1.14","fixation","","","","",""
"761.0600000189152","Stimuli/Hangul_F18.bmp","190","image-keyboard-response","472","1205063","0.0-19.0-2.14","c2_test",".","","","","."
"884.9500000069384","<p style=""color:white;""> Next Figure: Male or Female? </p>","190","html-keyboard-response","473","1205949","0.0-19.0-0.15","prediction","","","",".",""
"null","<div style=""color:white; font-size:60px;"">+</div>","null","html-keyboard-response","474","1206949","0.0-19.0-1.15","fixation","","","","",""
"998.7599999876693","Stimuli/Hangul_F0.bmp","188","image-keyboard-response","475","1207949","0.0-19.0-2.15","c2_test",".","","","",","
"815.310000005411","<p style=""color:white;""> Next Figure: Male or Female? </p>","188","html-keyboard-response","476","1208765","0.0-19.0-0.16","prediction","","","",",",""
"null","<div style=""color:white; font-size:60px;"">+</div>","null","html-keyboard-response","477","1209766","0.0-19.0-1.16","fixation","","","","",""
"662.5499999790918","Stimuli/Hangul_M8.bmp","188","image-keyboard-response","478","1210429","0.0-19.0-2.16","c2_test",",","","","",","
"719.5399999909569","<p style=""color:white;""> Next Figure: Male or Female? </p>","190","html-keyboard-response","479","1211149","0.0-19.0-0.17","prediction","","","",".",""
"null","<div style=""color:white; font-size:60px;"">+</div>","null","html-keyboard-response","480","1212151","0.0-19.0-1.17","fixation","","","","",""
"725.6349999806844","Stimuli/Hangul_F22.bmp","188","image-keyboard-response","481","1212877","0.0-19.0-2.17","c2_test",".","","","",","
"695.6100000243168","<p style=""color:white;""> Next Figure: Male or Female? </p>","190","html-keyboard-response","482","1213573","0.0-19.0-0.18","prediction","","","",".",""
"null","<div style=""color:white; font-size:60px;"">+</div>","null","html-keyboard-response","483","1214575","0.0-19.0-1.18","fixation","","","","",""
"648.1799999892246","Stimuli/Hangul_F7.bmp","188","image-keyboard-response","484","1215224","0.0-19.0-2.18","c2_test",".","","","",","
"1637.3599999933504","<p style=""color:white;""> Next Figure: Male or Female? </p>","190","html-keyboard-response","485","1216861","0.0-19.0-0.19","prediction","","","",".",""
"null","<div style=""color:white; font-size:60px;"">+</div>","null","html-keyboard-response","486","1217863","0.0-19.0-1.19","fixation","","","","",""
"725.5650000006426","Stimuli/Hangul_F16.bmp","188","image-keyboard-response","487","1218589","0.0-19.0-2.19","c2_test",".","","","",","
"599.274999985937","<p style=""color:white;""> Next Figure: Male or Female? </p>","188","html-keyboard-response","488","1219189","0.0-19.0-0.20","prediction","","","",",",""
"null","<div style=""color:white; font-size:60px;"">+</div>","null","html-keyboard-response","489","1220190","0.0-19.0-1.20","fixation","","","","",""
"510.35500000580214","Stimuli/Hangul_F8.bmp","190","image-keyboard-response","490","1220701","0.0-19.0-2.20","c2_test",".","","","","."
"591.3799999980256","<p style=""color:white;""> Next Figure: Male or Female? </p>","190","html-keyboard-response","491","1221293","0.0-19.0-0.21","prediction","","","",".",""
"null","<div style=""color:white; font-size:60px;"">+</div>","null","html-keyboard-response","492","1222295","0.0-19.0-1.21","fixation","","","","",""
"662.2299999871757","Stimuli/Hangul_F20.bmp","188","image-keyboard-response","493","1222958","0.0-19.0-2.21","c2_test",".","","","",","
"703.3899999805726","<p style=""color:white;""> Next Figure: Male or Female? </p>","188","html-keyboard-response","494","1223662","0.0-19.0-0.22","prediction","","","",",",""
"null","<div style=""color:white; font-size:60px;"">+</div>","null","html-keyboard-response","495","1224663","0.0-19.0-1.22","fixation","","","","",""
"616.8300000135787","Stimuli/Hangul_F17.bmp","188","image-keyboard-response","496","1225280","0.0-19.0-2.22","c2_test",".","","","",","
"380.9049999981653","<p style=""color:white;""> Next Figure: Male or Female? </p>","188","html-keyboard-response","497","1225662","0.0-19.0-0.23","prediction","","","",",",""
"null","<div style=""color:white; font-size:60px;"">+</div>","null","html-keyboard-response","498","1226663","0.0-19.0-1.23","fixation","","","","",""
"574.0250000089873","Stimuli/Hangul_F1.bmp","190","image-keyboard-response","499","1227238","0.0-19.0-2.23","c2_test",".","","","","."
"479.38999999314547","<p style=""color:white;""> Next Figure: Male or Female? </p>","188","html-keyboard-response","500","1227718","0.0-19.0-0.24","prediction","","","",",",""
"null","<div style=""color:white; font-size:60px;"">+</div>","null","html-keyboard-response","501","1228719","0.0-19.0-1.24","fixation","","","","",""
"693.8649999792688","Stimuli/Hangul_M1.bmp","188","image-keyboard-response","502","1229414","0.0-19.0-2.24","c2_test",",","","","",","
"879.5849999878556","<p style=""color:white;""> Next Figure: Male or Female? </p>","188","html-keyboard-response","503","1230294","0.0-19.0-0.25","prediction","","","",",",""
"null","<div style=""color:white; font-size:60px;"">+</div>","null","html-keyboard-response","504","1231295","0.0-19.0-1.25","fixation","","","","",""
"541.9400000246242","Stimuli/Hangul_M10.bmp","188","image-keyboard-response","505","1231838","0.0-19.0-2.25","c2_test",",","","","",","
"623.3549999888055","<p style=""color:white;""> Next Figure: Male or Female? </p>","190","html-keyboard-response","506","1232462","0.0-19.0-0.26","prediction","","","",".",""
"null","<div style=""color:white; font-size:60px;"">+</div>","null","html-keyboard-response","507","1233463","0.0-19.0-1.26","fixation","","","","",""
"710.7950000208803","Stimuli/Hangul_M5.bmp","188","image-keyboard-response","508","1234174","0.0-19.0-2.26","c2_test",",","","","",","
"839.3550000037067","<p style=""color:white;""> Next Figure: Male or Female? </p>","190","html-keyboard-response","509","1235014","0.0-19.0-0.27","prediction","","","",".",""
"null","<div style=""color:white; font-size:60px;"">+</div>","null","html-keyboard-response","510","1236015","0.0-19.0-1.27","fixation","","","","",""
"936.8000000249594","Stimuli/Hangul_M0.bmp","190","image-keyboard-response","511","1236953","0.0-19.0-2.27","c2_test",",","","","","."
"597.1900000004098","<p style=""color:white;""> Next Figure: Male or Female? </p>","188","html-keyboard-response","512","1237550","0.0-19.0-0.28","prediction","","","",",",""
"null","<div style=""color:white; font-size:60px;"">+</div>","null","html-keyboard-response","513","1238551","0.0-19.0-1.28","fixation","","","","",""
"350.86999999475665","Stimuli/Hangul_F12.bmp","188","image-keyboard-response","514","1238902","0.0-19.0-2.28","c2_test",".","","","",","
"511.39500000863336","<p style=""color:white;""> Next Figure: Male or Female? </p>","190","html-keyboard-response","515","1239414","0.0-19.0-0.29","prediction","","","",".",""
"null","<div style=""color:white; font-size:60px;"">+</div>","null","html-keyboard-response","516","1240416","0.0-19.0-1.29","fixation","","","","",""
"926.0249999933876","Stimuli/Hangul_M17.bmp","188","image-keyboard-response","517","1241342","0.0-19.0-2.29","c2_test",",","","","",","
"527.0500000042375","<p style=""color:white;""> Next Figure: Male or Female? </p>","190","html-keyboard-response","518","1241870","0.0-19.0-0.30","prediction","","","",".",""
"null","<div style=""color:white; font-size:60px;"">+</div>","null","html-keyboard-response","519","1242872","0.0-19.0-1.30","fixation","","","","",""
"429.8899999994319","Stimuli/Hangul_F14.bmp","190","image-keyboard-response","520","1243303","0.0-19.0-2.30","c2_test",".","","","","."
"895.1550000056159","<p style=""color:white;""> Next Figure: Male or Female? </p>","188","html-keyboard-response","521","1244198","0.0-19.0-0.31","prediction","","","",",",""
"null","<div style=""color:white; font-size:60px;"">+</div>","null","html-keyboard-response","522","1245199","0.0-19.0-1.31","fixation","","","","",""
"590.7200000074226","Stimuli/Hangul_M4.bmp","188","image-keyboard-response","523","1245791","0.0-19.0-2.31","c2_test",",","","","",","
"631.6050000023097","<p style=""color:white;""> Next Figure: Male or Female? </p>","190","html-keyboard-response","524","1246423","0.0-19.0-0.32","prediction","","","",".",""
"null","<div style=""color:white; font-size:60px;"">+</div>","null","html-keyboard-response","525","1247424","0.0-19.0-1.32","fixation","","","","",""
"1032.9250000067987","Stimuli/Hangul_M9.bmp","188","image-keyboard-response","526","1248457","0.0-19.0-2.32","c2_test",",","","","",","
"653.024999977788","<p style=""color:white;""> Next Figure: Male or Female? </p>","188","html-keyboard-response","527","1249111","0.0-19.0-0.33","prediction","","","",",",""
"null","<div style=""color:white; font-size:60px;"">+</div>","null","html-keyboard-response","528","1250112","0.0-19.0-1.33","fixation","","","","",""
"621.8100000114646","Stimuli/Hangul_F9.bmp","188","image-keyboard-response","529","1250735","0.0-19.0-2.33","c2_test",".","","","",","
"615.4249999963213","<p style=""color:white;""> Next Figure: Male or Female? </p>","188","html-keyboard-response","530","1251351","0.0-19.0-0.34","prediction","","","",",",""
"null","<div style=""color:white; font-size:60px;"">+</div>","null","html-keyboard-response","531","1252352","0.0-19.0-1.34","fixation","","","","",""
"438.64000000758097","Stimuli/Hangul_F3.bmp","188","image-keyboard-response","532","1252791","0.0-19.0-2.34","c2_test",".","","","",","
"423.3700000040699","<p style=""color:white;""> Next Figure: Male or Female? </p>","188","html-keyboard-response","533","1253215","0.0-19.0-0.35","prediction","","","",",",""
"null","<div style=""color:white; font-size:60px;"">+</div>","null","html-keyboard-response","534","1254216","0.0-19.0-1.35","fixation","","","","",""
"694.9449999956414","Stimuli/Hangul_M24.bmp","188","image-keyboard-response","535","1254911","0.0-19.0-2.35","c2_test",",","","","",","
"367.32000001939014","<p style=""color:white;""> Next Figure: Male or Female? </p>","190","html-keyboard-response","536","1255279","0.0-19.0-0.36","prediction","","","",".",""
"null","<div style=""color:white; font-size:60px;"">+</div>","null","html-keyboard-response","537","1256281","0.0-19.0-1.36","fixation","","","","",""
"621.9200000050478","Stimuli/Hangul_F24.bmp","188","image-keyboard-response","538","1256903","0.0-19.0-2.36","c2_test",".","","","",","
"751.2099999876227","<p style=""color:white;""> Next Figure: Male or Female? </p>","190","html-keyboard-response","539","1257655","0.0-19.0-0.37","prediction","","","",".",""
"null","<div style=""color:white; font-size:60px;"">+</div>","null","html-keyboard-response","540","1258658","0.0-19.0-1.37","fixation","","","","",""
"711.5599999960978","Stimuli/Hangul_F19.bmp","188","image-keyboard-response","541","1259370","0.0-19.0-2.37","c2_test",".","","","",","
"372.9100000055041","<p style=""color:white;""> Next Figure: Male or Female? </p>","190","html-keyboard-response","542","1259743","0.0-19.0-0.38","prediction","","","",".",""
"null","<div style=""color:white; font-size:60px;"">+</div>","null","html-keyboard-response","543","1260745","0.0-19.0-1.38","fixation","","","","",""
"653.9700000139419","Stimuli/Hangul_F13.bmp","188","image-keyboard-response","544","1261399","0.0-19.0-2.38","c2_test",".","","","",","
"839.6000000066124","<p style=""color:white;""> Next Figure: Male or Female? </p>","188","html-keyboard-response","545","1262240","0.0-19.0-0.39","prediction","","","",",",""
"null","<div style=""color:white; font-size:60px;"">+</div>","null","html-keyboard-response","546","1263241","0.0-19.0-1.39","fixation","","","","",""
"406.1400000064168","Stimuli/Hangul_M6.bmp","188","image-keyboard-response","547","1263647","0.0-19.0-2.39","c2_test",",","","","",","
"279.47999999742024","<p style=""color:white;""> Next Figure: Male or Female? </p>","188","html-keyboard-response","548","1263927","0.0-19.0-0.40","prediction","","","",",",""
"null","<div style=""color:white; font-size:60px;"">+</div>","null","html-keyboard-response","549","1264928","0.0-19.0-1.40","fixation","","","","",""
"502.65999999828637","Stimuli/Hangul_F6.bmp","188","image-keyboard-response","550","1265431","0.0-19.0-2.40","c2_test",".","","","",","
"791.3399999961257","<p style=""color:white;""> Next Figure: Male or Female? </p>","190","html-keyboard-response","551","1266224","0.0-19.0-0.41","prediction","","","",".",""
"null","<div style=""color:white; font-size:60px;"">+</div>","null","html-keyboard-response","552","1267225","0.0-19.0-1.41","fixation","","","","",""
"678.0200000212062","Stimuli/Hangul_M18.bmp","188","image-keyboard-response","553","1267904","0.0-19.0-2.41","c2_test",",","","","",","
"503.20999999530613","<p style=""color:white;""> Next Figure: Male or Female? </p>","190","html-keyboard-response","554","1268408","0.0-19.0-0.42","prediction","","","",".",""
"null","<div style=""color:white; font-size:60px;"">+</div>","null","html-keyboard-response","555","1269410","0.0-19.0-1.42","fixation","","","","",""
"528.070000000298","Stimuli/Hangul_M12.bmp","190","image-keyboard-response","556","1269938","0.0-19.0-2.42","c2_test",",","","","","."
"516.8150000099558","<p style=""color:white;""> Next Figure: Male or Female? </p>","188","html-keyboard-response","557","1270456","0.0-19.0-0.43","prediction","","","",",",""
"null","<div style=""color:white; font-size:60px;"">+</div>","null","html-keyboard-response","558","1271457","0.0-19.0-1.43","fixation","","","","",""
"582.5199999962933","Stimuli/Hangul_M14.bmp","188","image-keyboard-response","559","1272040","0.0-19.0-2.43","c2_test",",","","","",","
"1303.524999995716","<p style=""color:white;""> Next Figure: Male or Female? </p>","190","html-keyboard-response","560","1273344","0.0-19.0-0.44","prediction","","","",".",""
"null","<div style=""color:white; font-size:60px;"">+</div>","null","html-keyboard-response","561","1274345","0.0-19.0-1.44","fixation","","","","",""
"1093.460000003688","Stimuli/Hangul_M20.bmp","188","image-keyboard-response","562","1275440","0.0-19.0-2.44","c2_test",",","","","",","
"591.7250000056811","<p style=""color:white;""> Next Figure: Male or Female? </p>","188","html-keyboard-response","563","1276032","0.0-19.0-0.45","prediction","","","",",",""
"null","<div style=""color:white; font-size:60px;"">+</div>","null","html-keyboard-response","564","1277033","0.0-19.0-1.45","fixation","","","","",""
"470.48499999800697","Stimuli/Hangul_M7.bmp","188","image-keyboard-response","565","1277504","0.0-19.0-2.45","c2_test",",","","","",","
"303.42000001110137","<p style=""color:white;""> Next Figure: Male or Female? </p>","188","html-keyboard-response","566","1277808","0.0-19.0-0.46","prediction","","","",",",""
"null","<div style=""color:white; font-size:60px;"">+</div>","null","html-keyboard-response","567","1278810","0.0-19.0-1.46","fixation","","","","",""
"582.2650000045542","Stimuli/Hangul_F5.bmp","188","image-keyboard-response","568","1279392","0.0-19.0-2.46","c2_test",".","","","",","
"447.2599999862723","<p style=""color:white;""> Next Figure: Male or Female? </p>","190","html-keyboard-response","569","1279840","0.0-19.0-0.47","prediction","","","",".",""
"null","<div style=""color:white; font-size:60px;"">+</div>","null","html-keyboard-response","570","1280842","0.0-19.0-1.47","fixation","","","","",""
"776.2100000109058","Stimuli/Hangul_M21.bmp","188","image-keyboard-response","571","1281619","0.0-19.0-2.47","c2_test",",","","","",","
"860.9849999775179","<p style=""color:white;""> Next Figure: Male or Female? </p>","190","html-keyboard-response","572","1282481","0.0-19.0-0.48","prediction","","","",".",""
"null","<div style=""color:white; font-size:60px;"">+</div>","null","html-keyboard-response","573","1283482","0.0-19.0-1.48","fixation","","","","",""
"622.1500000101514","Stimuli/Hangul_M3.bmp","188","image-keyboard-response","574","1284105","0.0-19.0-2.48","c2_test",",","","","",","
"407.3649999918416","<p style=""color:white;""> Next Figure: Male or Female? </p>","188","html-keyboard-response","575","1284513","0.0-19.0-0.49","prediction","","","",",",""
"null","<div style=""color:white; font-size:60px;"">+</div>","null","html-keyboard-response","576","1285513","0.0-19.0-1.49","fixation","","","","",""
"478.7500000093132","Stimuli/Hangul_M16.bmp","188","image-keyboard-response","577","1285993","0.0-19.0-2.49","c2_test",",","","","",","
"564461.2099999795","<p style=""color:white;"">Good job, block 1 complete! Please take a moment to rest.</p> <p style=""color:white;"">When you are ready to continue with block 2 of 4, press the space bar.</p> ","32","html-keyboard-response","578","1850454","0.0-20.0","","","","","",""
"1207.090000010794","<p style=""color:white;""> Next Figure: Male or Female? </p>","188","html-keyboard-response","579","1853662","0.0-21.0-0.0","prediction","","","",",",""
"null","<div style=""color:white; font-size:60px;"">+</div>","null","html-keyboard-response","580","1854663","0.0-21.0-1.0","fixation","","","","",""
"758.6749999900348","Stimuli/Hangul_F28.bmp","188","image-keyboard-response","581","1855422","0.0-21.0-2.0","c2_test",".","","","",","
"815.4600000125356","<p style=""color:white;""> Next Figure: Male or Female? </p>","190","html-keyboard-response","582","1856238","0.0-21.0-0.1","prediction","","","",".",""
"null","<div style=""color:white; font-size:60px;"">+</div>","null","html-keyboard-response","583","1857240","0.0-21.0-1.1","fixation","","","","",""
"557.7349999803118","Stimuli/Hangul_F29.bmp","190","image-keyboard-response","584","1857798","0.0-21.0-2.1","c2_test",".","","","","."
"697.5300000049174","<p style=""color:white;""> Next Figure: Male or Female? </p>","190","html-keyboard-response","585","1858497","0.0-21.0-0.2","prediction","","","",".",""
"null","<div style=""color:white; font-size:60px;"">+</div>","null","html-keyboard-response","586","1859498","0.0-21.0-1.2","fixation","","","","",""
"1011.7550000140909","Stimuli/Hangul_F48.bmp","188","image-keyboard-response","587","1860510","0.0-21.0-2.2","c2_test",".","","","",","
"895.4450000019278","<p style=""color:white;""> Next Figure: Male or Female? </p>","190","html-keyboard-response","588","1861406","0.0-21.0-0.3","prediction","","","",".",""
"null","<div style=""color:white; font-size:60px;"">+</div>","null","html-keyboard-response","589","1862407","0.0-21.0-1.3","fixation","","","","",""
"702.4450000026263","Stimuli/Hangul_M43.bmp","188","image-keyboard-response","590","1863111","0.0-21.0-2.3","c2_test",",","","","",","
"527.4499999941327","<p style=""color:white;""> Next Figure: Male or Female? </p>","188","html-keyboard-response","591","1863639","0.0-21.0-0.4","prediction","","","",",",""
"null","<div style=""color:white; font-size:60px;"">+</div>","null","html-keyboard-response","592","1864640","0.0-21.0-1.4","fixation","","","","",""
"486.16000000038184","Stimuli/Hangul_F41.bmp","188","image-keyboard-response","593","1865127","0.0-21.0-2.4","c2_test",".","","","",","
"431.45999999251217","<p style=""color:white;""> Next Figure: Male or Female? </p>","190","html-keyboard-response","594","1865559","0.0-21.0-0.5","prediction","","","",".",""
"null","<div style=""color:white; font-size:60px;"">+</div>","null","html-keyboard-response","595","1866561","0.0-21.0-1.5","fixation","","","","",""
"717.4449999874923","Stimuli/Hangul_M28.bmp","188","image-keyboard-response","596","1867279","0.0-21.0-2.5","c2_test",",","","","",","
"527.0699999819044","<p style=""color:white;""> Next Figure: Male or Female? </p>","188","html-keyboard-response","597","1867807","0.0-21.0-0.6","prediction","","","",",",""
"null","<div style=""color:white; font-size:60px;"">+</div>","null","html-keyboard-response","598","1868809","0.0-21.0-1.6","fixation","","","","",""
"591.8050000036601","Stimuli/Hangul_F26.bmp","188","image-keyboard-response","599","1869401","0.0-21.0-2.6","c2_test",".","","","",","
"404.96499999426305","<p style=""color:white;""> Next Figure: Male or Female? </p>","190","html-keyboard-response","600","1869807","0.0-21.0-0.7","prediction","","","",".",""
"null","<div style=""color:white; font-size:60px;"">+</div>","null","html-keyboard-response","601","1870809","0.0-21.0-1.7","fixation","","","","",""
"509.8700000089593","Stimuli/Hangul_F33.bmp","190","image-keyboard-response","602","1871319","0.0-21.0-2.7","c2_test",".","","","","."
"1343.4249999991152","<p style=""color:white;""> Next Figure: Male or Female? </p>","188","html-keyboard-response","603","1872663","0.0-21.0-0.8","prediction","","","",",",""
"null","<div style=""color:white; font-size:60px;"">+</div>","null","html-keyboard-response","604","1873664","0.0-21.0-1.8","fixation","","","","",""
"454.5550000038929","Stimuli/Hangul_M25.bmp","188","image-keyboard-response","605","1874119","0.0-21.0-2.8","c2_test",",","","","",","
"351.43999999854714","<p style=""color:white;""> Next Figure: Male or Female? </p>","188","html-keyboard-response","606","1874471","0.0-21.0-0.9","prediction","","","",",",""
"null","<div style=""color:white; font-size:60px;"">+</div>","null","html-keyboard-response","607","1875472","0.0-21.0-1.9","fixation","","","","",""
"494.73000000580214","Stimuli/Hangul_M30.bmp","188","image-keyboard-response","608","1875967","0.0-21.0-2.9","c2_test",",","","","",","
"239.47000000043772","<p style=""color:white;""> Next Figure: Male or Female? </p>","188","html-keyboard-response","609","1876207","0.0-21.0-0.10","prediction","","","",",",""
"null","<div style=""color:white; font-size:60px;"">+</div>","null","html-keyboard-response","610","1877208","0.0-21.0-1.10","fixation","","","","",""
"582.2450000268873","Stimuli/Hangul_F36.bmp","188","image-keyboard-response","611","1877791","0.0-21.0-2.10","c2_test",".","","","",","
"311.3949999969918","<p style=""color:white;""> Next Figure: Male or Female? </p>","188","html-keyboard-response","612","1878103","0.0-21.0-0.11","prediction","","","",",",""
"null","<div style=""color:white; font-size:60px;"">+</div>","null","html-keyboard-response","613","1879104","0.0-21.0-1.11","fixation","","","","",""
"545.1649999886286","Stimuli/Hangul_F35.bmp","190","image-keyboard-response","614","1879650","0.0-21.0-2.11","c2_test",".","","","","."
"780.945000005886","<p style=""color:white;""> Next Figure: Male or Female? </p>","190","html-keyboard-response","615","1880432","0.0-21.0-0.12","prediction","","","",".",""
"null","<div style=""color:white; font-size:60px;"">+</div>","null","html-keyboard-response","616","1881433","0.0-21.0-1.12","fixation","","","","",""
"638.4550000075251","Stimuli/Hangul_M32.bmp","188","image-keyboard-response","617","1882072","0.0-21.0-2.12","c2_test",",","","","",","
"1599.450000008801","<p style=""color:white;""> Next Figure: Male or Female? </p>","188","html-keyboard-response","618","1883672","0.0-21.0-0.13","prediction","","","",",",""
"null","<div style=""color:white; font-size:60px;"">+</div>","null","html-keyboard-response","619","1884672","0.0-21.0-1.13","fixation","","","","",""
"598.7350000068545","Stimuli/Hangul_M37.bmp","188","image-keyboard-response","620","1885272","0.0-21.0-2.13","c2_test",",","","","",","
"543.3699999994133","<p style=""color:white;""> Next Figure: Male or Female? </p>","190","html-keyboard-response","621","1885816","0.0-21.0-0.14","prediction","","","",".",""
"null","<div style=""color:white; font-size:60px;"">+</div>","null","html-keyboard-response","622","1886817","0.0-21.0-1.14","fixation","","","","",""
"742.5400000065565","Stimuli/Hangul_F27.bmp","188","image-keyboard-response","623","1887560","0.0-21.0-2.14","c2_test",".","","","",","
"575.1849999942351","<p style=""color:white;""> Next Figure: Male or Female? </p>","190","html-keyboard-response","624","1888136","0.0-21.0-0.15","prediction","","","",".",""
"null","<div style=""color:white; font-size:60px;"">+</div>","null","html-keyboard-response","625","1889137","0.0-21.0-1.15","fixation","","","","",""
"1665.0200000149198","Stimuli/Hangul_F47.bmp","190","image-keyboard-response","626","1890802","0.0-21.0-2.15","c2_test",".","","","","."
"357.0599999802653","<p style=""color:white;""> Next Figure: Male or Female? </p>","188","html-keyboard-response","627","1891160","0.0-21.0-0.16","prediction","","","",",",""
"null","<div style=""color:white; font-size:60px;"">+</div>","null","html-keyboard-response","628","1892162","0.0-21.0-1.16","fixation","","","","",""
"653.8699999800883","Stimuli/Hangul_F30.bmp","190","image-keyboard-response","629","1892816","0.0-21.0-2.16","c2_test",".","","","","."
"575.4299999971408","<p style=""color:white;""> Next Figure: Male or Female? </p>","188","html-keyboard-response","630","1893392","0.0-21.0-0.17","prediction","","","",",",""
"null","<div style=""color:white; font-size:60px;"">+</div>","null","html-keyboard-response","631","1894394","0.0-21.0-1.17","fixation","","","","",""
"470.050000003539","Stimuli/Hangul_M48.bmp","188","image-keyboard-response","632","1894864","0.0-21.0-2.17","c2_test",",","","","",","
"327.2900000156369","<p style=""color:white;""> Next Figure: Male or Female? </p>","190","html-keyboard-response","633","1895192","0.0-21.0-0.18","prediction","","","",".",""
"null","<div style=""color:white; font-size:60px;"">+</div>","null","html-keyboard-response","634","1896194","0.0-21.0-1.18","fixation","","","","",""
"854.349999979604","Stimuli/Hangul_M31.bmp","188","image-keyboard-response","635","1897048","0.0-21.0-2.18","c2_test",",","","","",","
"343.35000001010485","<p style=""color:white;""> Next Figure: Male or Female? </p>","190","html-keyboard-response","636","1897392","0.0-21.0-0.19","prediction","","","",".",""
"null","<div style=""color:white; font-size:60px;"">+</div>","null","html-keyboard-response","637","1898394","0.0-21.0-1.19","fixation","","","","",""
"790.1850000198465","Stimuli/Hangul_M42.bmp","188","image-keyboard-response","638","1899185","0.0-21.0-2.19","c2_test",",","","","",","
"423.31499999272637","<p style=""color:white;""> Next Figure: Male or Female? </p>","188","html-keyboard-response","639","1899609","0.0-21.0-0.20","prediction","","","",",",""
"null","<div style=""color:white; font-size:60px;"">+</div>","null","html-keyboard-response","640","1900609","0.0-21.0-1.20","fixation","","","","",""
"553.1100000080187","Stimuli/Hangul_F39.bmp","190","image-keyboard-response","641","1901163","0.0-21.0-2.20","c2_test",".","","","","."
"452.96999998390675","<p style=""color:white;""> Next Figure: Male or Female? </p>","188","html-keyboard-response","642","1901617","0.0-21.0-0.21","prediction","","","",",",""
"null","<div style=""color:white; font-size:60px;"">+</div>","null","html-keyboard-response","643","1902618","0.0-21.0-1.21","fixation","","","","",""
"486.3550000009127","Stimuli/Hangul_M39.bmp","188","image-keyboard-response","644","1903105","0.0-21.0-2.21","c2_test",",","","","",","
"247.27500000153668","<p style=""color:white;""> Next Figure: Male or Female? </p>","188","html-keyboard-response","645","1903353","0.0-21.0-0.22","prediction","","","",",",""
"null","<div style=""color:white; font-size:60px;"">+</div>","null","html-keyboard-response","646","1904354","0.0-21.0-1.22","fixation","","","","",""
"494.0049999859184","Stimuli/Hangul_M49.bmp","188","image-keyboard-response","647","1904849","0.0-21.0-2.22","c2_test",",","","","",","
"311.36500000138767","<p style=""color:white;""> Next Figure: Male or Female? </p>","190","html-keyboard-response","648","1905161","0.0-21.0-0.23","prediction","","","",".",""
"null","<div style=""color:white; font-size:60px;"">+</div>","null","html-keyboard-response","649","1906162","0.0-21.0-1.23","fixation","","","","",""
"1190.470000001369","Stimuli/Hangul_M41.bmp","188","image-keyboard-response","650","1907353","0.0-21.0-2.23","c2_test",",","","","",","
"431.4349999767728","<p style=""color:white;""> Next Figure: Male or Female? </p>","190","html-keyboard-response","651","1907785","0.0-21.0-0.24","prediction","","","",".",""
"null","<div style=""color:white; font-size:60px;"">+</div>","null","html-keyboard-response","652","1908787","0.0-21.0-1.24","fixation","","","","",""
"1318.5649999941234","Stimuli/Hangul_F40.bmp","190","image-keyboard-response","653","1910106","0.0-21.0-2.24","c2_test",".","","","","."
"383.56999997631647","<p style=""color:white;""> Next Figure: Male or Female? </p>","188","html-keyboard-response","654","1910490","0.0-21.0-0.25","prediction","","","",",",""
"null","<div style=""color:white; font-size:60px;"">+</div>","null","html-keyboard-response","655","1911491","0.0-21.0-1.25","fixation","","","","",""
