"rt","stimulus","key_press","trial_type","trial_index","time_elapsed","internal_node_id","test_part","correct_response","C1_train","C1","A","C2"
"2202.7600002475083","<p style=""color:white;"">Welcome to the experiment! Press any key to begin.</p>","68","html-keyboard-response","0","2212","0.0-0.0","","","","","",""
"24597.635000012815","<p style=""color:white;"">You will see a series of abstract figures. They are adaptations of signs in the Korean alphabet, but that is not important for this study. </p><p style=""color:white;"">Abstract figures sometimes have a more masculine or feminine shape. Here, each figure has already been assigned a gender as <q>Male</q> or <q>Female</q> by a panel of respondents in a pilot study. The respondents were not given specific instructions on how to do this, but were only told to use their intuition and to take into account the entire configuration of the stimulus. </p><p style=""color:white;"">Your task now is to guess the assigned gender of each figure. Please press the corresponding response keys to indicate your choice: </p><p style=""color:white;""> Male &#8594 <q>,</q> (comma)</p><p style=""color:white;""> Female &#8594 <q>.</q> (period)</p><p style=""color:white;"">Press either response keys to continue.</p>","188","html-keyboard-response","1","26812","0.0-1.0","","","","","",""
"15267.329999711365","<p style=""color:white;"">Your choice is correct if it matches the gender assigned by the majority of respondents in the pilot study.</p> <p style=""color:white;"">For each correct choice you will receive 2 cents. There will be 200 trials divided into 4 blocks of 50 trials. You will be able to take a break after every 50 trials.</p> <p style=""color:white;"">Press the space bar to continue.</p>","32","html-keyboard-response","2","42080","0.0-2.0","","","","","",""
"5017.740000039339","<p style=""color:white;"">Here are some examples.</p> <p style=""color:white;"">For each, guess whether the assigned figure is male-like or female-like and indicate your choice by pressing either response keys.</p> <p style=""color:white;"">Press the space bar to continue.</p>","32","html-keyboard-response","3","47099","0.0-3.0","","","","","",""
"null","<div style=""color:white; font-size:60px;"">+</div>","null","html-keyboard-response","4","50103","0.0-4.0-0.0","fixation","","","","",""
"2758.9750001206994","Stimuli/Hangul_E0.bmp","188","image-keyboard-response","5","52864","0.0-4.0-1.0","c1_train",",",",","","",""
"null","<div style=""color:white; font-size:60px;"">+</div>","null","html-keyboard-response","6","53867","0.0-4.0-0.1","fixation","","","","",""
"1587.4799997545779","Stimuli/Hangul_E2.bmp","188","image-keyboard-response","7","55455","0.0-4.0-1.1","c1_train",".",",","","",""
"null","<div style=""color:white; font-size:60px;"">+</div>","null","html-keyboard-response","8","56457","0.0-4.0-0.2","fixation","","","","",""
"2027.9350001364946","Stimuli/Hangul_E1.bmp","190","image-keyboard-response","9","58486","0.0-4.0-1.2","c1_train",",",".","","",""
"7478.374999947846","<p style=""color:white;"">Let us begin! Press the space bar when you are ready to start block 1 of 4.</p> ","32","html-keyboard-response","10","65966","0.0-5.0","","","","","",""
"null","<div style=""color:white; font-size:60px;"">+</div>","null","html-keyboard-response","11","68970","0.0-6.0-0.0","fixation","","","","",""
"1598.5650001093745","Stimuli/Hangul_M14.bmp","190","image-keyboard-response","12","70570","0.0-6.0-1.0","test",",","",".","",""
"null","<div style=""color:white; font-size:60px;"">+</div>","null","html-keyboard-response","13","71572","0.0-6.0-0.1","fixation","","","","",""
"2274.7550001367927","Stimuli/Hangul_M7.bmp","188","image-keyboard-response","14","73848","0.0-6.0-1.1","test",",","",",","",""
"null","<div style=""color:white; font-size:60px;"">+</div>","null","html-keyboard-response","15","74850","0.0-6.0-0.2","fixation","","","","",""
"2404.225000180304","Stimuli/Hangul_M24.bmp","190","image-keyboard-response","16","77256","0.0-6.0-1.2","test",",","",".","",""
"null","<div style=""color:white; font-size:60px;"">+</div>","null","html-keyboard-response","17","78258","0.0-6.0-0.3","fixation","","","","",""
"2181.485000066459","Stimuli/Hangul_F8.bmp","190","image-keyboard-response","18","80441","0.0-6.0-1.3","test",".","",".","",""
"null","<div style=""color:white; font-size:60px;"">+</div>","null","html-keyboard-response","19","81444","0.0-6.0-0.4","fixation","","","","",""
"2299.514999613166","Stimuli/Hangul_F14.bmp","188","image-keyboard-response","20","83744","0.0-6.0-1.4","test",".","",",","",""
"null","<div style=""color:white; font-size:60px;"">+</div>","null","html-keyboard-response","21","84747","0.0-6.0-0.5","fixation","","","","",""
"2273.534999694675","Stimuli/Hangul_M11.bmp","188","image-keyboard-response","22","87021","0.0-6.0-1.5","test",",","",",","",""
"null","<div style=""color:white; font-size:60px;"">+</div>","null","html-keyboard-response","23","88023","0.0-6.0-0.6","fixation","","","","",""
"1907.5299999676645","Stimuli/Hangul_M2.bmp","190","image-keyboard-response","24","89932","0.0-6.0-1.6","test",",","",".","",""
"null","<div style=""color:white; font-size:60px;"">+</div>","null","html-keyboard-response","25","90935","0.0-6.0-0.7","fixation","","","","",""
"2043.8400004059076","Stimuli/Hangul_M22.bmp","190","image-keyboard-response","26","92980","0.0-6.0-1.7","test",",","",".","",""
"null","<div style=""color:white; font-size:60px;"">+</div>","null","html-keyboard-response","27","93982","0.0-6.0-0.8","fixation","","","","",""
"1887.9099995829165","Stimuli/Hangul_F0.bmp","190","image-keyboard-response","28","95871","0.0-6.0-1.8","test",".","",".","",""
"null","<div style=""color:white; font-size:60px;"">+</div>","null","html-keyboard-response","29","96874","0.0-6.0-0.9","fixation","","","","",""
"1927.6600000448525","Stimuli/Hangul_M15.bmp","190","image-keyboard-response","30","98803","0.0-6.0-1.9","test",",","",".","",""
"null","<div style=""color:white; font-size:60px;"">+</div>","null","html-keyboard-response","31","99806","0.0-6.0-0.10","fixation","","","","",""
"1552.7299996465445","Stimuli/Hangul_F13.bmp","190","image-keyboard-response","32","101359","0.0-6.0-1.10","test",".","",".","",""
"null","<div style=""color:white; font-size:60px;"">+</div>","null","html-keyboard-response","33","102362","0.0-6.0-0.11","fixation","","","","",""
"2291.394999716431","Stimuli/Hangul_F9.bmp","188","image-keyboard-response","34","104654","0.0-6.0-1.11","test",".","",",","",""
"null","<div style=""color:white; font-size:60px;"">+</div>","null","html-keyboard-response","35","105656","0.0-6.0-0.12","fixation","","","","",""
"1677.1999998018146","Stimuli/Hangul_M10.bmp","190","image-keyboard-response","36","107334","0.0-6.0-1.12","test",",","",".","",""
"null","<div style=""color:white; font-size:60px;"">+</div>","null","html-keyboard-response","37","108337","0.0-6.0-0.13","fixation","","","","",""
"2219.629999715835","Stimuli/Hangul_F6.bmp","188","image-keyboard-response","38","110557","0.0-6.0-1.13","test",".","",",","",""
"null","<div style=""color:white; font-size:60px;"">+</div>","null","html-keyboard-response","39","111559","0.0-6.0-0.14","fixation","","","","",""
"2481.7849998362362","Stimuli/Hangul_F12.bmp","188","image-keyboard-response","40","114042","0.0-6.0-1.14","test",".","",",","",""
"null","<div style=""color:white; font-size:60px;"">+</div>","null","html-keyboard-response","41","115045","0.0-6.0-0.15","fixation","","","","",""
"1645.1799999922514","Stimuli/Hangul_F22.bmp","188","image-keyboard-response","42","116691","0.0-6.0-1.15","test",".","",",","",""
"null","<div style=""color:white; font-size:60px;"">+</div>","null","html-keyboard-response","43","117693","0.0-6.0-0.16","fixation","","","","",""
"1422.3699998110533","Stimuli/Hangul_M19.bmp","190","image-keyboard-response","44","119116","0.0-6.0-1.16","test",",","",".","",""
"null","<div style=""color:white; font-size:60px;"">+</div>","null","html-keyboard-response","45","120120","0.0-6.0-0.17","fixation","","","","",""
"2170.98500020802","Stimuli/Hangul_F17.bmp","188","image-keyboard-response","46","122292","0.0-6.0-1.17","test",".","",",","",""
"null","<div style=""color:white; font-size:60px;"">+</div>","null","html-keyboard-response","47","123294","0.0-6.0-0.18","fixation","","","","",""
"2289.7700001485646","Stimuli/Hangul_F7.bmp","188","image-keyboard-response","48","125585","0.0-6.0-1.18","test",".","",",","",""
"null","<div style=""color:white; font-size:60px;"">+</div>","null","html-keyboard-response","49","126587","0.0-6.0-0.19","fixation","","","","",""
"2287.9149997606874","Stimuli/Hangul_F16.bmp","190","image-keyboard-response","50","128876","0.0-6.0-1.19","test",".","",".","",""
"null","<div style=""color:white; font-size:60px;"">+</div>","null","html-keyboard-response","51","129879","0.0-6.0-0.20","fixation","","","","",""
"2031.0049997642636","Stimuli/Hangul_M8.bmp","188","image-keyboard-response","52","131911","0.0-6.0-1.20","test",",","",",","",""
"null","<div style=""color:white; font-size:60px;"">+</div>","null","html-keyboard-response","53","132914","0.0-6.0-0.21","fixation","","","","",""
"2118.9649999141693","Stimuli/Hangul_F24.bmp","190","image-keyboard-response","54","135033","0.0-6.0-1.21","test",".","",".","",""
"null","<div style=""color:white; font-size:60px;"">+</div>","null","html-keyboard-response","55","136035","0.0-6.0-0.22","fixation","","","","",""
"1946.1099999025464","Stimuli/Hangul_F11.bmp","190","image-keyboard-response","56","137983","0.0-6.0-1.22","test",".","",".","",""
"null","<div style=""color:white; font-size:60px;"">+</div>","null","html-keyboard-response","57","138985","0.0-6.0-0.23","fixation","","","","",""
"1778.5050002858043","Stimuli/Hangul_F5.bmp","190","image-keyboard-response","58","140765","0.0-6.0-1.23","test",".","",".","",""
"null","<div style=""color:white; font-size:60px;"">+</div>","null","html-keyboard-response","59","141767","0.0-6.0-0.24","fixation","","","","",""
"779.1200000792742","Stimuli/Hangul_F19.bmp","188","image-keyboard-response","60","142547","0.0-6.0-1.24","test",".","",",","",""
"null","<div style=""color:white; font-size:60px;"">+</div>","null","html-keyboard-response","61","143550","0.0-6.0-0.25","fixation","","","","",""
"2018.704999703914","Stimuli/Hangul_M9.bmp","190","image-keyboard-response","62","145570","0.0-6.0-1.25","test",",","",".","",""
"null","<div style=""color:white; font-size:60px;"">+</div>","null","html-keyboard-response","63","146572","0.0-6.0-0.26","fixation","","","","",""
"1559.855000115931","Stimuli/Hangul_F15.bmp","190","image-keyboard-response","64","148133","0.0-6.0-1.26","test",".","",".","",""
"null","<div style=""color:white; font-size:60px;"">+</div>","null","html-keyboard-response","65","149135","0.0-6.0-0.27","fixation","","","","",""
"2063.6899997480214","Stimuli/Hangul_M4.bmp","188","image-keyboard-response","66","151200","0.0-6.0-1.27","test",",","",",","",""
"null","<div style=""color:white; font-size:60px;"">+</div>","null","html-keyboard-response","67","152202","0.0-6.0-0.28","fixation","","","","",""
"1422.6349997334182","Stimuli/Hangul_F2.bmp","188","image-keyboard-response","68","153625","0.0-6.0-1.28","test",".","",",","",""
"null","<div style=""color:white; font-size:60px;"">+</div>","null","html-keyboard-response","69","154628","0.0-6.0-0.29","fixation","","","","",""
"1367.7300000563264","Stimuli/Hangul_M18.bmp","188","image-keyboard-response","70","155996","0.0-6.0-1.29","test",",","",",","",""
"null","<div style=""color:white; font-size:60px;"">+</div>","null","html-keyboard-response","71","156998","0.0-6.0-0.30","fixation","","","","",""
"1447.5100003182888","Stimuli/Hangul_M23.bmp","190","image-keyboard-response","72","158446","0.0-6.0-1.30","test",",","",".","",""
"null","<div style=""color:white; font-size:60px;"">+</div>","null","html-keyboard-response","73","159449","0.0-6.0-0.31","fixation","","","","",""
"1562.3849998228252","Stimuli/Hangul_M3.bmp","188","image-keyboard-response","74","161012","0.0-6.0-1.31","test",",","",",","",""
"null","<div style=""color:white; font-size:60px;"">+</div>","null","html-keyboard-response","75","162015","0.0-6.0-0.32","fixation","","","","",""
"2336.4450000226498","Stimuli/Hangul_F10.bmp","188","image-keyboard-response","76","164352","0.0-6.0-1.32","test",".","",",","",""
"null","<div style=""color:white; font-size:60px;"">+</div>","null","html-keyboard-response","77","165354","0.0-6.0-0.33","fixation","","","","",""
"2234.094999730587","Stimuli/Hangul_F23.bmp","190","image-keyboard-response","78","167589","0.0-6.0-1.33","test",".","",".","",""
"null","<div style=""color:white; font-size:60px;"">+</div>","null","html-keyboard-response","79","168592","0.0-6.0-0.34","fixation","","","","",""
"1318.669999949634","Stimuli/Hangul_M6.bmp","190","image-keyboard-response","80","169912","0.0-6.0-1.34","test",",","",".","",""
"null","<div style=""color:white; font-size:60px;"">+</div>","null","html-keyboard-response","81","170914","0.0-6.0-0.35","fixation","","","","",""
"2335.9449999406934","Stimuli/Hangul_M21.bmp","188","image-keyboard-response","82","173251","0.0-6.0-1.35","test",",","",",","",""
"null","<div style=""color:white; font-size:60px;"">+</div>","null","html-keyboard-response","83","174253","0.0-6.0-0.36","fixation","","","","",""
"1863.4799998253584","Stimuli/Hangul_M12.bmp","190","image-keyboard-response","84","176118","0.0-6.0-1.36","test",",","",".","",""
"null","<div style=""color:white; font-size:60px;"">+</div>","null","html-keyboard-response","85","177121","0.0-6.0-0.37","fixation","","","","",""
"1952.8950001113117","Stimuli/Hangul_F21.bmp","188","image-keyboard-response","86","179075","0.0-6.0-1.37","test",".","",",","",""
"null","<div style=""color:white; font-size:60px;"">+</div>","null","html-keyboard-response","87","180077","0.0-6.0-0.38","fixation","","","","",""
"2172.10999969393","Stimuli/Hangul_M1.bmp","190","image-keyboard-response","88","182252","0.0-6.0-1.38","test",",","",".","",""
"null","<div style=""color:white; font-size:60px;"">+</div>","null","html-keyboard-response","89","183254","0.0-6.0-0.39","fixation","","","","",""
"1461.1549996770918","Stimuli/Hangul_F20.bmp","190","image-keyboard-response","90","184717","0.0-6.0-1.39","test",".","",".","",""
"null","<div style=""color:white; font-size:60px;"">+</div>","null","html-keyboard-response","91","185719","0.0-6.0-0.40","fixation","","","","",""
"1964.7399997338653","Stimuli/Hangul_F4.bmp","190","image-keyboard-response","92","187685","0.0-6.0-1.40","test",".","",".","",""
"null","<div style=""color:white; font-size:60px;"">+</div>","null","html-keyboard-response","93","188687","0.0-6.0-0.41","fixation","","","","",""
"1362.7499998547137","Stimuli/Hangul_M20.bmp","190","image-keyboard-response","94","190051","0.0-6.0-1.41","test",",","",".","",""
"null","<div style=""color:white; font-size:60px;"">+</div>","null","html-keyboard-response","95","191053","0.0-6.0-0.42","fixation","","","","",""
"1455.779999960214","Stimuli/Hangul_M17.bmp","190","image-keyboard-response","96","192510","0.0-6.0-1.42","test",",","",".","",""
"null","<div style=""color:white; font-size:60px;"">+</div>","null","html-keyboard-response","97","193512","0.0-6.0-0.43","fixation","","","","",""
"1231.835000216961","Stimuli/Hangul_M16.bmp","190","image-keyboard-response","98","194745","0.0-6.0-1.43","test",",","",".","",""
"null","<div style=""color:white; font-size:60px;"">+</div>","null","html-keyboard-response","99","195746","0.0-6.0-0.44","fixation","","","","",""
"1979.4649998657405","Stimuli/Hangul_M5.bmp","188","image-keyboard-response","100","197726","0.0-6.0-1.44","test",",","",",","",""
"null","<div style=""color:white; font-size:60px;"">+</div>","null","html-keyboard-response","101","198729","0.0-6.0-0.45","fixation","","","","",""
"1709.0050000697374","Stimuli/Hangul_F3.bmp","190","image-keyboard-response","102","200439","0.0-6.0-1.45","test",".","",".","",""
"null","<div style=""color:white; font-size:60px;"">+</div>","null","html-keyboard-response","103","201441","0.0-6.0-0.46","fixation","","","","",""
"1331.1049998737872","Stimuli/Hangul_M13.bmp","190","image-keyboard-response","104","202773","0.0-6.0-1.46","test",",","",".","",""
"null","<div style=""color:white; font-size:60px;"">+</div>","null","html-keyboard-response","105","203775","0.0-6.0-0.47","fixation","","","","",""
"2124.6599997393787","Stimuli/Hangul_F18.bmp","188","image-keyboard-response","106","205900","0.0-6.0-1.47","test",".","",",","",""
"null","<div style=""color:white; font-size:60px;"">+</div>","null","html-keyboard-response","107","206901","0.0-6.0-0.48","fixation","","","","",""
"2053.855000063777","Stimuli/Hangul_M0.bmp","188","image-keyboard-response","108","208956","0.0-6.0-1.48","test",",","",",","",""
"null","<div style=""color:white; font-size:60px;"">+</div>","null","html-keyboard-response","109","209957","0.0-6.0-0.49","fixation","","","","",""
"1976.5349999070168","Stimuli/Hangul_F1.bmp","188","image-keyboard-response","110","211935","0.0-6.0-1.49","test",".","",",","",""
"10630.040000192821","<p style=""color:white;"">Good job, block 1 complete! Please take a moment to rest.</p> <p style=""color:white;"">When you are ready to continue with block 2 of 4, press the space bar.</p> ","32","html-keyboard-response","111","222567","0.0-7.0","","","","","",""
"null","<div style=""color:white; font-size:60px;"">+</div>","null","html-keyboard-response","112","225571","0.0-8.0-0.0","fixation","","","","",""
"1786.6899999789894","Stimuli/Hangul_M29.bmp","188","image-keyboard-response","113","227359","0.0-8.0-1.0","test",",","",",","",""
"null","<div style=""color:white; font-size:60px;"">+</div>","null","html-keyboard-response","114","228361","0.0-8.0-0.1","fixation","","","","",""
"1239.5299999043345","Stimuli/Hangul_M34.bmp","190","image-keyboard-response","115","229601","0.0-8.0-1.1","test",",","",".","",""
"null","<div style=""color:white; font-size:60px;"">+</div>","null","html-keyboard-response","116","230604","0.0-8.0-0.2","fixation","","","","",""
"1972.439999692142","Stimuli/Hangul_M36.bmp","190","image-keyboard-response","117","232577","0.0-8.0-1.2","test",",","",".","",""
"null","<div style=""color:white; font-size:60px;"">+</div>","null","html-keyboard-response","118","233579","0.0-8.0-0.3","fixation","","","","",""
"1408.215000294149","Stimuli/Hangul_F32.bmp","190","image-keyboard-response","119","234989","0.0-8.0-1.3","test",".","",".","",""
"null","<div style=""color:white; font-size:60px;"">+</div>","null","html-keyboard-response","120","235990","0.0-8.0-0.4","fixation","","","","",""
"1455.7500001974404","Stimuli/Hangul_F47.bmp","188","image-keyboard-response","121","237447","0.0-8.0-1.4","test",".","",",","",""
"null","<div style=""color:white; font-size:60px;"">+</div>","null","html-keyboard-response","122","238450","0.0-8.0-0.5","fixation","","","","",""
"1580.9449995867908","Stimuli/Hangul_M38.bmp","190","image-keyboard-response","123","240032","0.0-8.0-1.5","test",",","",".","",""
"null","<div style=""color:white; font-size:60px;"">+</div>","null","html-keyboard-response","124","241033","0.0-8.0-0.6","fixation","","","","",""
"1411.0150001943111","Stimuli/Hangul_M44.bmp","190","image-keyboard-response","125","242445","0.0-8.0-1.6","test",",","",".","",""
"null","<div style=""color:white; font-size:60px;"">+</div>","null","html-keyboard-response","126","243447","0.0-8.0-0.7","fixation","","","","",""
"1922.9049999266863","Stimuli/Hangul_M46.bmp","190","image-keyboard-response","127","245371","0.0-8.0-1.7","test",",","",".","",""
"null","<div style=""color:white; font-size:60px;"">+</div>","null","html-keyboard-response","128","246373","0.0-8.0-0.8","fixation","","","","",""
"2411.3500001840293","Stimuli/Hangul_F45.bmp","188","image-keyboard-response","129","248785","0.0-8.0-1.8","test",".","",",","",""
"null","<div style=""color:white; font-size:60px;"">+</div>","null","html-keyboard-response","130","249788","0.0-8.0-0.9","fixation","","","","",""
"2323.714999947697","Stimuli/Hangul_F49.bmp","190","image-keyboard-response","131","252113","0.0-8.0-1.9","test",".","",".","",""
"null","<div style=""color:white; font-size:60px;"">+</div>","null","html-keyboard-response","132","253115","0.0-8.0-0.10","fixation","","","","",""
"1211.6499999538064","Stimuli/Hangul_M43.bmp","190","image-keyboard-response","133","254327","0.0-8.0-1.10","test",",","",".","",""
"null","<div style=""color:white; font-size:60px;"">+</div>","null","html-keyboard-response","134","255329","0.0-8.0-0.11","fixation","","","","",""
"1289.9850001558661","Stimuli/Hangul_M31.bmp","190","image-keyboard-response","135","256620","0.0-8.0-1.11","test",",","",".","",""
"null","<div style=""color:white; font-size:60px;"">+</div>","null","html-keyboard-response","136","257622","0.0-8.0-0.12","fixation","","","","",""
"1244.9500001966953","Stimuli/Hangul_F48.bmp","190","image-keyboard-response","137","258868","0.0-8.0-1.12","test",".","",".","",""
"null","<div style=""color:white; font-size:60px;"">+</div>","null","html-keyboard-response","138","259870","0.0-8.0-0.13","fixation","","","","",""
"1296.3149999268353","Stimuli/Hangul_M42.bmp","190","image-keyboard-response","139","261167","0.0-8.0-1.13","test",",","",".","",""
"null","<div style=""color:white; font-size:60px;"">+</div>","null","html-keyboard-response","140","262170","0.0-8.0-0.14","fixation","","","","",""
"1126.700000371784","Stimuli/Hangul_F31.bmp","190","image-keyboard-response","141","263297","0.0-8.0-1.14","test",".","",".","",""
"null","<div style=""color:white; font-size:60px;"">+</div>","null","html-keyboard-response","142","264300","0.0-8.0-0.15","fixation","","","","",""
"2128.5349996760488","Stimuli/Hangul_F27.bmp","188","image-keyboard-response","143","266429","0.0-8.0-1.15","test",".","",",","",""
"null","<div style=""color:white; font-size:60px;"">+</div>","null","html-keyboard-response","144","267431","0.0-8.0-0.16","fixation","","","","",""
"1217.5650000572205","Stimuli/Hangul_F40.bmp","190","image-keyboard-response","145","268650","0.0-8.0-1.16","test",".","",".","",""
"null","<div style=""color:white; font-size:60px;"">+</div>","null","html-keyboard-response","146","269653","0.0-8.0-0.17","fixation","","","","",""
"2021.6149999760091","Stimuli/Hangul_F28.bmp","188","image-keyboard-response","147","271676","0.0-8.0-1.17","test",".","",",","",""
"null","<div style=""color:white; font-size:60px;"">+</div>","null","html-keyboard-response","148","272678","0.0-8.0-0.18","fixation","","","","",""
"1337.935000192374","Stimuli/Hangul_M48.bmp","190","image-keyboard-response","149","274016","0.0-8.0-1.18","test",",","",".","",""
"null","<div style=""color:white; font-size:60px;"">+</div>","null","html-keyboard-response","150","275018","0.0-8.0-0.19","fixation","","","","",""
"1875.9600003249943","Stimuli/Hangul_F37.bmp","190","image-keyboard-response","151","276895","0.0-8.0-1.19","test",".","",".","",""
"null","<div style=""color:white; font-size:60px;"">+</div>","null","html-keyboard-response","152","277897","0.0-8.0-0.20","fixation","","","","",""
"782.6350000686944","Stimuli/Hangul_F26.bmp","190","image-keyboard-response","153","278681","0.0-8.0-1.20","test",".","",".","",""
"null","<div style=""color:white; font-size:60px;"">+</div>","null","html-keyboard-response","154","279683","0.0-8.0-0.21","fixation","","","","",""
"2012.4949999153614","Stimuli/Hangul_F41.bmp","188","image-keyboard-response","155","281696","0.0-8.0-1.21","test",".","",",","",""
"null","<div style=""color:white; font-size:60px;"">+</div>","null","html-keyboard-response","156","282701","0.0-8.0-0.22","fixation","","","","",""
"1394.5700000040233","Stimuli/Hangul_M35.bmp","190","image-keyboard-response","157","284096","0.0-8.0-1.22","test",",","",".","",""
"null","<div style=""color:white; font-size:60px;"">+</div>","null","html-keyboard-response","158","285098","0.0-8.0-0.23","fixation","","","","",""
"1929.4600002467632","Stimuli/Hangul_F38.bmp","190","image-keyboard-response","159","287029","0.0-8.0-1.23","test",".","",".","",""
"null","<div style=""color:white; font-size:60px;"">+</div>","null","html-keyboard-response","160","288030","0.0-8.0-0.24","fixation","","","","",""
"2458.674999885261","Stimuli/Hangul_M25.bmp","190","image-keyboard-response","161","290490","0.0-8.0-1.24","test",",","",".","",""
"null","<div style=""color:white; font-size:60px;"">+</div>","null","html-keyboard-response","162","291492","0.0-8.0-0.25","fixation","","","","",""
"2001.5099998563528","Stimuli/Hangul_F35.bmp","190","image-keyboard-response","163","293494","0.0-8.0-1.25","test",".","",".","",""
"null","<div style=""color:white; font-size:60px;"">+</div>","null","html-keyboard-response","164","294496","0.0-8.0-0.26","fixation","","","","",""
"2054.4050000607967","Stimuli/Hangul_F39.bmp","190","image-keyboard-response","165","296552","0.0-8.0-1.26","test",".","",".","",""
"null","<div style=""color:white; font-size:60px;"">+</div>","null","html-keyboard-response","166","297554","0.0-8.0-0.27","fixation","","","","",""
"1865.629999898374","Stimuli/Hangul_M27.bmp","188","image-keyboard-response","167","299420","0.0-8.0-1.27","test",",","",",","",""
"null","<div style=""color:white; font-size:60px;"">+</div>","null","html-keyboard-response","168","300422","0.0-8.0-0.28","fixation","","","","",""
"2141.7199997231364","Stimuli/Hangul_M49.bmp","190","image-keyboard-response","169","302565","0.0-8.0-1.28","test",",","",".","",""
"null","<div style=""color:white; font-size:60px;"">+</div>","null","html-keyboard-response","170","303567","0.0-8.0-0.29","fixation","","","","",""
"2069.3500000052154","Stimuli/Hangul_M30.bmp","190","image-keyboard-response","171","305637","0.0-8.0-1.29","test",",","",".","",""
"null","<div style=""color:white; font-size:60px;"">+</div>","null","html-keyboard-response","172","306639","0.0-8.0-0.30","fixation","","","","",""
"1443.144999910146","Stimuli/Hangul_F46.bmp","190","image-keyboard-response","173","308083","0.0-8.0-1.30","test",".","",".","",""
"null","<div style=""color:white; font-size:60px;"">+</div>","null","html-keyboard-response","174","309085","0.0-8.0-0.31","fixation","","","","",""
"1371.7749998904765","Stimuli/Hangul_M47.bmp","190","image-keyboard-response","175","310457","0.0-8.0-1.31","test",",","",".","",""
"null","<div style=""color:white; font-size:60px;"">+</div>","null","html-keyboard-response","176","311460","0.0-8.0-0.32","fixation","","","","",""
"1386.1799999140203","Stimuli/Hangul_M32.bmp","190","image-keyboard-response","177","312847","0.0-8.0-1.32","test",",","",".","",""
"null","<div style=""color:white; font-size:60px;"">+</div>","null","html-keyboard-response","178","313848","0.0-8.0-0.33","fixation","","","","",""
"1991.9949998147786","Stimuli/Hangul_F42.bmp","190","image-keyboard-response","179","315841","0.0-8.0-1.33","test",".","",".","",""
"null","<div style=""color:white; font-size:60px;"">+</div>","null","html-keyboard-response","180","316844","0.0-8.0-0.34","fixation","","","","",""
"1408.6800003424287","Stimuli/Hangul_M33.bmp","190","image-keyboard-response","181","318254","0.0-8.0-1.34","test",",","",".","",""
"null","<div style=""color:white; font-size:60px;"">+</div>","null","html-keyboard-response","182","319256","0.0-8.0-0.35","fixation","","","","",""
"1949.1950003430247","Stimuli/Hangul_F30.bmp","190","image-keyboard-response","183","321206","0.0-8.0-1.35","test",".","",".","",""
"null","<div style=""color:white; font-size:60px;"">+</div>","null","html-keyboard-response","184","322208","0.0-8.0-0.36","fixation","","","","",""
"1430.265000090003","Stimuli/Hangul_M37.bmp","190","image-keyboard-response","185","323639","0.0-8.0-1.36","test",",","",".","",""
"null","<div style=""color:white; font-size:60px;"">+</div>","null","html-keyboard-response","186","324641","0.0-8.0-0.37","fixation","","","","",""
"1462.1800002641976","Stimuli/Hangul_M28.bmp","190","image-keyboard-response","187","326103","0.0-8.0-1.37","test",",","",".","",""
"null","<div style=""color:white; font-size:60px;"">+</div>","null","html-keyboard-response","188","327106","0.0-8.0-0.38","fixation","","","","",""
"1296.1099999956787","Stimuli/Hangul_M45.bmp","190","image-keyboard-response","189","328403","0.0-8.0-1.38","test",",","",".","",""
"null","<div style=""color:white; font-size:60px;"">+</div>","null","html-keyboard-response","190","329405","0.0-8.0-0.39","fixation","","","","",""
"1319.2400000989437","Stimuli/Hangul_F29.bmp","190","image-keyboard-response","191","330725","0.0-8.0-1.39","test",".","",".","",""
"null","<div style=""color:white; font-size:60px;"">+</div>","null","html-keyboard-response","192","331727","0.0-8.0-0.40","fixation","","","","",""
"2040.0999998673797","Stimuli/Hangul_M40.bmp","190","image-keyboard-response","193","333768","0.0-8.0-1.40","test",",","",".","",""
"null","<div style=""color:white; font-size:60px;"">+</div>","null","html-keyboard-response","194","334771","0.0-8.0-0.41","fixation","","","","",""
"1898.3599999919534","Stimuli/Hangul_F43.bmp","188","image-keyboard-response","195","336671","0.0-8.0-1.41","test",".","",",","",""
"null","<div style=""color:white; font-size:60px;"">+</div>","null","html-keyboard-response","196","337673","0.0-8.0-0.42","fixation","","","","",""
"1261.8650002405047","Stimuli/Hangul_M41.bmp","190","image-keyboard-response","197","338936","0.0-8.0-1.42","test",",","",".","",""
"null","<div style=""color:white; font-size:60px;"">+</div>","null","html-keyboard-response","198","339938","0.0-8.0-0.43","fixation","","","","",""
"1981.4749998040497","Stimuli/Hangul_F36.bmp","190","image-keyboard-response","199","341920","0.0-8.0-1.43","test",".","",".","",""
"null","<div style=""color:white; font-size:60px;"">+</div>","null","html-keyboard-response","200","342922","0.0-8.0-0.44","fixation","","","","",""
"1775.5450000986457","Stimuli/Hangul_F34.bmp","190","image-keyboard-response","201","344698","0.0-8.0-1.44","test",".","",".","",""
"null","<div style=""color:white; font-size:60px;"">+</div>","null","html-keyboard-response","202","345700","0.0-8.0-0.45","fixation","","","","",""
"1837.3750001192093","Stimuli/Hangul_M26.bmp","188","image-keyboard-response","203","347539","0.0-8.0-1.45","test",",","",",","",""
"null","<div style=""color:white; font-size:60px;"">+</div>","null","html-keyboard-response","204","348540","0.0-8.0-0.46","fixation","","","","",""
"1997.0149998553097","Stimuli/Hangul_F33.bmp","190","image-keyboard-response","205","350538","0.0-8.0-1.46","test",".","",".","",""
"null","<div style=""color:white; font-size:60px;"">+</div>","null","html-keyboard-response","206","351539","0.0-8.0-0.47","fixation","","","","",""
"1380.4299999028444","Stimuli/Hangul_M39.bmp","190","image-keyboard-response","207","352921","0.0-8.0-1.47","test",",","",".","",""
"null","<div style=""color:white; font-size:60px;"">+</div>","null","html-keyboard-response","208","353923","0.0-8.0-0.48","fixation","","","","",""
"2278.270000126213","Stimuli/Hangul_F25.bmp","188","image-keyboard-response","209","356203","0.0-8.0-1.48","test",".","",",","",""
"null","<div style=""color:white; font-size:60px;"">+</div>","null","html-keyboard-response","210","357205","0.0-8.0-0.49","fixation","","","","",""
"1906.9050000980496","Stimuli/Hangul_F44.bmp","190","image-keyboard-response","211","359113","0.0-8.0-1.49","test",".","",".","",""
"4918.57000021264","<p style=""color:white;"">Half way there! Please take a moment to rest.</p> <p style=""color:white;"">When you are ready to continue with block 3 of 4, press the space bar.</p> ","32","html-keyboard-response","212","364033","0.0-9.0","","","","","",""
"null","<div style=""color:white; font-size:60px;"">+</div>","null","html-keyboard-response","213","367037","0.0-10.0-0.0","fixation","","","","",""
"1685.7949998229742","Stimuli/Hangul_M66.bmp","190","image-keyboard-response","214","368725","0.0-10.0-1.0","test",",","",".","",""
"null","<div style=""color:white; font-size:60px;"">+</div>","null","html-keyboard-response","215","369727","0.0-10.0-0.1","fixation","","","","",""
"1999.8050001449883","Stimuli/Hangul_F53.bmp","190","image-keyboard-response","216","371728","0.0-10.0-1.1","test",".","",".","",""
"null","<div style=""color:white; font-size:60px;"">+</div>","null","html-keyboard-response","217","372730","0.0-10.0-0.2","fixation","","","","",""
"1280.5800000205636","Stimuli/Hangul_F74.bmp","190","image-keyboard-response","218","374012","0.0-10.0-1.2","test",".","",".","",""
"null","<div style=""color:white; font-size:60px;"">+</div>","null","html-keyboard-response","219","375014","0.0-10.0-0.3","fixation","","","","",""
"1225.449999794364","Stimuli/Hangul_M71.bmp","188","image-keyboard-response","220","376240","0.0-10.0-1.3","test",",","",",","",""
"null","<div style=""color:white; font-size:60px;"">+</div>","null","html-keyboard-response","221","377243","0.0-10.0-0.4","fixation","","","","",""
"1734.0049999766052","Stimuli/Hangul_F59.bmp","190","image-keyboard-response","222","378979","0.0-10.0-1.4","test",".","",".","",""
"null","<div style=""color:white; font-size:60px;"">+</div>","null","html-keyboard-response","223","379981","0.0-10.0-0.5","fixation","","","","",""
"1867.690000217408","Stimuli/Hangul_M73.bmp","188","image-keyboard-response","224","381852","0.0-10.0-1.5","test",",","",",","",""
"null","<div style=""color:white; font-size:60px;"">+</div>","null","html-keyboard-response","225","382854","0.0-10.0-0.6","fixation","","","","",""
"1544.1749999299645","Stimuli/Hangul_M68.bmp","190","image-keyboard-response","226","384399","0.0-10.0-1.6","test",",","",".","",""
"null","<div style=""color:white; font-size:60px;"">+</div>","null","html-keyboard-response","227","385400","0.0-10.0-0.7","fixation","","","","",""
"2418.980000074953","Stimuli/Hangul_M69.bmp","190","image-keyboard-response","228","387821","0.0-10.0-1.7","test",",","",".","",""
"null","<div style=""color:white; font-size:60px;"">+</div>","null","html-keyboard-response","229","388822","0.0-10.0-0.8","fixation","","","","",""
"2063.1550000980496","Stimuli/Hangul_F67.bmp","188","image-keyboard-response","230","390886","0.0-10.0-1.8","test",".","",",","",""
"null","<div style=""color:white; font-size:60px;"">+</div>","null","html-keyboard-response","231","391889","0.0-10.0-0.9","fixation","","","","",""
"1986.3950000144541","Stimuli/Hangul_F60.bmp","190","image-keyboard-response","232","393876","0.0-10.0-1.9","test",".","",".","",""
"null","<div style=""color:white; font-size:60px;"">+</div>","null","html-keyboard-response","233","394879","0.0-10.0-0.10","fixation","","","","",""
"1938.925000373274","Stimuli/Hangul_F71.bmp","190","image-keyboard-response","234","396818","0.0-10.0-1.10","test",".","",".","",""
"null","<div style=""color:white; font-size:60px;"">+</div>","null","html-keyboard-response","235","397821","0.0-10.0-0.11","fixation","","","","",""
"1640.4099999926984","Stimuli/Hangul_M72.bmp","188","image-keyboard-response","236","399463","0.0-10.0-1.11","test",",","",",","",""
"null","<div style=""color:white; font-size:60px;"">+</div>","null","html-keyboard-response","237","400465","0.0-10.0-0.12","fixation","","","","",""
"1305.6100001558661","Stimuli/Hangul_F64.bmp","190","image-keyboard-response","238","401771","0.0-10.0-1.12","test",".","",".","",""
"null","<div style=""color:white; font-size:60px;"">+</div>","null","html-keyboard-response","239","402773","0.0-10.0-0.13","fixation","","","","",""
"2013.685000129044","Stimuli/Hangul_F61.bmp","188","image-keyboard-response","240","404788","0.0-10.0-1.13","test",".","",",","",""
"null","<div style=""color:white; font-size:60px;"">+</div>","null","html-keyboard-response","241","405791","0.0-10.0-0.14","fixation","","","","",""
"1664.4950001500547","Stimuli/Hangul_M50.bmp","188","image-keyboard-response","242","407456","0.0-10.0-1.14","test",",","",",","",""
"null","<div style=""color:white; font-size:60px;"">+</div>","null","html-keyboard-response","243","408458","0.0-10.0-0.15","fixation","","","","",""
"2021.465000230819","Stimuli/Hangul_F72.bmp","188","image-keyboard-response","244","410481","0.0-10.0-1.15","test",".","",",","",""
"null","<div style=""color:white; font-size:60px;"">+</div>","null","html-keyboard-response","245","411483","0.0-10.0-0.16","fixation","","","","",""
"1762.7649996429682","Stimuli/Hangul_F58.bmp","188","image-keyboard-response","246","413247","0.0-10.0-1.16","test",".","",",","",""
"null","<div style=""color:white; font-size:60px;"">+</div>","null","html-keyboard-response","247","414250","0.0-10.0-0.17","fixation","","","","",""
"1325.135000050068","Stimuli/Hangul_M54.bmp","188","image-keyboard-response","248","415576","0.0-10.0-1.17","test",",","",",","",""
"null","<div style=""color:white; font-size:60px;"">+</div>","null","html-keyboard-response","249","416577","0.0-10.0-0.18","fixation","","","","",""
"1229.5499998144805","Stimuli/Hangul_F51.bmp","190","image-keyboard-response","250","417807","0.0-10.0-1.18","test",".","",".","",""
"null","<div style=""color:white; font-size:60px;"">+</div>","null","html-keyboard-response","251","418808","0.0-10.0-0.19","fixation","","","","",""
"2060.9450000338256","Stimuli/Hangul_M51.bmp","188","image-keyboard-response","252","420870","0.0-10.0-1.19","test",",","",",","",""
"null","<div style=""color:white; font-size:60px;"">+</div>","null","html-keyboard-response","253","421873","0.0-10.0-0.20","fixation","","","","",""
"1784.0799996629357","Stimuli/Hangul_F62.bmp","188","image-keyboard-response","254","423658","0.0-10.0-1.20","test",".","",",","",""
"null","<div style=""color:white; font-size:60px;"">+</div>","null","html-keyboard-response","255","424661","0.0-10.0-0.21","fixation","","","","",""
"2160.579999908805","Stimuli/Hangul_M58.bmp","188","image-keyboard-response","256","426822","0.0-10.0-1.21","test",",","",",","",""
"null","<div style=""color:white; font-size:60px;"">+</div>","null","html-keyboard-response","257","427824","0.0-10.0-0.22","fixation","","","","",""
"1233.2049999386072","Stimuli/Hangul_F73.bmp","190","image-keyboard-response","258","429059","0.0-10.0-1.22","test",".","",".","",""
"null","<div style=""color:white; font-size:60px;"">+</div>","null","html-keyboard-response","259","430061","0.0-10.0-0.23","fixation","","","","",""
"1871.2399997748435","Stimuli/Hangul_F55.bmp","188","image-keyboard-response","260","431933","0.0-10.0-1.23","test",".","",",","",""
"null","<div style=""color:white; font-size:60px;"">+</div>","null","html-keyboard-response","261","432936","0.0-10.0-0.24","fixation","","","","",""
"2685.150000266731","Stimuli/Hangul_M56.bmp","188","image-keyboard-response","262","435622","0.0-10.0-1.24","test",",","",",","",""
"null","<div style=""color:white; font-size:60px;"">+</div>","null","html-keyboard-response","263","436624","0.0-10.0-0.25","fixation","","","","",""
"1937.2950000688434","Stimuli/Hangul_M53.bmp","188","image-keyboard-response","264","438562","0.0-10.0-1.25","test",",","",",","",""
"null","<div style=""color:white; font-size:60px;"">+</div>","null","html-keyboard-response","265","439565","0.0-10.0-0.26","fixation","","","","",""
"2207.625000271946","Stimuli/Hangul_F68.bmp","188","image-keyboard-response","266","441774","0.0-10.0-1.26","test",".","",",","",""
"null","<div style=""color:white; font-size:60px;"">+</div>","null","html-keyboard-response","267","442776","0.0-10.0-0.27","fixation","","","","",""
"1466.095000039786","Stimuli/Hangul_M52.bmp","188","image-keyboard-response","268","444243","0.0-10.0-1.27","test",",","",",","",""
"null","<div style=""color:white; font-size:60px;"">+</div>","null","html-keyboard-response","269","445253","0.0-10.0-0.28","fixation","","","","",""
"1231.995000038296","Stimuli/Hangul_M65.bmp","188","image-keyboard-response","270","446486","0.0-10.0-1.28","test",",","",",","",""
"null","<div style=""color:white; font-size:60px;"">+</div>","null","html-keyboard-response","271","447489","0.0-10.0-0.29","fixation","","","","",""
"1893.3249996043742","Stimuli/Hangul_M74.bmp","188","image-keyboard-response","272","449383","0.0-10.0-1.29","test",",","",",","",""
"null","<div style=""color:white; font-size:60px;"">+</div>","null","html-keyboard-response","273","450385","0.0-10.0-0.30","fixation","","","","",""
"1787.3449996113777","Stimuli/Hangul_M64.bmp","188","image-keyboard-response","274","452173","0.0-10.0-1.30","test",",","",",","",""
"null","<div style=""color:white; font-size:60px;"">+</div>","null","html-keyboard-response","275","453175","0.0-10.0-0.31","fixation","","","","",""
"1962.644999846816","Stimuli/Hangul_M63.bmp","188","image-keyboard-response","276","455139","0.0-10.0-1.31","test",",","",",","",""
"null","<div style=""color:white; font-size:60px;"">+</div>","null","html-keyboard-response","277","456140","0.0-10.0-0.32","fixation","","","","",""
"1393.2450003921986","Stimuli/Hangul_F56.bmp","190","image-keyboard-response","278","457535","0.0-10.0-1.32","test",".","",".","",""
"null","<div style=""color:white; font-size:60px;"">+</div>","null","html-keyboard-response","279","458537","0.0-10.0-0.33","fixation","","","","",""
"1612.035000231117","Stimuli/Hangul_F70.bmp","188","image-keyboard-response","280","460150","0.0-10.0-1.33","test",".","",",","",""
"null","<div style=""color:white; font-size:60px;"">+</div>","null","html-keyboard-response","281","461153","0.0-10.0-0.34","fixation","","","","",""
"1632.1699996478856","Stimuli/Hangul_F63.bmp","188","image-keyboard-response","282","462787","0.0-10.0-1.34","test",".","",",","",""
"null","<div style=""color:white; font-size:60px;"">+</div>","null","html-keyboard-response","283","463789","0.0-10.0-0.35","fixation","","","","",""
"2336.3000000827014","Stimuli/Hangul_F54.bmp","188","image-keyboard-response","284","466126","0.0-10.0-1.35","test",".","",",","",""
"null","<div style=""color:white; font-size:60px;"">+</div>","null","html-keyboard-response","285","467128","0.0-10.0-0.36","fixation","","","","",""
"2076.0249998420477","Stimuli/Hangul_M55.bmp","188","image-keyboard-response","286","469205","0.0-10.0-1.36","test",",","",",","",""
"null","<div style=""color:white; font-size:60px;"">+</div>","null","html-keyboard-response","287","470207","0.0-10.0-0.37","fixation","","","","",""
"2243.230000138283","Stimuli/Hangul_F52.bmp","188","image-keyboard-response","288","472451","0.0-10.0-1.37","test",".","",",","",""
"null","<div style=""color:white; font-size:60px;"">+</div>","null","html-keyboard-response","289","473452","0.0-10.0-0.38","fixation","","","","",""
"1867.2950002364814","Stimuli/Hangul_M70.bmp","188","image-keyboard-response","290","475321","0.0-10.0-1.38","test",",","",",","",""
"null","<div style=""color:white; font-size:60px;"">+</div>","null","html-keyboard-response","291","476323","0.0-10.0-0.39","fixation","","","","",""
"2025.494999717921","Stimuli/Hangul_F50.bmp","190","image-keyboard-response","292","478350","0.0-10.0-1.39","test",".","",".","",""
"null","<div style=""color:white; font-size:60px;"">+</div>","null","html-keyboard-response","293","479352","0.0-10.0-0.40","fixation","","","","",""
"1681.0050001367927","Stimuli/Hangul_F66.bmp","190","image-keyboard-response","294","481035","0.0-10.0-1.40","test",".","",".","",""
"null","<div style=""color:white; font-size:60px;"">+</div>","null","html-keyboard-response","295","482037","0.0-10.0-0.41","fixation","","","","",""
"1245.3649998642504","Stimuli/Hangul_M62.bmp","188","image-keyboard-response","296","483284","0.0-10.0-1.41","test",",","",",","",""
"null","<div style=""color:white; font-size:60px;"">+</div>","null","html-keyboard-response","297","484287","0.0-10.0-0.42","fixation","","","","",""
"1537.2899998910725","Stimuli/Hangul_F65.bmp","190","image-keyboard-response","298","485825","0.0-10.0-1.42","test",".","",".","",""
"null","<div style=""color:white; font-size:60px;"">+</div>","null","html-keyboard-response","299","486828","0.0-10.0-0.43","fixation","","","","",""
"2222.895000129938","Stimuli/Hangul_M59.bmp","188","image-keyboard-response","300","489051","0.0-10.0-1.43","test",",","",",","",""
"null","<div style=""color:white; font-size:60px;"">+</div>","null","html-keyboard-response","301","490053","0.0-10.0-0.44","fixation","","","","",""
"1241.1449998617172","Stimuli/Hangul_M61.bmp","188","image-keyboard-response","302","491295","0.0-10.0-1.44","test",",","",",","",""
"null","<div style=""color:white; font-size:60px;"">+</div>","null","html-keyboard-response","303","492297","0.0-10.0-0.45","fixation","","","","",""
"2637.390000279993","Stimuli/Hangul_M67.bmp","188","image-keyboard-response","304","494935","0.0-10.0-1.45","test",",","",",","",""
"null","<div style=""color:white; font-size:60px;"">+</div>","null","html-keyboard-response","305","495943","0.0-10.0-0.46","fixation","","","","",""
"1734.7599999047816","Stimuli/Hangul_F57.bmp","190","image-keyboard-response","306","497679","0.0-10.0-1.46","test",".","",".","",""
"null","<div style=""color:white; font-size:60px;"">+</div>","null","html-keyboard-response","307","498681","0.0-10.0-0.47","fixation","","","","",""
"2011.3999997265637","Stimuli/Hangul_M60.bmp","188","image-keyboard-response","308","500693","0.0-10.0-1.47","test",",","",",","",""
"null","<div style=""color:white; font-size:60px;"">+</div>","null","html-keyboard-response","309","501696","0.0-10.0-0.48","fixation","","","","",""
"1578.6899998784065","Stimuli/Hangul_F69.bmp","188","image-keyboard-response","310","503276","0.0-10.0-1.48","test",".","",",","",""
"null","<div style=""color:white; font-size:60px;"">+</div>","null","html-keyboard-response","311","504279","0.0-10.0-0.49","fixation","","","","",""
"1836.9449996389449","Stimuli/Hangul_M57.bmp","188","image-keyboard-response","312","506117","0.0-10.0-1.49","test",",","",",","",""
"2438.1050001829863","<p style=""color:white;"">One more block to go! Please take a moment to rest.</p> <p style=""color:white;"">When you are ready to continue with block 4 of 4, press the space bar.</p> ","32","html-keyboard-response","313","508556","0.0-11.0","","","","","",""
"null","<div style=""color:white; font-size:60px;"">+</div>","null","html-keyboard-response","314","511560","0.0-12.0-0.0","fixation","","","","",""
"1315.4549999162555","Stimuli/Hangul_M75.bmp","188","image-keyboard-response","315","512876","0.0-12.0-1.0","test",",","",",","",""
"null","<div style=""color:white; font-size:60px;"">+</div>","null","html-keyboard-response","316","513878","0.0-12.0-0.1","fixation","","","","",""
"1760.355000384152","Stimuli/Hangul_M92.bmp","188","image-keyboard-response","317","515639","0.0-12.0-1.1","test",",","",",","",""
"null","<div style=""color:white; font-size:60px;"">+</div>","null","html-keyboard-response","318","516642","0.0-12.0-0.2","fixation","","","","",""
"1770.8399998955429","Stimuli/Hangul_F75.bmp","190","image-keyboard-response","319","518413","0.0-12.0-1.2","test",".","",".","",""
"null","<div style=""color:white; font-size:60px;"">+</div>","null","html-keyboard-response","320","519415","0.0-12.0-0.3","fixation","","","","",""
"1216.2350001744926","Stimuli/Hangul_M83.bmp","188","image-keyboard-response","321","520632","0.0-12.0-1.3","test",",","",",","",""
"null","<div style=""color:white; font-size:60px;"">+</div>","null","html-keyboard-response","322","521634","0.0-12.0-0.4","fixation","","","","",""
"1420.925000216812","Stimuli/Hangul_F97.bmp","190","image-keyboard-response","323","523057","0.0-12.0-1.4","test",".","",".","",""
"null","<div style=""color:white; font-size:60px;"">+</div>","null","html-keyboard-response","324","524059","0.0-12.0-0.5","fixation","","","","",""
"1730.2899998612702","Stimuli/Hangul_M80.bmp","188","image-keyboard-response","325","525791","0.0-12.0-1.5","test",",","",",","",""
"null","<div style=""color:white; font-size:60px;"">+</div>","null","html-keyboard-response","326","526793","0.0-12.0-0.6","fixation","","","","",""
"1575.7399997673929","Stimuli/Hangul_M87.bmp","190","image-keyboard-response","327","528369","0.0-12.0-1.6","test",",","",".","",""
"null","<div style=""color:white; font-size:60px;"">+</div>","null","html-keyboard-response","328","529372","0.0-12.0-0.7","fixation","","","","",""
"1628.3450000919402","Stimuli/Hangul_F78.bmp","188","image-keyboard-response","329","531001","0.0-12.0-1.7","test",".","",",","",""
"null","<div style=""color:white; font-size:60px;"">+</div>","null","html-keyboard-response","330","532003","0.0-12.0-0.8","fixation","","","","",""
"1981.7749997600913","Stimuli/Hangul_F85.bmp","188","image-keyboard-response","331","533986","0.0-12.0-1.8","test",".","",",","",""
"null","<div style=""color:white; font-size:60px;"">+</div>","null","html-keyboard-response","332","534988","0.0-12.0-0.9","fixation","","","","",""
"1438.6900002136827","Stimuli/Hangul_M95.bmp","188","image-keyboard-response","333","536428","0.0-12.0-1.9","test",",","",",","",""
"null","<div style=""color:white; font-size:60px;"">+</div>","null","html-keyboard-response","334","537430","0.0-12.0-0.10","fixation","","","","",""
"1459.755000192672","Stimuli/Hangul_M86.bmp","188","image-keyboard-response","335","538891","0.0-12.0-1.10","test",",","",",","",""
"null","<div style=""color:white; font-size:60px;"">+</div>","null","html-keyboard-response","336","539893","0.0-12.0-0.11","fixation","","","","",""
"1952.5750000029802","Stimuli/Hangul_F94.bmp","190","image-keyboard-response","337","541847","0.0-12.0-1.11","test",".","",".","",""
"null","<div style=""color:white; font-size:60px;"">+</div>","null","html-keyboard-response","338","542849","0.0-12.0-0.12","fixation","","","","",""
"1883.125000167638","Stimuli/Hangul_M79.bmp","188","image-keyboard-response","339","544733","0.0-12.0-1.12","test",",","",",","",""
"null","<div style=""color:white; font-size:60px;"">+</div>","null","html-keyboard-response","340","545735","0.0-12.0-0.13","fixation","","","","",""
"2314.5650001242757","Stimuli/Hangul_M96.bmp","188","image-keyboard-response","341","548051","0.0-12.0-1.13","test",",","",",","",""
"null","<div style=""color:white; font-size:60px;"">+</div>","null","html-keyboard-response","342","549053","0.0-12.0-0.14","fixation","","","","",""
"1828.559999819845","Stimuli/Hangul_F96.bmp","190","image-keyboard-response","343","550883","0.0-12.0-1.14","test",".","",".","",""
"null","<div style=""color:white; font-size:60px;"">+</div>","null","html-keyboard-response","344","551885","0.0-12.0-0.15","fixation","","","","",""
"1801.9750001840293","Stimuli/Hangul_M99.bmp","188","image-keyboard-response","345","553688","0.0-12.0-1.15","test",",","",",","",""
"null","<div style=""color:white; font-size:60px;"">+</div>","null","html-keyboard-response","346","554690","0.0-12.0-0.16","fixation","","","","",""
"1409.8049998283386","Stimuli/Hangul_F79.bmp","190","image-keyboard-response","347","556101","0.0-12.0-1.16","test",".","",".","",""
"null","<div style=""color:white; font-size:60px;"">+</div>","null","html-keyboard-response","348","557102","0.0-12.0-0.17","fixation","","","","",""
"1359.2400001361966","Stimuli/Hangul_M89.bmp","188","image-keyboard-response","349","558462","0.0-12.0-1.17","test",",","",",","",""
"null","<div style=""color:white; font-size:60px;"">+</div>","null","html-keyboard-response","350","559464","0.0-12.0-0.18","fixation","","","","",""
"1278.690000064671","Stimuli/Hangul_M81.bmp","188","image-keyboard-response","351","560743","0.0-12.0-1.18","test",",","",",","",""
"null","<div style=""color:white; font-size:60px;"">+</div>","null","html-keyboard-response","352","561745","0.0-12.0-0.19","fixation","","","","",""
"1761.4400000311434","Stimuli/Hangul_M91.bmp","188","image-keyboard-response","353","563508","0.0-12.0-1.19","test",",","",",","",""
"null","<div style=""color:white; font-size:60px;"">+</div>","null","html-keyboard-response","354","564510","0.0-12.0-0.20","fixation","","","","",""
"1782.1700000204146","Stimuli/Hangul_F99.bmp","188","image-keyboard-response","355","566293","0.0-12.0-1.20","test",".","",",","",""
"null","<div style=""color:white; font-size:60px;"">+</div>","null","html-keyboard-response","356","567295","0.0-12.0-0.21","fixation","","","","",""
"1770.5399999395013","Stimuli/Hangul_M85.bmp","188","image-keyboard-response","357","569066","0.0-12.0-1.21","test",",","",",","",""
"null","<div style=""color:white; font-size:60px;"">+</div>","null","html-keyboard-response","358","570069","0.0-12.0-0.22","fixation","","","","",""
"1689.6599996834993","Stimuli/Hangul_M78.bmp","188","image-keyboard-response","359","571760","0.0-12.0-1.22","test",",","",",","",""
"null","<div style=""color:white; font-size:60px;"">+</div>","null","html-keyboard-response","360","572762","0.0-12.0-0.23","fixation","","","","",""
"1259.0700001455843","Stimuli/Hangul_M97.bmp","188","image-keyboard-response","361","574022","0.0-12.0-1.23","test",",","",",","",""
"null","<div style=""color:white; font-size:60px;"">+</div>","null","html-keyboard-response","362","575024","0.0-12.0-0.24","fixation","","","","",""
"1578.4399998374283","Stimuli/Hangul_F80.bmp","190","image-keyboard-response","363","576603","0.0-12.0-1.24","test",".","",".","",""
"null","<div style=""color:white; font-size:60px;"">+</div>","null","html-keyboard-response","364","577606","0.0-12.0-0.25","fixation","","","","",""
"1326.5050002373755","Stimuli/Hangul_F84.bmp","190","image-keyboard-response","365","578934","0.0-12.0-1.25","test",".","",".","",""
"null","<div style=""color:white; font-size:60px;"">+</div>","null","html-keyboard-response","366","579935","0.0-12.0-0.26","fixation","","","","",""
"1896.2749997153878","Stimuli/Hangul_M82.bmp","188","image-keyboard-response","367","581832","0.0-12.0-1.26","test",",","",",","",""
"null","<div style=""color:white; font-size:60px;"">+</div>","null","html-keyboard-response","368","582835","0.0-12.0-0.27","fixation","","","","",""
"1301.200000103563","Stimuli/Hangul_M98.bmp","188","image-keyboard-response","369","584137","0.0-12.0-1.27","test",",","",",","",""
"null","<div style=""color:white; font-size:60px;"">+</div>","null","html-keyboard-response","370","585139","0.0-12.0-0.28","fixation","","","","",""
"1879.244999960065","Stimuli/Hangul_M88.bmp","188","image-keyboard-response","371","587020","0.0-12.0-1.28","test",",","",",","",""
"null","<div style=""color:white; font-size:60px;"">+</div>","null","html-keyboard-response","372","588022","0.0-12.0-0.29","fixation","","","","",""
"1456.8600002676249","Stimuli/Hangul_F83.bmp","188","image-keyboard-response","373","589480","0.0-12.0-1.29","test",".","",",","",""
"null","<div style=""color:white; font-size:60px;"">+</div>","null","html-keyboard-response","374","590485","0.0-12.0-0.30","fixation","","","","",""
"2092.0250001363456","Stimuli/Hangul_F89.bmp","188","image-keyboard-response","375","592578","0.0-12.0-1.30","test",".","",",","",""
"null","<div style=""color:white; font-size:60px;"">+</div>","null","html-keyboard-response","376","593580","0.0-12.0-0.31","fixation","","","","",""
"1381.509999744594","Stimuli/Hangul_M77.bmp","188","image-keyboard-response","377","594962","0.0-12.0-1.31","test",",","",",","",""
"null","<div style=""color:white; font-size:60px;"">+</div>","null","html-keyboard-response","378","595964","0.0-12.0-0.32","fixation","","","","",""
"1239.144999999553","Stimuli/Hangul_M90.bmp","188","image-keyboard-response","379","597204","0.0-12.0-1.32","test",",","",",","",""
"null","<div style=""color:white; font-size:60px;"">+</div>","null","html-keyboard-response","380","598207","0.0-12.0-0.33","fixation","","","","",""
"2209.840000141412","Stimuli/Hangul_F98.bmp","188","image-keyboard-response","381","600417","0.0-12.0-1.33","test",".","",",","",""
"null","<div style=""color:white; font-size:60px;"">+</div>","null","html-keyboard-response","382","601420","0.0-12.0-0.34","fixation","","","","",""
"2107.9450002871454","Stimuli/Hangul_M76.bmp","188","image-keyboard-response","383","603529","0.0-12.0-1.34","test",",","",",","",""
"null","<div style=""color:white; font-size:60px;"">+</div>","null","html-keyboard-response","384","604531","0.0-12.0-0.35","fixation","","","","",""
"1791.0549999214709","Stimuli/Hangul_M94.bmp","188","image-keyboard-response","385","606323","0.0-12.0-1.35","test",",","",",","",""
"null","<div style=""color:white; font-size:60px;"">+</div>","null","html-keyboard-response","386","607324","0.0-12.0-0.36","fixation","","","","",""
"1862.2500002384186","Stimuli/Hangul_M84.bmp","188","image-keyboard-response","387","609187","0.0-12.0-1.36","test",",","",",","",""
"null","<div style=""color:white; font-size:60px;"">+</div>","null","html-keyboard-response","388","610189","0.0-12.0-0.37","fixation","","","","",""
"1378.0800001695752","Stimuli/Hangul_F91.bmp","188","image-keyboard-response","389","611569","0.0-12.0-1.37","test",".","",",","",""
"null","<div style=""color:white; font-size:60px;"">+</div>","null","html-keyboard-response","390","612571","0.0-12.0-0.38","fixation","","","","",""
"2215.23500001058","Stimuli/Hangul_F95.bmp","190","image-keyboard-response","391","614787","0.0-12.0-1.38","test",".","",".","",""
"null","<div style=""color:white; font-size:60px;"">+</div>","null","html-keyboard-response","392","615788","0.0-12.0-0.39","fixation","","","","",""
"1559.2950000427663","Stimuli/Hangul_F81.bmp","188","image-keyboard-response","393","617349","0.0-12.0-1.39","test",".","",",","",""
"null","<div style=""color:white; font-size:60px;"">+</div>","null","html-keyboard-response","394","618352","0.0-12.0-0.40","fixation","","","","",""
"2229.95000006631","Stimuli/Hangul_F92.bmp","188","image-keyboard-response","395","620582","0.0-12.0-1.40","test",".","",",","",""
"null","<div style=""color:white; font-size:60px;"">+</div>","null","html-keyboard-response","396","621585","0.0-12.0-0.41","fixation","","","","",""
"2029.3999998830259","Stimuli/Hangul_F93.bmp","190","image-keyboard-response","397","623615","0.0-12.0-1.41","test",".","",".","",""
"null","<div style=""color:white; font-size:60px;"">+</div>","null","html-keyboard-response","398","624617","0.0-12.0-0.42","fixation","","","","",""
"1177.7600003406405","Stimuli/Hangul_F86.bmp","190","image-keyboard-response","399","625796","0.0-12.0-1.42","test",".","",".","",""
"null","<div style=""color:white; font-size:60px;"">+</div>","null","html-keyboard-response","400","626798","0.0-12.0-0.43","fixation","","","","",""
"1697.5400000810623","Stimuli/Hangul_F87.bmp","190","image-keyboard-response","401","628497","0.0-12.0-1.43","test",".","",".","",""
"null","<div style=""color:white; font-size:60px;"">+</div>","null","html-keyboard-response","402","629499","0.0-12.0-0.44","fixation","","","","",""
"1796.8199998140335","Stimuli/Hangul_F82.bmp","190","image-keyboard-response","403","631296","0.0-12.0-1.44","test",".","",".","",""
"null","<div style=""color:white; font-size:60px;"">+</div>","null","html-keyboard-response","404","632298","0.0-12.0-0.45","fixation","","","","",""
"1508.6649996228516","Stimuli/Hangul_F88.bmp","190","image-keyboard-response","405","633808","0.0-12.0-1.45","test",".","",".","",""
"null","<div style=""color:white; font-size:60px;"">+</div>","null","html-keyboard-response","406","634812","0.0-12.0-0.46","fixation","","","","",""
"1021.0250001400709","Stimuli/Hangul_F77.bmp","190","image-keyboard-response","407","635834","0.0-12.0-1.46","test",".","",".","",""
"null","<div style=""color:white; font-size:60px;"">+</div>","null","html-keyboard-response","408","636835","0.0-12.0-0.47","fixation","","","","",""
"2263.774999883026","Stimuli/Hangul_M93.bmp","188","image-keyboard-response","409","639100","0.0-12.0-1.47","test",",","",",","",""
"null","<div style=""color:white; font-size:60px;"">+</div>","null","html-keyboard-response","410","640102","0.0-12.0-0.48","fixation","","","","",""
"1574.4749996811152","Stimuli/Hangul_F90.bmp","188","image-keyboard-response","411","641678","0.0-12.0-1.48","test",".","",",","",""
"null","<div style=""color:white; font-size:60px;"">+</div>","null","html-keyboard-response","412","642681","0.0-12.0-0.49","fixation","","","","",""
"1741.2950000725687","Stimuli/Hangul_F76.bmp","190","image-keyboard-response","413","644423","0.0-12.0-1.49","test",".","",".","",""
"3317.540000192821","<p style=""color:white;"">Phase I of the experiment is complete.</p> <p style=""color:white;"">Press the space bar to proceed to Phase II of the experiment.</p> ","32","html-keyboard-response","414","647742","0.0-13.0","","","","","",""
"42824.22000030056","<p style=""color:white;"">Now we are interested in how well you can predict patterns in the series of figures. You will be asked to predict whether the next figure in the series is more male-like or female-like. When you see the <q>Next Figure</q> prompt, press the corresponding response keys to indicate your prediction: </p><p style=""color:white;""> Male &#8594 <q>,</q> (comma)</p><p style=""color:white;""> Female &#8594 <q>.</q> (period)</p><p style=""color:white;"">The actual figure will then appear on the screen. After you see the figure, please guess the assigned gender with response keys. </p><p style=""color:white;"">As before, you will receive 2 cents for correctly classifying each figure.</p><p style=""color:white;"">Press either response keys to continue.</p>","190","html-keyboard-response","415","692569","0.0-14.0","","","","","",""
"6920.739999972284","<p style=""color:white;"">PREDICTION BONUS</p> <p style=""color:white;"">Your prediction accuracy is the total number of correct predictions you make over the 200 trials.</p> <p style=""color:white;"">In addition to the 2 cents per correct figure classification, you have the chance to receive a bonus of 40 dollars IF your accuracy is above average relative to previous participants.</p><p style=""color:white;"">If your accuracy is below average relative to previous participants, then you will not receive the 40 dollar bonus.</p><p style=""color:white;"">Press the space bar to continue.</p>","32","html-keyboard-response","416","699490","0.0-15.0","","","","","",""
"2957.805000245571","<p style=""color:white;"">Here are some examples.</p> <p style=""color:white;"">For each, predict whether the next figure looks more male-like or female-like. Then, when the figure appears, guess whether it looks more male-like or female-like and indicate your choice.</p> <p style=""color:white;"">Press the space bar to continue.</p>","32","html-keyboard-response","417","702449","0.0-16.0","","","","","",""
"2245.755000039935","<p style=""color:white;""> Next Figure: Male or Female? </p>","188","html-keyboard-response","418","706698","0.0-17.0-0.0","prediction_train","","","",",",""
"null","<div style=""color:white; font-size:60px;"">+</div>","null","html-keyboard-response","419","707701","0.0-17.0-1.0","fixation","","","","",""
"4303.034999873489","Stimuli/Hangul_E0.bmp","188","image-keyboard-response","420","712006","0.0-17.0-2.0","c2_train",",","","","",","
"5546.159999910742","<p style=""color:white;""> Next Figure: Male or Female? </p>","190","html-keyboard-response","421","717553","0.0-17.0-0.1","prediction_train","","","",".",""
"null","<div style=""color:white; font-size:60px;"">+</div>","null","html-keyboard-response","422","718555","0.0-17.0-1.1","fixation","","","","",""
"2625.0350000336766","Stimuli/Hangul_E2.bmp","190","image-keyboard-response","423","721182","0.0-17.0-2.1","c2_train",".","","","","."
"5812.049999833107","<p style=""color:white;""> Next Figure: Male or Female? </p>","188","html-keyboard-response","424","726995","0.0-17.0-0.2","prediction_train","","","",",",""
"null","<div style=""color:white; font-size:60px;"">+</div>","null","html-keyboard-response","425","727997","0.0-17.0-1.2","fixation","","","","",""
"7394.489999860525","Stimuli/Hangul_E1.bmp","188","image-keyboard-response","426","735393","0.0-17.0-2.2","c2_train",",","","","",","
"4674.300000071526","<p style=""color:white;"">Let us begin! Press the space bar when you are ready to start block 1 of 4.</p> ","32","html-keyboard-response","427","740068","0.0-18.0","","","","","",""
"2089.9100000970066","<p style=""color:white;""> Next Figure: Male or Female? </p>","188","html-keyboard-response","428","744161","0.0-19.0-0.0","prediction","","","",",",""
"null","<div style=""color:white; font-size:60px;"">+</div>","null","html-keyboard-response","429","745163","0.0-19.0-1.0","fixation","","","","",""
"10306.905000004917","Stimuli/Hangul_F6.bmp","188","image-keyboard-response","430","755472","0.0-19.0-2.0","c2_test",".","","","",","
"1562.1549999341369","<p style=""color:white;""> Next Figure: Male or Female? </p>","190","html-keyboard-response","431","757036","0.0-19.0-0.1","prediction","","","",".",""
"null","<div style=""color:white; font-size:60px;"">+</div>","null","html-keyboard-response","432","758038","0.0-19.0-1.1","fixation","","","","",""
"1899.5350003242493","Stimuli/Hangul_M12.bmp","188","image-keyboard-response","433","759939","0.0-19.0-2.1","c2_test",",","","","",","
"4191.455000080168","<p style=""color:white;""> Next Figure: Male or Female? </p>","190","html-keyboard-response","434","764132","0.0-19.0-0.2","prediction","","","",".",""
"null","<div style=""color:white; font-size:60px;"">+</div>","null","html-keyboard-response","435","765133","0.0-19.0-1.2","fixation","","","","",""
"818.1900000199676","Stimuli/Hangul_F12.bmp","188","image-keyboard-response","436","765953","0.0-19.0-2.2","c2_test",".","","","",","
"1861.4400001242757","<p style=""color:white;""> Next Figure: Male or Female? </p>","188","html-keyboard-response","437","767815","0.0-19.0-0.3","prediction","","","",",",""
"null","<div style=""color:white; font-size:60px;"">+</div>","null","html-keyboard-response","438","768818","0.0-19.0-1.3","fixation","","","","",""
"575.845000334084","Stimuli/Hangul_M17.bmp","188","image-keyboard-response","439","769394","0.0-19.0-2.3","c2_test",",","","","",","
"1429.4900000095367","<p style=""color:white;""> Next Figure: Male or Female? </p>","190","html-keyboard-response","440","770825","0.0-19.0-0.4","prediction","","","",".",""
"null","<div style=""color:white; font-size:60px;"">+</div>","null","html-keyboard-response","441","771827","0.0-19.0-1.4","fixation","","","","",""
"1023.5350001603365","Stimuli/Hangul_F9.bmp","188","image-keyboard-response","442","772852","0.0-19.0-2.4","c2_test",".","","","",","
"2319.9499999172986","<p style=""color:white;""> Next Figure: Male or Female? </p>","188","html-keyboard-response","443","775173","0.0-19.0-0.5","prediction","","","",",",""
"null","<div style=""color:white; font-size:60px;"">+</div>","null","html-keyboard-response","444","776175","0.0-19.0-1.5","fixation","","","","",""
"2660.579999908805","Stimuli/Hangul_M22.bmp","188","image-keyboard-response","445","778837","0.0-19.0-2.5","c2_test",",","","","",","
"1636.5849999710917","<p style=""color:white;""> Next Figure: Male or Female? </p>","190","html-keyboard-response","446","780474","0.0-19.0-0.6","prediction","","","",".",""
"null","<div style=""color:white; font-size:60px;"">+</div>","null","html-keyboard-response","447","781477","0.0-19.0-1.6","fixation","","","","",""
"1322.3399999551475","Stimuli/Hangul_M11.bmp","188","image-keyboard-response","448","782800","0.0-19.0-2.6","c2_test",",","","","",","
"2306.315000168979","<p style=""color:white;""> Next Figure: Male or Female? </p>","188","html-keyboard-response","449","785107","0.0-19.0-0.7","prediction","","","",",",""
"null","<div style=""color:white; font-size:60px;"">+</div>","null","html-keyboard-response","450","786109","0.0-19.0-1.7","fixation","","","","",""
"1497.9500002227724","Stimuli/Hangul_F1.bmp","190","image-keyboard-response","451","787609","0.0-19.0-2.7","c2_test",".","","","","."
"1443.070000037551","<p style=""color:white;""> Next Figure: Male or Female? </p>","190","html-keyboard-response","452","789053","0.0-19.0-0.8","prediction","","","",".",""
"null","<div style=""color:white; font-size:60px;"">+</div>","null","html-keyboard-response","453","790056","0.0-19.0-1.8","fixation","","","","",""
"1417.565000243485","Stimuli/Hangul_M1.bmp","188","image-keyboard-response","454","791474","0.0-19.0-2.8","c2_test",",","","","",","
"1242.924999911338","<p style=""color:white;""> Next Figure: Male or Female? </p>","188","html-keyboard-response","455","792718","0.0-19.0-0.9","prediction","","","",",",""
"null","<div style=""color:white; font-size:60px;"">+</div>","null","html-keyboard-response","456","793720","0.0-19.0-1.9","fixation","","","","",""
"679.2649999260902","Stimuli/Hangul_F24.bmp","188","image-keyboard-response","457","794401","0.0-19.0-2.9","c2_test",".","","","",","
"404.7100003808737","<p style=""color:white;""> Next Figure: Male or Female? </p>","190","html-keyboard-response","458","794806","0.0-19.0-0.10","prediction","","","",".",""
"null","<div style=""color:white; font-size:60px;"">+</div>","null","html-keyboard-response","459","795808","0.0-19.0-1.10","fixation","","","","",""
"1017.1400001272559","Stimuli/Hangul_F5.bmp","188","image-keyboard-response","460","796826","0.0-19.0-2.10","c2_test",".","","","",","
"2049.1249999031425","<p style=""color:white;""> Next Figure: Male or Female? </p>","190","html-keyboard-response","461","798876","0.0-19.0-0.11","prediction","","","",".",""
"null","<div style=""color:white; font-size:60px;"">+</div>","null","html-keyboard-response","462","799879","0.0-19.0-1.11","fixation","","","","",""
"1154.6249999664724","Stimuli/Hangul_M15.bmp","190","image-keyboard-response","463","801035","0.0-19.0-2.11","c2_test",",","","","","."
"2063.815000001341","<p style=""color:white;""> Next Figure: Male or Female? </p>","188","html-keyboard-response","464","803100","0.0-19.0-0.12","prediction","","","",",",""
"null","<div style=""color:white; font-size:60px;"">+</div>","null","html-keyboard-response","465","804103","0.0-19.0-1.12","fixation","","","","",""
"707.0399997755885","Stimuli/Hangul_M20.bmp","188","image-keyboard-response","466","804812","0.0-19.0-2.12","c2_test",",","","","",","
"875.0299997627735","<p style=""color:white;""> Next Figure: Male or Female? </p>","188","html-keyboard-response","467","805688","0.0-19.0-0.13","prediction","","","",",",""
"null","<div style=""color:white; font-size:60px;"">+</div>","null","html-keyboard-response","468","806690","0.0-19.0-1.13","fixation","","","","",""
"535.6549997814","Stimuli/Hangul_M21.bmp","188","image-keyboard-response","469","807228","0.0-19.0-2.13","c2_test",",","","","",","
"1864.5250000990927","<p style=""color:white;""> Next Figure: Male or Female? </p>","188","html-keyboard-response","470","809095","0.0-19.0-0.14","prediction","","","",",",""
"null","<div style=""color:white; font-size:60px;"">+</div>","null","html-keyboard-response","471","810097","0.0-19.0-1.14","fixation","","","","",""
"1001.0950001887977","Stimuli/Hangul_F23.bmp","188","image-keyboard-response","472","811100","0.0-19.0-2.14","c2_test",".","","","",","
"2065.209999680519","<p style=""color:white;""> Next Figure: Male or Female? </p>","190","html-keyboard-response","473","813165","0.0-19.0-0.15","prediction","","","",".",""
"null","<div style=""color:white; font-size:60px;"">+</div>","null","html-keyboard-response","474","814167","0.0-19.0-1.15","fixation","","","","",""
"680.2050000987947","Stimuli/Hangul_M5.bmp","190","image-keyboard-response","475","814849","0.0-19.0-2.15","c2_test",",","","","","."
"1680.5249997414649","<p style=""color:white;""> Next Figure: Male or Female? </p>","190","html-keyboard-response","476","816530","0.0-19.0-0.16","prediction","","","",".",""
"null","<div style=""color:white; font-size:60px;"">+</div>","null","html-keyboard-response","477","817533","0.0-19.0-1.16","fixation","","","","",""
"776.914999820292","Stimuli/Hangul_F15.bmp","190","image-keyboard-response","478","818311","0.0-19.0-2.16","c2_test",".","","","","."
"1756.2650004401803","<p style=""color:white;""> Next Figure: Male or Female? </p>","190","html-keyboard-response","479","820068","0.0-19.0-0.17","prediction","","","",".",""
"null","<div style=""color:white; font-size:60px;"">+</div>","null","html-keyboard-response","480","821070","0.0-19.0-1.17","fixation","","","","",""
"549.9450000934303","Stimuli/Hangul_F10.bmp","190","image-keyboard-response","481","821621","0.0-19.0-2.17","c2_test",".","","","","."
"1134.3950000591576","<p style=""color:white;""> Next Figure: Male or Female? </p>","188","html-keyboard-response","482","822756","0.0-19.0-0.18","prediction","","","",",",""
"null","<div style=""color:white; font-size:60px;"">+</div>","null","html-keyboard-response","483","823759","0.0-19.0-1.18","fixation","","","","",""
"1048.4799998812377","Stimuli/Hangul_F16.bmp","188","image-keyboard-response","484","824808","0.0-19.0-2.18","c2_test",".","","","",","
"1067.2999997623265","<p style=""color:white;""> Next Figure: Male or Female? </p>","190","html-keyboard-response","485","825876","0.0-19.0-0.19","prediction","","","",".",""
"null","<div style=""color:white; font-size:60px;"">+</div>","null","html-keyboard-response","486","826877","0.0-19.0-1.19","fixation","","","","",""
"437.2749999165535","Stimuli/Hangul_F14.bmp","190","image-keyboard-response","487","827316","0.0-19.0-2.19","c2_test",".","","","","."
"1216.2299999035895","<p style=""color:white;""> Next Figure: Male or Female? </p>","190","html-keyboard-response","488","828533","0.0-19.0-0.20","prediction","","","",".",""
"null","<div style=""color:white; font-size:60px;"">+</div>","null","html-keyboard-response","489","829535","0.0-19.0-1.20","fixation","","","","",""
"787.0500003919005","Stimuli/Hangul_M16.bmp","188","image-keyboard-response","490","830324","0.0-19.0-2.20","c2_test",",","","","",","
"1441.3349996320903","<p style=""color:white;""> Next Figure: Male or Female? </p>","188","html-keyboard-response","491","831766","0.0-19.0-0.21","prediction","","","",",",""
"null","<div style=""color:white; font-size:60px;"">+</div>","null","html-keyboard-response","492","832768","0.0-19.0-1.21","fixation","","","","",""
"497.08000011742115","Stimuli/Hangul_F17.bmp","188","image-keyboard-response","493","833266","0.0-19.0-2.21","c2_test",".","","","",","
"1600.984999909997","<p style=""color:white;""> Next Figure: Male or Female? </p>","188","html-keyboard-response","494","834868","0.0-19.0-0.22","prediction","","","",",",""
"null","<div style=""color:white; font-size:60px;"">+</div>","null","html-keyboard-response","495","835870","0.0-19.0-1.22","fixation","","","","",""
"445.9949997253716","Stimuli/Hangul_F11.bmp","188","image-keyboard-response","496","836317","0.0-19.0-2.22","c2_test",".","","","",","
"1433.7249998934567","<p style=""color:white;""> Next Figure: Male or Female? </p>","188","html-keyboard-response","497","837752","0.0-19.0-0.23","prediction","","","",",",""
"null","<div style=""color:white; font-size:60px;"">+</div>","null","html-keyboard-response","498","838754","0.0-19.0-1.23","fixation","","","","",""
"551.9300000742078","Stimuli/Hangul_M18.bmp","188","image-keyboard-response","499","839307","0.0-19.0-2.23","c2_test",",","","","",","
"2913.040000014007","<p style=""color:white;""> Next Figure: Male or Female? </p>","188","html-keyboard-response","500","842221","0.0-19.0-0.24","prediction","","","",",",""
"null","<div style=""color:white; font-size:60px;"">+</div>","null","html-keyboard-response","501","843223","0.0-19.0-1.24","fixation","","","","",""
"1149.3850001133978","Stimuli/Hangul_F2.bmp","190","image-keyboard-response","502","844373","0.0-19.0-2.24","c2_test",".","","","","."
"2243.7649997882545","<p style=""color:white;""> Next Figure: Male or Female? </p>","190","html-keyboard-response","503","846618","0.0-19.0-0.25","prediction","","","",".",""
"null","<div style=""color:white; font-size:60px;"">+</div>","null","html-keyboard-response","504","847620","0.0-19.0-1.25","fixation","","","","",""
"1071.144999936223","Stimuli/Hangul_F21.bmp","190","image-keyboard-response","505","848692","0.0-19.0-2.25","c2_test",".","","","","."
"2821.754999924451","<p style=""color:white;""> Next Figure: Male or Female? </p>","190","html-keyboard-response","506","851516","0.0-19.0-0.26","prediction","","","",".",""
"null","<div style=""color:white; font-size:60px;"">+</div>","null","html-keyboard-response","507","852518","0.0-19.0-1.26","fixation","","","","",""
"922.2499998286366","Stimuli/Hangul_F8.bmp","190","image-keyboard-response","508","853442","0.0-19.0-2.26","c2_test",".","","","","."
"1584.5449999906123","<p style=""color:white;""> Next Figure: Male or Female? </p>","190","html-keyboard-response","509","855027","0.0-19.0-0.27","prediction","","","",".",""
"null","<div style=""color:white; font-size:60px;"">+</div>","null","html-keyboard-response","510","856030","0.0-19.0-1.27","fixation","","","","",""
"1899.4749998673797","Stimuli/Hangul_M7.bmp","188","image-keyboard-response","511","857930","0.0-19.0-2.27","c2_test",",","","","",","
"1434.9750000983477","<p style=""color:white;""> Next Figure: Male or Female? </p>","188","html-keyboard-response","512","859366","0.0-19.0-0.28","prediction","","","",",",""
"null","<div style=""color:white; font-size:60px;"">+</div>","null","html-keyboard-response","513","860379","0.0-19.0-1.28","fixation","","","","",""
"2065.500000026077","Stimuli/Hangul_F18.bmp","190","image-keyboard-response","514","862446","0.0-19.0-2.28","c2_test",".","","","","."
"1613.6900000274181","<p style=""color:white;""> Next Figure: Male or Female? </p>","190","html-keyboard-response","515","864061","0.0-19.0-0.29","prediction","","","",".",""
"null","<div style=""color:white; font-size:60px;"">+</div>","null","html-keyboard-response","516","865063","0.0-19.0-1.29","fixation","","","","",""
"935.0899998098612","Stimuli/Hangul_M2.bmp","188","image-keyboard-response","517","866000","0.0-19.0-2.29","c2_test",",","","","",","
"1277.7849999256432","<p style=""color:white;""> Next Figure: Male or Female? </p>","188","html-keyboard-response","518","867279","0.0-19.0-0.30","prediction","","","",",",""
"null","<div style=""color:white; font-size:60px;"">+</div>","null","html-keyboard-response","519","868281","0.0-19.0-1.30","fixation","","","","",""
"527.0600002259016","Stimuli/Hangul_M14.bmp","188","image-keyboard-response","520","868810","0.0-19.0-2.30","c2_test",",","","","",","
"1312.2049998492002","<p style=""color:white;""> Next Figure: Male or Female? </p>","188","html-keyboard-response","521","870123","0.0-19.0-0.31","prediction","","","",",",""
"null","<div style=""color:white; font-size:60px;"">+</div>","null","html-keyboard-response","522","871125","0.0-19.0-1.31","fixation","","","","",""
"479.79999985545874","Stimuli/Hangul_M4.bmp","188","image-keyboard-response","523","871605","0.0-19.0-2.31","c2_test",",","","","",","
"1803.8200000301003","<p style=""color:white;""> Next Figure: Male or Female? </p>","190","html-keyboard-response","524","873410","0.0-19.0-0.32","prediction","","","",".",""
"null","<div style=""color:white; font-size:60px;"">+</div>","null","html-keyboard-response","525","874412","0.0-19.0-1.32","fixation","","","","",""
"512.0900003239512","Stimuli/Hangul_F7.bmp","188","image-keyboard-response","526","874925","0.0-19.0-2.32","c2_test",".","","","",","
"709.2149998061359","<p style=""color:white;""> Next Figure: Male or Female? </p>","188","html-keyboard-response","527","875636","0.0-19.0-0.33","prediction","","","",",",""
"null","<div style=""color:white; font-size:60px;"">+</div>","null","html-keyboard-response","528","876637","0.0-19.0-1.33","fixation","","","","",""
"708.9150003157556","Stimuli/Hangul_F19.bmp","188","image-keyboard-response","529","877347","0.0-19.0-2.33","c2_test",".","","","",","
"1047.4149999208748","<p style=""color:white;""> Next Figure: Male or Female? </p>","188","html-keyboard-response","530","878395","0.0-19.0-0.34","prediction","","","",",",""
"null","<div style=""color:white; font-size:60px;"">+</div>","null","html-keyboard-response","531","879398","0.0-19.0-1.34","fixation","","","","",""
"1068.9949998632073","Stimuli/Hangul_M8.bmp","188","image-keyboard-response","532","880468","0.0-19.0-2.34","c2_test",",","","","",","
"682.4950003065169","<p style=""color:white;""> Next Figure: Male or Female? </p>","188","html-keyboard-response","533","881151","0.0-19.0-0.35","prediction","","","",",",""
"null","<div style=""color:white; font-size:60px;"">+</div>","null","html-keyboard-response","534","882153","0.0-19.0-1.35","fixation","","","","",""
"648.2850001193583","Stimuli/Hangul_F22.bmp","188","image-keyboard-response","535","882803","0.0-19.0-2.35","c2_test",".","","","",","
"806.4449997618794","<p style=""color:white;""> Next Figure: Male or Female? </p>","190","html-keyboard-response","536","883611","0.0-19.0-0.36","prediction","","","",".",""
"null","<div style=""color:white; font-size:60px;"">+</div>","null","html-keyboard-response","537","884613","0.0-19.0-1.36","fixation","","","","",""
"527.6049999520183","Stimuli/Hangul_F4.bmp","190","image-keyboard-response","538","885141","0.0-19.0-2.36","c2_test",".","","","","."
"1283.0349998548627","<p style=""color:white;""> Next Figure: Male or Female? </p>","190","html-keyboard-response","539","886425","0.0-19.0-0.37","prediction","","","",".",""
"null","<div style=""color:white; font-size:60px;"">+</div>","null","html-keyboard-response","540","887428","0.0-19.0-1.37","fixation","","","","",""
"844.9000003747642","Stimuli/Hangul_F20.bmp","190","image-keyboard-response","541","888274","0.0-19.0-2.37","c2_test",".","","","","."
"1001.759999897331","<p style=""color:white;""> Next Figure: Male or Female? </p>","190","html-keyboard-response","542","889277","0.0-19.0-0.38","prediction","","","",".",""
"null","<div style=""color:white; font-size:60px;"">+</div>","null","html-keyboard-response","543","890279","0.0-19.0-1.38","fixation","","","","",""
"1227.999999653548","Stimuli/Hangul_F13.bmp","188","image-keyboard-response","544","891508","0.0-19.0-2.38","c2_test",".","","","",","
"1149.820000398904","<p style=""color:white;""> Next Figure: Male or Female? </p>","188","html-keyboard-response","545","892659","0.0-19.0-0.39","prediction","","","",",",""
"null","<div style=""color:white; font-size:60px;"">+</div>","null","html-keyboard-response","546","893662","0.0-19.0-1.39","fixation","","","","",""
"468.28499995172024","Stimuli/Hangul_M9.bmp","188","image-keyboard-response","547","894131","0.0-19.0-2.39","c2_test",",","","","",","
"776.0950000956655","<p style=""color:white;""> Next Figure: Male or Female? </p>","188","html-keyboard-response","548","894908","0.0-19.0-0.40","prediction","","","",",",""
"null","<div style=""color:white; font-size:60px;"">+</div>","null","html-keyboard-response","549","895910","0.0-19.0-1.40","fixation","","","","",""
"496.1950001306832","Stimuli/Hangul_F0.bmp","188","image-keyboard-response","550","896407","0.0-19.0-2.40","c2_test",".","","","",","
"657.3950001038611","<p style=""color:white;""> Next Figure: Male or Female? </p>","188","html-keyboard-response","551","897065","0.0-19.0-0.41","prediction","","","",",",""
"null","<div style=""color:white; font-size:60px;"">+</div>","null","html-keyboard-response","552","898067","0.0-19.0-1.41","fixation","","","","",""
"693.7400000169873","Stimuli/Hangul_M23.bmp","188","image-keyboard-response","553","898761","0.0-19.0-2.41","c2_test",",","","","",","
"2644.934999756515","<p style=""color:white;""> Next Figure: Male or Female? </p>","190","html-keyboard-response","554","901407","0.0-19.0-0.42","prediction","","","",".",""
"null","<div style=""color:white; font-size:60px;"">+</div>","null","html-keyboard-response","555","902409","0.0-19.0-1.42","fixation","","","","",""
"757.0050000213087","Stimuli/Hangul_M24.bmp","188","image-keyboard-response","556","903168","0.0-19.0-2.42","c2_test",",","","","",","
"1615.6100002117455","<p style=""color:white;""> Next Figure: Male or Female? </p>","190","html-keyboard-response","557","904784","0.0-19.0-0.43","prediction","","","",".",""
"null","<div style=""color:white; font-size:60px;"">+</div>","null","html-keyboard-response","558","905786","0.0-19.0-1.43","fixation","","","","",""
"923.6750002019107","Stimuli/Hangul_F3.bmp","190","image-keyboard-response","559","906711","0.0-19.0-2.43","c2_test",".","","","","."
"1623.8400000147521","<p style=""color:white;""> Next Figure: Male or Female? </p>","188","html-keyboard-response","560","908336","0.0-19.0-0.44","prediction","","","",",",""
"null","<div style=""color:white; font-size:60px;"">+</div>","null","html-keyboard-response","561","909337","0.0-19.0-1.44","fixation","","","","",""
"526.2449998408556","Stimuli/Hangul_M3.bmp","188","image-keyboard-response","562","909864","0.0-19.0-2.44","c2_test",",","","","",","
"5924.070000182837","<p style=""color:white;""> Next Figure: Male or Female? </p>","188","html-keyboard-response","563","915789","0.0-19.0-0.45","prediction","","","",",",""
"null","<div style=""color:white; font-size:60px;"">+</div>","null","html-keyboard-response","564","916791","0.0-19.0-1.45","fixation","","","","",""
"833.3299998193979","Stimuli/Hangul_M19.bmp","188","image-keyboard-response","565","917626","0.0-19.0-2.45","c2_test",",","","","",","
"1181.7499999888241","<p style=""color:white;""> Next Figure: Male or Female? </p>","188","html-keyboard-response","566","918810","0.0-19.0-0.46","prediction","","","",",",""
"null","<div style=""color:white; font-size:60px;"">+</div>","null","html-keyboard-response","567","919812","0.0-19.0-1.46","fixation","","","","",""
"882.2949999012053","Stimuli/Hangul_M6.bmp","190","image-keyboard-response","568","920695","0.0-19.0-2.46","c2_test",",","","","","."
"1058.1550002098083","<p style=""color:white;""> Next Figure: Male or Female? </p>","190","html-keyboard-response","569","921755","0.0-19.0-0.47","prediction","","","",".",""
"null","<div style=""color:white; font-size:60px;"">+</div>","null","html-keyboard-response","570","922756","0.0-19.0-1.47","fixation","","","","",""
"821.2449997663498","Stimuli/Hangul_M10.bmp","190","image-keyboard-response","571","923578","0.0-19.0-2.47","c2_test",",","","","","."
"494.3849998526275","<p style=""color:white;""> Next Figure: Male or Female? </p>","190","html-keyboard-response","572","924074","0.0-19.0-0.48","prediction","","","",".",""
"null","<div style=""color:white; font-size:60px;"">+</div>","null","html-keyboard-response","573","925075","0.0-19.0-1.48","fixation","","","","",""
"617.9400002583861","Stimuli/Hangul_M0.bmp","190","image-keyboard-response","574","925694","0.0-19.0-2.48","c2_test",",","","","","."
"424.254999961704","<p style=""color:white;""> Next Figure: Male or Female? </p>","190","html-keyboard-response","575","926119","0.0-19.0-0.49","prediction","","","",".",""
"null","<div style=""color:white; font-size:60px;"">+</div>","null","html-keyboard-response","576","927122","0.0-19.0-1.49","fixation","","","","",""
"1014.2950001172721","Stimuli/Hangul_M13.bmp","190","image-keyboard-response","577","928138","0.0-19.0-2.49","c2_test",",","","","","."
"570797.1200002357","<p style=""color:white;"">Good job, block 1 complete! Please take a moment to rest.</p> <p style=""color:white;"">When you are ready to continue with block 2 of 4, press the space bar.</p> ","32","html-keyboard-response","578","1498936","0.0-20.0","","","","","",""
"1210.1149996742606","<p style=""color:white;""> Next Figure: Male or Female? </p>","188","html-keyboard-response","579","1502150","0.0-21.0-0.0","prediction","","","",",",""
"null","<div style=""color:white; font-size:60px;"">+</div>","null","html-keyboard-response","580","1503153","0.0-21.0-1.0","fixation","","","","",""
"499.1950001567602","Stimuli/Hangul_F25.bmp","188","image-keyboard-response","581","1503654","0.0-21.0-2.0","c2_test",".","","","",","
"4785.534999798983","<p style=""color:white;""> Next Figure: Male or Female? </p>","190","html-keyboard-response","582","1508443","0.0-21.0-0.1","prediction","","","",".",""
"null","<div style=""color:white; font-size:60px;"">+</div>","null","html-keyboard-response","583","1509445","0.0-21.0-1.1","fixation","","","","",""
"1098.5500002279878","Stimuli/Hangul_M47.bmp","190","image-keyboard-response","584","1510545","0.0-21.0-2.1","c2_test",",","","","","."
"961.7499997839332","<p style=""color:white;""> Next Figure: Male or Female? </p>","188","html-keyboard-response","585","1511508","0.0-21.0-0.2","prediction","","","",",",""
"null","<div style=""color:white; font-size:60px;"">+</div>","null","html-keyboard-response","586","1512510","0.0-21.0-1.2","fixation","","","","",""
"1048.5799997113645","Stimuli/Hangul_M37.bmp","188","image-keyboard-response","587","1513559","0.0-21.0-2.2","c2_test",",","","","",","
"1576.3799999840558","<p style=""color:white;""> Next Figure: Male or Female? </p>","190","html-keyboard-response","588","1515137","0.0-21.0-0.3","prediction","","","",".",""
"null","<div style=""color:white; font-size:60px;"">+</div>","null","html-keyboard-response","589","1516139","0.0-21.0-1.3","fixation","","","","",""
"487.8650000318885","Stimuli/Hangul_F29.bmp","190","image-keyboard-response","590","1516628","0.0-21.0-2.3","c2_test",".","","","","."
"1138.234999962151","<p style=""color:white;""> Next Figure: Male or Female? </p>","190","html-keyboard-response","591","1517767","0.0-21.0-0.4","prediction","","","",".",""
"null","<div style=""color:white; font-size:60px;"">+</div>","null","html-keyboard-response","592","1518769","0.0-21.0-1.4","fixation","","","","",""
"738.1549999117851","Stimuli/Hangul_M49.bmp","190","image-keyboard-response","593","1519508","0.0-21.0-2.4","c2_test",",","","","","."
"1595.0700002722442","<p style=""color:white;""> Next Figure: Male or Female? </p>","190","html-keyboard-response","594","1521104","0.0-21.0-0.5","prediction","","","",".",""
"null","<div style=""color:white; font-size:60px;"">+</div>","null","html-keyboard-response","595","1522106","0.0-21.0-1.5","fixation","","","","",""
"830.5699997581542","Stimuli/Hangul_F41.bmp","188","image-keyboard-response","596","1522938","0.0-21.0-2.5","c2_test",".","","","",","
"1423.3949999324977","<p style=""color:white;""> Next Figure: Male or Female? </p>","188","html-keyboard-response","597","1524363","0.0-21.0-0.6","prediction","","","",",",""
"null","<div style=""color:white; font-size:60px;"">+</div>","null","html-keyboard-response","598","1525365","0.0-21.0-1.6","fixation","","","","",""
"514.2100001685321","Stimuli/Hangul_M30.bmp","188","image-keyboard-response","599","1525880","0.0-21.0-2.6","c2_test",",","","","",","
"1270.3300002031028","<p style=""color:white;""> Next Figure: Male or Female? </p>","188","html-keyboard-response","600","1527151","0.0-21.0-0.7","prediction","","","",",",""
"null","<div style=""color:white; font-size:60px;"">+</div>","null","html-keyboard-response","601","1528153","0.0-21.0-1.7","fixation","","","","",""
"766.399999614805","Stimuli/Hangul_F49.bmp","188","image-keyboard-response","602","1528921","0.0-21.0-2.7","c2_test",".","","","",","
"940.8400002866983","<p style=""color:white;""> Next Figure: Male or Female? </p>","190","html-keyboard-response","603","1529863","0.0-21.0-0.8","prediction","","","",".",""
"null","<div style=""color:white; font-size:60px;"">+</div>","null","html-keyboard-response","604","1530865","0.0-21.0-1.8","fixation","","","","",""
"880.5849999189377","Stimuli/Hangul_M26.bmp","188","image-keyboard-response","605","1531746","0.0-21.0-2.8","c2_test",",","","","",","
"1118.284999858588","<p style=""color:white;""> Next Figure: Male or Female? </p>","188","html-keyboard-response","606","1532865","0.0-21.0-0.9","prediction","","","",",",""
"null","<div style=""color:white; font-size:60px;"">+</div>","null","html-keyboard-response","607","1533868","0.0-21.0-1.9","fixation","","","","",""
"901.3550002127886","Stimuli/Hangul_F44.bmp","190","image-keyboard-response","608","1534770","0.0-21.0-2.9","c2_test",".","","","","."
"1134.1550000943244","<p style=""color:white;""> Next Figure: Male or Female? </p>","190","html-keyboard-response","609","1535906","0.0-21.0-0.10","prediction","","","",".",""
"null","<div style=""color:white; font-size:60px;"">+</div>","null","html-keyboard-response","610","1536908","0.0-21.0-1.10","fixation","","","","",""
"1258.7600001133978","Stimuli/Hangul_M34.bmp","188","image-keyboard-response","611","1538168","0.0-21.0-2.10","c2_test",",","","","",","
"1167.3200000077486","<p style=""color:white;""> Next Figure: Male or Female? </p>","190","html-keyboard-response","612","1539336","0.0-21.0-0.11","prediction","","","",".",""
"null","<div style=""color:white; font-size:60px;"">+</div>","null","html-keyboard-response","613","1540339","0.0-21.0-1.11","fixation","","","","",""
"1138.5049996897578","Stimuli/Hangul_F47.bmp","188","image-keyboard-response","614","1541478","0.0-21.0-2.11","c2_test",".","","","",","
"1245.85000006482","<p style=""color:white;""> Next Figure: Male or Female? </p>","190","html-keyboard-response","615","1542725","0.0-21.0-0.12","prediction","","","",".",""
"null","<div style=""color:white; font-size:60px;"">+</div>","null","html-keyboard-response","616","1543726","0.0-21.0-1.12","fixation","","","","",""
"751.0500000789762","Stimuli/Hangul_F36.bmp","190","image-keyboard-response","617","1544478","0.0-21.0-2.12","c2_test",".","","","","."
"895.819999743253","<p style=""color:white;""> Next Figure: Male or Female? </p>","188","html-keyboard-response","618","1545376","0.0-21.0-0.13","prediction","","","",",",""
"null","<div style=""color:white; font-size:60px;"">+</div>","null","html-keyboard-response","619","1546378","0.0-21.0-1.13","fixation","","","","",""
"461.20999986305833","Stimuli/Hangul_F26.bmp","188","image-keyboard-response","620","1546840","0.0-21.0-2.13","c2_test",".","","","",","
"698.9299999549985","<p style=""color:white;""> Next Figure: Male or Female? </p>","188","html-keyboard-response","621","1547540","0.0-21.0-0.14","prediction","","","",",",""
"null","<div style=""color:white; font-size:60px;"">+</div>","null","html-keyboard-response","622","1548542","0.0-21.0-1.14","fixation","","","","",""
"788.1499999202788","Stimuli/Hangul_F42.bmp","190","image-keyboard-response","623","1549331","0.0-21.0-2.14","c2_test",".","","","","."
"699.1749997250736","<p style=""color:white;""> Next Figure: Male or Female? </p>","190","html-keyboard-response","624","1550032","0.0-21.0-0.15","prediction","","","",".",""
"null","<div style=""color:white; font-size:60px;"">+</div>","null","html-keyboard-response","625","1551033","0.0-21.0-1.15","fixation","","","","",""
"1779.9849999137223","Stimuli/Hangul_M32.bmp","190","image-keyboard-response","626","1552814","0.0-21.0-2.15","c2_test",",","","","","."
"933.6099997162819","<p style=""color:white;""> Next Figure: Male or Female? </p>","188","html-keyboard-response","627","1553748","0.0-21.0-0.16","prediction","","","",",",""
"null","<div style=""color:white; font-size:60px;"">+</div>","null","html-keyboard-response","628","1554751","0.0-21.0-1.16","fixation","","","","",""
"1067.615000065416","Stimuli/Hangul_F39.bmp","190","image-keyboard-response","629","1555820","0.0-21.0-2.16","c2_test",".","","","","."
"667.6350003108382","<p style=""color:white;""> Next Figure: Male or Female? </p>","190","html-keyboard-response","630","1556489","0.0-21.0-0.17","prediction","","","",".",""
"null","<div style=""color:white; font-size:60px;"">+</div>","null","html-keyboard-response","631","1557489","0.0-21.0-1.17","fixation","","","","",""
"745.2549999579787","Stimuli/Hangul_F35.bmp","190","image-keyboard-response","632","1558236","0.0-21.0-2.17","c2_test",".","","","","."
"780.5800000205636","<p style=""color:white;""> Next Figure: Male or Female? </p>","188","html-keyboard-response","633","1559018","0.0-21.0-0.18","prediction","","","",",",""
"null","<div style=""color:white; font-size:60px;"">+</div>","null","html-keyboard-response","634","1560020","0.0-21.0-1.18","fixation","","","","",""
"480.8200001716614","Stimuli/Hangul_F45.bmp","188","image-keyboard-response","635","1560501","0.0-21.0-2.18","c2_test",".","","","",","
"952.409999910742","<p style=""color:white;""> Next Figure: Male or Female? </p>","188","html-keyboard-response","636","1561455","0.0-21.0-0.19","prediction","","","",",",""
"null","<div style=""color:white; font-size:60px;"">+</div>","null","html-keyboard-response","637","1562457","0.0-21.0-1.19","fixation","","","","",""
"673.7649999558926","Stimuli/Hangul_M39.bmp","190","image-keyboard-response","638","1563132","0.0-21.0-2.19","c2_test",",","","","","."
"611.0450001433492","<p style=""color:white;""> Next Figure: Male or Female? </p>","190","html-keyboard-response","639","1563744","0.0-21.0-0.20","prediction","","","",".",""
"null","<div style=""color:white; font-size:60px;"">+</div>","null","html-keyboard-response","640","1564745","0.0-21.0-1.20","fixation","","","","",""
"691.6799996979535","Stimuli/Hangul_M42.bmp","190","image-keyboard-response","641","1565438","0.0-21.0-2.20","c2_test",",","","","","."
"705.7600002735853","<p style=""color:white;""> Next Figure: Male or Female? </p>","190","html-keyboard-response","642","1566144","0.0-21.0-0.21","prediction","","","",".",""
"null","<div style=""color:white; font-size:60px;"">+</div>","null","html-keyboard-response","643","1567146","0.0-21.0-1.21","fixation","","","","",""
"504.40500024706125","Stimuli/Hangul_M40.bmp","190","image-keyboard-response","644","1567651","0.0-21.0-2.21","c2_test",",","","","","."
"462.4900002963841","<p style=""color:white;""> Next Figure: Male or Female? </p>","190","html-keyboard-response","645","1568114","0.0-21.0-0.22","prediction","","","",".",""
"null","<div style=""color:white; font-size:60px;"">+</div>","null","html-keyboard-response","646","1569116","0.0-21.0-1.22","fixation","","","","",""
"930.2899995818734","Stimuli/Hangul_M25.bmp","190","image-keyboard-response","647","1570048","0.0-21.0-2.22","c2_test",",","","","","."
"491.090000141412","<p style=""color:white;""> Next Figure: Male or Female? </p>","190","html-keyboard-response","648","1570540","0.0-21.0-0.23","prediction","","","",".",""
"null","<div style=""color:white; font-size:60px;"">+</div>","null","html-keyboard-response","649","1571542","0.0-21.0-1.23","fixation","","","","",""
"683.2149997353554","Stimuli/Hangul_M38.bmp","190","image-keyboard-response","650","1572226","0.0-21.0-2.23","c2_test",",","","","","."
"405.12000024318695","<p style=""color:white;""> Next Figure: Male or Female? </p>","190","html-keyboard-response","651","1572633","0.0-21.0-0.24","prediction","","","",".",""
"null","<div style=""color:white; font-size:60px;"">+</div>","null","html-keyboard-response","652","1573634","0.0-21.0-1.24","fixation","","","","",""
"932.8749999403954","Stimuli/Hangul_F46.bmp","188","image-keyboard-response","653","1574568","0.0-21.0-2.24","c2_test",".","","","",","
"1121.830000076443","<p style=""color:white;""> Next Figure: Male or Female? </p>","188","html-keyboard-response","654","1575691","0.0-21.0-0.25","prediction","","","",",",""
"null","<div style=""color:white; font-size:60px;"">+</div>","null","html-keyboard-response","655","1576693","0.0-21.0-1.25","fixation","","","","",""
"1017.2449997626245","Stimuli/Hangul_M27.bmp","188","image-keyboard-response","656","1577712","0.0-21.0-2.25","c2_test",",","","","",","
