"rt","stimulus","key_press","trial_type","trial_index","time_elapsed","internal_node_id","test_part","correct_response","C1_train","C1","A","C2"
"1833.6350000463426","<p style=""color:white;"">Welcome to the experiment! Press any key to begin.</p>","32","html-keyboard-response","0","1841","0.0-0.0","","","","","",""
"21792.840000009164","<p style=""color:white;"">You will see a series of abstract figures. They are adaptations of signs in the Korean alphabet, but that is not important for this study. </p><p style=""color:white;"">Abstract figures sometimes have a more masculine or feminine shape. Here, each figure has already been assigned a gender as <q>Male</q> or <q>Female</q> by a panel of respondents in a pilot study. The respondents were not given specific instructions on how to do this, but were only told to use their intuition and to take into account the entire configuration of the stimulus. </p><p style=""color:white;"">Your task now is to guess the assigned gender of each figure. Please press the corresponding response keys to indicate your choice: </p><p style=""color:white;""> Male &#8594 <q>,</q> (comma)</p><p style=""color:white;""> Female &#8594 <q>.</q> (period)</p><p style=""color:white;"">Press either response keys to continue.</p>","190","html-keyboard-response","1","23636","0.0-1.0","","","","","",""
"11156.469999928959","<p style=""color:white;"">Your choice is correct if it matches the gender assigned by the majority of respondents in the pilot study.</p> <p style=""color:white;"">For each correct choice you will receive 2 cents. There will be 200 trials divided into 4 blocks of 50 trials. You will be able to take a break after every 50 trials.</p> <p style=""color:white;"">Press the space bar to continue.</p>","32","html-keyboard-response","2","34794","0.0-2.0","","","","","",""
"3086.5350000094622","<p style=""color:white;"">Here are some examples.</p> <p style=""color:white;"">For each, guess whether the assigned figure is male-like or female-like and indicate your choice by pressing either response keys.</p> <p style=""color:white;"">Press the space bar to continue.</p>","32","html-keyboard-response","3","37882","0.0-3.0","","","","","",""
"null","<div style=""color:white; font-size:60px;"">+</div>","null","html-keyboard-response","4","40885","0.0-4.0-0.0","fixation","","","","",""
"2428.6400000564754","Stimuli/Hangul_E2.bmp","188","image-keyboard-response","5","43317","0.0-4.0-1.0","c1_train",".",",","","",""
"null","<div style=""color:white; font-size:60px;"">+</div>","null","html-keyboard-response","6","44318","0.0-4.0-0.1","fixation","","","","",""
"2198.8000000128523","Stimuli/Hangul_E0.bmp","188","image-keyboard-response","7","46518","0.0-4.0-1.1","c1_train",",",",","","",""
"null","<div style=""color:white; font-size:60px;"">+</div>","null","html-keyboard-response","8","47520","0.0-4.0-0.2","fixation","","","","",""
"1779.5300000580028","Stimuli/Hangul_E1.bmp","190","image-keyboard-response","9","49300","0.0-4.0-1.2","c1_train",",",".","","",""
"2623.120000003837","<p style=""color:white;"">Let us begin! Press the space bar when you are ready to start block 1 of 4.</p> ","32","html-keyboard-response","10","51925","0.0-5.0","","","","","",""
"null","<div style=""color:white; font-size:60px;"">+</div>","null","html-keyboard-response","11","54927","0.0-6.0-0.0","fixation","","","","",""
"2175.8100000442937","Stimuli/Hangul_F22.bmp","188","image-keyboard-response","12","57105","0.0-6.0-1.0","test",".","",",","",""
"null","<div style=""color:white; font-size:60px;"">+</div>","null","html-keyboard-response","13","58106","0.0-6.0-0.1","fixation","","","","",""
"2496.515000006184","Stimuli/Hangul_M20.bmp","190","image-keyboard-response","14","60604","0.0-6.0-1.1","test",",","",".","",""
"null","<div style=""color:white; font-size:60px;"">+</div>","null","html-keyboard-response","15","61606","0.0-6.0-0.2","fixation","","","","",""
"2042.9249999579042","Stimuli/Hangul_M9.bmp","188","image-keyboard-response","16","63650","0.0-6.0-1.2","test",",","",",","",""
"null","<div style=""color:white; font-size:60px;"">+</div>","null","html-keyboard-response","17","64651","0.0-6.0-0.3","fixation","","","","",""
"2549.0999999456108","Stimuli/Hangul_M15.bmp","188","image-keyboard-response","18","67201","0.0-6.0-1.3","test",",","",",","",""
"null","<div style=""color:white; font-size:60px;"">+</div>","null","html-keyboard-response","19","68203","0.0-6.0-0.4","fixation","","","","",""
"2378.6000000545755","Stimuli/Hangul_M2.bmp","188","image-keyboard-response","20","70584","0.0-6.0-1.4","test",",","",",","",""
"null","<div style=""color:white; font-size:60px;"">+</div>","null","html-keyboard-response","21","71586","0.0-6.0-0.5","fixation","","","","",""
"1929.8049999633804","Stimuli/Hangul_M13.bmp","190","image-keyboard-response","22","73518","0.0-6.0-1.5","test",",","",".","",""
"null","<div style=""color:white; font-size:60px;"">+</div>","null","html-keyboard-response","23","74520","0.0-6.0-0.6","fixation","","","","",""
"2259.46499989368","Stimuli/Hangul_M24.bmp","190","image-keyboard-response","24","76780","0.0-6.0-1.6","test",",","",".","",""
"null","<div style=""color:white; font-size:60px;"">+</div>","null","html-keyboard-response","25","77792","0.0-6.0-0.7","fixation","","","","",""
"2187.1749999700114","Stimuli/Hangul_M4.bmp","188","image-keyboard-response","26","79983","0.0-6.0-1.7","test",",","",",","",""
"null","<div style=""color:white; font-size:60px;"">+</div>","null","html-keyboard-response","27","80984","0.0-6.0-0.8","fixation","","","","",""
"2219.954999978654","Stimuli/Hangul_F8.bmp","190","image-keyboard-response","28","83206","0.0-6.0-1.8","test",".","",".","",""
"null","<div style=""color:white; font-size:60px;"">+</div>","null","html-keyboard-response","29","84208","0.0-6.0-0.9","fixation","","","","",""
"2182.0699999807402","Stimuli/Hangul_F23.bmp","188","image-keyboard-response","30","86391","0.0-6.0-1.9","test",".","",",","",""
"null","<div style=""color:white; font-size:60px;"">+</div>","null","html-keyboard-response","31","87392","0.0-6.0-0.10","fixation","","","","",""
"2275.4249999998137","Stimuli/Hangul_F12.bmp","190","image-keyboard-response","32","89669","0.0-6.0-1.10","test",".","",".","",""
"null","<div style=""color:white; font-size:60px;"">+</div>","null","html-keyboard-response","33","90671","0.0-6.0-0.11","fixation","","","","",""
"1857.3650000616908","Stimuli/Hangul_F1.bmp","190","image-keyboard-response","34","92529","0.0-6.0-1.11","test",".","",".","",""
"null","<div style=""color:white; font-size:60px;"">+</div>","null","html-keyboard-response","35","93531","0.0-6.0-0.12","fixation","","","","",""
"1975.8949999231845","Stimuli/Hangul_F24.bmp","188","image-keyboard-response","36","95508","0.0-6.0-1.12","test",".","",",","",""
"null","<div style=""color:white; font-size:60px;"">+</div>","null","html-keyboard-response","37","96511","0.0-6.0-0.13","fixation","","","","",""
"1984.5450000138953","Stimuli/Hangul_F10.bmp","190","image-keyboard-response","38","98496","0.0-6.0-1.13","test",".","",".","",""
"null","<div style=""color:white; font-size:60px;"">+</div>","null","html-keyboard-response","39","99498","0.0-6.0-0.14","fixation","","","","",""
"1959.9300000118092","Stimuli/Hangul_M3.bmp","188","image-keyboard-response","40","101459","0.0-6.0-1.14","test",",","",",","",""
"null","<div style=""color:white; font-size:60px;"">+</div>","null","html-keyboard-response","41","102461","0.0-6.0-0.15","fixation","","","","",""
"1973.8800000632182","Stimuli/Hangul_F7.bmp","188","image-keyboard-response","42","104436","0.0-6.0-1.15","test",".","",",","",""
"null","<div style=""color:white; font-size:60px;"">+</div>","null","html-keyboard-response","43","105438","0.0-6.0-0.16","fixation","","","","",""
"2733.5949999978766","Stimuli/Hangul_F2.bmp","190","image-keyboard-response","44","108173","0.0-6.0-1.16","test",".","",".","",""
"null","<div style=""color:white; font-size:60px;"">+</div>","null","html-keyboard-response","45","109175","0.0-6.0-0.17","fixation","","","","",""
"1914.1949999611825","Stimuli/Hangul_F11.bmp","188","image-keyboard-response","46","111090","0.0-6.0-1.17","test",".","",",","",""
"null","<div style=""color:white; font-size:60px;"">+</div>","null","html-keyboard-response","47","112092","0.0-6.0-0.18","fixation","","","","",""
"2116.260000038892","Stimuli/Hangul_F3.bmp","188","image-keyboard-response","48","114209","0.0-6.0-1.18","test",".","",",","",""
"null","<div style=""color:white; font-size:60px;"">+</div>","null","html-keyboard-response","49","115211","0.0-6.0-0.19","fixation","","","","",""
"2302.394999889657","Stimuli/Hangul_M14.bmp","188","image-keyboard-response","50","117515","0.0-6.0-1.19","test",",","",",","",""
"null","<div style=""color:white; font-size:60px;"">+</div>","null","html-keyboard-response","51","118516","0.0-6.0-0.20","fixation","","","","",""
"2236.1350000137463","Stimuli/Hangul_F16.bmp","188","image-keyboard-response","52","120753","0.0-6.0-1.20","test",".","",",","",""
"null","<div style=""color:white; font-size:60px;"">+</div>","null","html-keyboard-response","53","121756","0.0-6.0-0.21","fixation","","","","",""
"2137.4249999644235","Stimuli/Hangul_M7.bmp","190","image-keyboard-response","54","123894","0.0-6.0-1.21","test",",","",".","",""
"null","<div style=""color:white; font-size:60px;"">+</div>","null","html-keyboard-response","55","124896","0.0-6.0-0.22","fixation","","","","",""
"1977.7999999932945","Stimuli/Hangul_M19.bmp","190","image-keyboard-response","56","126875","0.0-6.0-1.22","test",",","",".","",""
"null","<div style=""color:white; font-size:60px;"">+</div>","null","html-keyboard-response","57","127877","0.0-6.0-0.23","fixation","","","","",""
"2163.3350000483915","Stimuli/Hangul_F20.bmp","188","image-keyboard-response","58","130042","0.0-6.0-1.23","test",".","",",","",""
"null","<div style=""color:white; font-size:60px;"">+</div>","null","html-keyboard-response","59","131043","0.0-6.0-0.24","fixation","","","","",""
"1938.369999988936","Stimuli/Hangul_M22.bmp","188","image-keyboard-response","60","132983","0.0-6.0-1.24","test",",","",",","",""
"null","<div style=""color:white; font-size:60px;"">+</div>","null","html-keyboard-response","61","133994","0.0-6.0-0.25","fixation","","","","",""
"1807.5699999462813","Stimuli/Hangul_F14.bmp","190","image-keyboard-response","62","135802","0.0-6.0-1.25","test",".","",".","",""
"null","<div style=""color:white; font-size:60px;"">+</div>","null","html-keyboard-response","63","136803","0.0-6.0-0.26","fixation","","","","",""
"2045.7450000103563","Stimuli/Hangul_M21.bmp","188","image-keyboard-response","64","138850","0.0-6.0-1.26","test",",","",",","",""
"null","<div style=""color:white; font-size:60px;"">+</div>","null","html-keyboard-response","65","139852","0.0-6.0-0.27","fixation","","","","",""
"1981.359999976121","Stimuli/Hangul_M16.bmp","188","image-keyboard-response","66","141834","0.0-6.0-1.27","test",",","",",","",""
"null","<div style=""color:white; font-size:60px;"">+</div>","null","html-keyboard-response","67","142836","0.0-6.0-0.28","fixation","","","","",""
"2083.974999957718","Stimuli/Hangul_M18.bmp","188","image-keyboard-response","68","144921","0.0-6.0-1.28","test",",","",",","",""
"null","<div style=""color:white; font-size:60px;"">+</div>","null","html-keyboard-response","69","145925","0.0-6.0-0.29","fixation","","","","",""
"2102.1850000834092","Stimuli/Hangul_M6.bmp","188","image-keyboard-response","70","148029","0.0-6.0-1.29","test",",","",",","",""
"null","<div style=""color:white; font-size:60px;"">+</div>","null","html-keyboard-response","71","149031","0.0-6.0-0.30","fixation","","","","",""
"2033.5849999682978","Stimuli/Hangul_M0.bmp","188","image-keyboard-response","72","151066","0.0-6.0-1.30","test",",","",",","",""
"null","<div style=""color:white; font-size:60px;"">+</div>","null","html-keyboard-response","73","152067","0.0-6.0-0.31","fixation","","","","",""
"2129.134999937378","Stimuli/Hangul_M1.bmp","190","image-keyboard-response","74","154198","0.0-6.0-1.31","test",",","",".","",""
"null","<div style=""color:white; font-size:60px;"">+</div>","null","html-keyboard-response","75","155200","0.0-6.0-0.32","fixation","","","","",""
"2295.2649999642745","Stimuli/Hangul_M17.bmp","188","image-keyboard-response","76","157496","0.0-6.0-1.32","test",",","",",","",""
"null","<div style=""color:white; font-size:60px;"">+</div>","null","html-keyboard-response","77","158498","0.0-6.0-0.33","fixation","","","","",""
"2161.765000084415","Stimuli/Hangul_M11.bmp","188","image-keyboard-response","78","160661","0.0-6.0-1.33","test",",","",",","",""
"null","<div style=""color:white; font-size:60px;"">+</div>","null","html-keyboard-response","79","161663","0.0-6.0-0.34","fixation","","","","",""
"3899.915000074543","Stimuli/Hangul_F5.bmp","190","image-keyboard-response","80","165564","0.0-6.0-1.34","test",".","",".","",""
"null","<div style=""color:white; font-size:60px;"">+</div>","null","html-keyboard-response","81","166566","0.0-6.0-0.35","fixation","","","","",""
"2194.885000004433","Stimuli/Hangul_M12.bmp","188","image-keyboard-response","82","168762","0.0-6.0-1.35","test",",","",",","",""
"null","<div style=""color:white; font-size:60px;"">+</div>","null","html-keyboard-response","83","169764","0.0-6.0-0.36","fixation","","","","",""
"1997.8800000390038","Stimuli/Hangul_F17.bmp","188","image-keyboard-response","84","171764","0.0-6.0-1.36","test",".","",",","",""
"null","<div style=""color:white; font-size:60px;"">+</div>","null","html-keyboard-response","85","172765","0.0-6.0-0.37","fixation","","","","",""
"1786.424999940209","Stimuli/Hangul_F4.bmp","190","image-keyboard-response","86","174553","0.0-6.0-1.37","test",".","",".","",""
"null","<div style=""color:white; font-size:60px;"">+</div>","null","html-keyboard-response","87","175555","0.0-6.0-0.38","fixation","","","","",""
"1890.335000003688","Stimuli/Hangul_F19.bmp","190","image-keyboard-response","88","177447","0.0-6.0-1.38","test",".","",".","",""
"null","<div style=""color:white; font-size:60px;"">+</div>","null","html-keyboard-response","89","178450","0.0-6.0-0.39","fixation","","","","",""
"2051.3300000457093","Stimuli/Hangul_M10.bmp","188","image-keyboard-response","90","180502","0.0-6.0-1.39","test",",","",",","",""
"null","<div style=""color:white; font-size:60px;"">+</div>","null","html-keyboard-response","91","181504","0.0-6.0-0.40","fixation","","","","",""
"1869.3499999353662","Stimuli/Hangul_F0.bmp","188","image-keyboard-response","92","183375","0.0-6.0-1.40","test",".","",",","",""
"null","<div style=""color:white; font-size:60px;"">+</div>","null","html-keyboard-response","93","184377","0.0-6.0-0.41","fixation","","","","",""
"1887.3299999395385","Stimuli/Hangul_M23.bmp","190","image-keyboard-response","94","186265","0.0-6.0-1.41","test",",","",".","",""
"null","<div style=""color:white; font-size:60px;"">+</div>","null","html-keyboard-response","95","187268","0.0-6.0-0.42","fixation","","","","",""
"1621.3050000369549","Stimuli/Hangul_F21.bmp","190","image-keyboard-response","96","188891","0.0-6.0-1.42","test",".","",".","",""
"null","<div style=""color:white; font-size:60px;"">+</div>","null","html-keyboard-response","97","189893","0.0-6.0-0.43","fixation","","","","",""
"2385.104999993928","Stimuli/Hangul_F6.bmp","188","image-keyboard-response","98","192279","0.0-6.0-1.43","test",".","",",","",""
"null","<div style=""color:white; font-size:60px;"">+</div>","null","html-keyboard-response","99","193280","0.0-6.0-0.44","fixation","","","","",""
"3985.2500000270084","Stimuli/Hangul_M5.bmp","188","image-keyboard-response","100","197267","0.0-6.0-1.44","test",",","",",","",""
"null","<div style=""color:white; font-size:60px;"">+</div>","null","html-keyboard-response","101","198270","0.0-6.0-0.45","fixation","","","","",""
"5437.975000008009","Stimuli/Hangul_F9.bmp","188","image-keyboard-response","102","203709","0.0-6.0-1.45","test",".","",",","",""
"null","<div style=""color:white; font-size:60px;"">+</div>","null","html-keyboard-response","103","204712","0.0-6.0-0.46","fixation","","","","",""
"1912.1449999511242","Stimuli/Hangul_F18.bmp","190","image-keyboard-response","104","206626","0.0-6.0-1.46","test",".","",".","",""
"null","<div style=""color:white; font-size:60px;"">+</div>","null","html-keyboard-response","105","207628","0.0-6.0-0.47","fixation","","","","",""
"2031.375000020489","Stimuli/Hangul_M8.bmp","188","image-keyboard-response","106","209660","0.0-6.0-1.47","test",",","",",","",""
"null","<div style=""color:white; font-size:60px;"">+</div>","null","html-keyboard-response","107","210662","0.0-6.0-0.48","fixation","","","","",""
"1939.9949999060482","Stimuli/Hangul_F13.bmp","188","image-keyboard-response","108","212603","0.0-6.0-1.48","test",".","",",","",""
"null","<div style=""color:white; font-size:60px;"">+</div>","null","html-keyboard-response","109","213605","0.0-6.0-0.49","fixation","","","","",""
"2363.595000002533","Stimuli/Hangul_F15.bmp","188","image-keyboard-response","110","215970","0.0-6.0-1.49","test",".","",",","",""
"3399.725000024773","<p style=""color:white;"">Good job, block 1 complete! Please take a moment to rest.</p> <p style=""color:white;"">When you are ready to continue with block 2 of 4, press the space bar.</p> ","32","html-keyboard-response","111","219371","0.0-7.0","","","","","",""
"null","<div style=""color:white; font-size:60px;"">+</div>","null","html-keyboard-response","112","222375","0.0-8.0-0.0","fixation","","","","",""
"1747.2749999724329","Stimuli/Hangul_F32.bmp","190","image-keyboard-response","113","224124","0.0-8.0-1.0","test",".","",".","",""
"null","<div style=""color:white; font-size:60px;"">+</div>","null","html-keyboard-response","114","225126","0.0-8.0-0.1","fixation","","","","",""
"1855.4849999491125","Stimuli/Hangul_M35.bmp","188","image-keyboard-response","115","226982","0.0-8.0-1.1","test",",","",",","",""
"null","<div style=""color:white; font-size:60px;"">+</div>","null","html-keyboard-response","116","227984","0.0-8.0-0.2","fixation","","","","",""
"1908.1050000386313","Stimuli/Hangul_F45.bmp","190","image-keyboard-response","117","229893","0.0-8.0-1.2","test",".","",".","",""
"null","<div style=""color:white; font-size:60px;"">+</div>","null","html-keyboard-response","118","230895","0.0-8.0-0.3","fixation","","","","",""
"1856.1599999666214","Stimuli/Hangul_M30.bmp","188","image-keyboard-response","119","232752","0.0-8.0-1.3","test",",","",",","",""
"null","<div style=""color:white; font-size:60px;"">+</div>","null","html-keyboard-response","120","233755","0.0-8.0-0.4","fixation","","","","",""
"1798.1150000123307","Stimuli/Hangul_M44.bmp","188","image-keyboard-response","121","235556","0.0-8.0-1.4","test",",","",",","",""
"null","<div style=""color:white; font-size:60px;"">+</div>","null","html-keyboard-response","122","236559","0.0-8.0-0.5","fixation","","","","",""
"1763.014999916777","Stimuli/Hangul_F35.bmp","190","image-keyboard-response","123","238323","0.0-8.0-1.5","test",".","",".","",""
"null","<div style=""color:white; font-size:60px;"">+</div>","null","html-keyboard-response","124","239325","0.0-8.0-0.6","fixation","","","","",""
"2022.1299999393523","Stimuli/Hangul_M33.bmp","188","image-keyboard-response","125","241348","0.0-8.0-1.6","test",",","",",","",""
"null","<div style=""color:white; font-size:60px;"">+</div>","null","html-keyboard-response","126","242349","0.0-8.0-0.7","fixation","","","","",""
"1762.2599999886006","Stimuli/Hangul_F31.bmp","190","image-keyboard-response","127","244112","0.0-8.0-1.7","test",".","",".","",""
"null","<div style=""color:white; font-size:60px;"">+</div>","null","html-keyboard-response","128","245114","0.0-8.0-0.8","fixation","","","","",""
"1730.1549999974668","Stimuli/Hangul_M41.bmp","188","image-keyboard-response","129","246845","0.0-8.0-1.8","test",",","",",","",""
"null","<div style=""color:white; font-size:60px;"">+</div>","null","html-keyboard-response","130","247847","0.0-8.0-0.9","fixation","","","","",""
"1814.3749999580905","Stimuli/Hangul_F47.bmp","188","image-keyboard-response","131","249663","0.0-8.0-1.9","test",".","",",","",""
"null","<div style=""color:white; font-size:60px;"">+</div>","null","html-keyboard-response","132","250664","0.0-8.0-0.10","fixation","","","","",""
"2464.60000006482","Stimuli/Hangul_F37.bmp","190","image-keyboard-response","133","253130","0.0-8.0-1.10","test",".","",".","",""
"null","<div style=""color:white; font-size:60px;"">+</div>","null","html-keyboard-response","134","254133","0.0-8.0-0.11","fixation","","","","",""
"1728.1349999830127","Stimuli/Hangul_F29.bmp","190","image-keyboard-response","135","255862","0.0-8.0-1.11","test",".","",".","",""
"null","<div style=""color:white; font-size:60px;"">+</div>","null","html-keyboard-response","136","256863","0.0-8.0-0.12","fixation","","","","",""
"2046.8399999663234","Stimuli/Hangul_F46.bmp","188","image-keyboard-response","137","258911","0.0-8.0-1.12","test",".","",",","",""
"null","<div style=""color:white; font-size:60px;"">+</div>","null","html-keyboard-response","138","259913","0.0-8.0-0.13","fixation","","","","",""
"1849.8950001085177","Stimuli/Hangul_M27.bmp","188","image-keyboard-response","139","261764","0.0-8.0-1.13","test",",","",",","",""
"null","<div style=""color:white; font-size:60px;"">+</div>","null","html-keyboard-response","140","262781","0.0-8.0-0.14","fixation","","","","",""
"1902.974999975413","Stimuli/Hangul_F26.bmp","190","image-keyboard-response","141","264685","0.0-8.0-1.14","test",".","",".","",""
"null","<div style=""color:white; font-size:60px;"">+</div>","null","html-keyboard-response","142","265687","0.0-8.0-0.15","fixation","","","","",""
"2155.140000046231","Stimuli/Hangul_F49.bmp","188","image-keyboard-response","143","267843","0.0-8.0-1.15","test",".","",",","",""
"null","<div style=""color:white; font-size:60px;"">+</div>","null","html-keyboard-response","144","268846","0.0-8.0-0.16","fixation","","","","",""
"1844.0150000387803","Stimuli/Hangul_M39.bmp","188","image-keyboard-response","145","270691","0.0-8.0-1.16","test",",","",",","",""
"null","<div style=""color:white; font-size:60px;"">+</div>","null","html-keyboard-response","146","271693","0.0-8.0-0.17","fixation","","","","",""
"2277.8300000354648","Stimuli/Hangul_M26.bmp","188","image-keyboard-response","147","273972","0.0-8.0-1.17","test",",","",",","",""
"null","<div style=""color:white; font-size:60px;"">+</div>","null","html-keyboard-response","148","274973","0.0-8.0-0.18","fixation","","","","",""
"2197.9050000663847","Stimuli/Hangul_M37.bmp","190","image-keyboard-response","149","277173","0.0-8.0-1.18","test",",","",".","",""
"null","<div style=""color:white; font-size:60px;"">+</div>","null","html-keyboard-response","150","278174","0.0-8.0-0.19","fixation","","","","",""
"2491.6299999458715","Stimuli/Hangul_F34.bmp","190","image-keyboard-response","151","280666","0.0-8.0-1.19","test",".","",".","",""
"null","<div style=""color:white; font-size:60px;"">+</div>","null","html-keyboard-response","152","281668","0.0-8.0-0.20","fixation","","","","",""
"1975.8950000395998","Stimuli/Hangul_M29.bmp","188","image-keyboard-response","153","283645","0.0-8.0-1.20","test",",","",",","",""
"null","<div style=""color:white; font-size:60px;"">+</div>","null","html-keyboard-response","154","284656","0.0-8.0-0.21","fixation","","","","",""
"1789.37999997288","Stimuli/Hangul_F42.bmp","190","image-keyboard-response","155","286447","0.0-8.0-1.21","test",".","",".","",""
"null","<div style=""color:white; font-size:60px;"">+</div>","null","html-keyboard-response","156","287449","0.0-8.0-0.22","fixation","","","","",""
"1930.3700000746176","Stimuli/Hangul_F48.bmp","188","image-keyboard-response","157","289381","0.0-8.0-1.22","test",".","",",","",""
"null","<div style=""color:white; font-size:60px;"">+</div>","null","html-keyboard-response","158","290383","0.0-8.0-0.23","fixation","","","","",""
"1855.769999907352","Stimuli/Hangul_M43.bmp","188","image-keyboard-response","159","292240","0.0-8.0-1.23","test",",","",",","",""
"null","<div style=""color:white; font-size:60px;"">+</div>","null","html-keyboard-response","160","293242","0.0-8.0-0.24","fixation","","","","",""
"1863.645000034012","Stimuli/Hangul_M49.bmp","188","image-keyboard-response","161","295107","0.0-8.0-1.24","test",",","",",","",""
"null","<div style=""color:white; font-size:60px;"">+</div>","null","html-keyboard-response","162","296109","0.0-8.0-0.25","fixation","","","","",""
"1689.8700000019744","Stimuli/Hangul_F33.bmp","190","image-keyboard-response","163","297800","0.0-8.0-1.25","test",".","",".","",""
"null","<div style=""color:white; font-size:60px;"">+</div>","null","html-keyboard-response","164","298801","0.0-8.0-0.26","fixation","","","","",""
"1725.205000024289","Stimuli/Hangul_M48.bmp","188","image-keyboard-response","165","300528","0.0-8.0-1.26","test",",","",",","",""
"null","<div style=""color:white; font-size:60px;"">+</div>","null","html-keyboard-response","166","301533","0.0-8.0-0.27","fixation","","","","",""
"1898.494999972172","Stimuli/Hangul_M32.bmp","188","image-keyboard-response","167","303432","0.0-8.0-1.27","test",",","",",","",""
"null","<div style=""color:white; font-size:60px;"">+</div>","null","html-keyboard-response","168","304435","0.0-8.0-0.28","fixation","","","","",""
"1963.590000057593","Stimuli/Hangul_M45.bmp","188","image-keyboard-response","169","306399","0.0-8.0-1.28","test",",","",",","",""
"null","<div style=""color:white; font-size:60px;"">+</div>","null","html-keyboard-response","170","307402","0.0-8.0-0.29","fixation","","","","",""
"2011.8849999271333","Stimuli/Hangul_M46.bmp","188","image-keyboard-response","171","309415","0.0-8.0-1.29","test",",","",",","",""
"null","<div style=""color:white; font-size:60px;"">+</div>","null","html-keyboard-response","172","310417","0.0-8.0-0.30","fixation","","","","",""
"2077.3000000044703","Stimuli/Hangul_F40.bmp","190","image-keyboard-response","173","312495","0.0-8.0-1.30","test",".","",".","",""
"null","<div style=""color:white; font-size:60px;"">+</div>","null","html-keyboard-response","174","313498","0.0-8.0-0.31","fixation","","","","",""
"1982.0550000295043","Stimuli/Hangul_M25.bmp","188","image-keyboard-response","175","315481","0.0-8.0-1.31","test",",","",",","",""
"null","<div style=""color:white; font-size:60px;"">+</div>","null","html-keyboard-response","176","316482","0.0-8.0-0.32","fixation","","","","",""
"2509.1349999420345","Stimuli/Hangul_M34.bmp","190","image-keyboard-response","177","318993","0.0-8.0-1.32","test",",","",".","",""
"null","<div style=""color:white; font-size:60px;"">+</div>","null","html-keyboard-response","178","319995","0.0-8.0-0.33","fixation","","","","",""
"4427.320000017062","Stimuli/Hangul_M47.bmp","188","image-keyboard-response","179","324424","0.0-8.0-1.33","test",",","",",","",""
"null","<div style=""color:white; font-size:60px;"">+</div>","null","html-keyboard-response","180","325426","0.0-8.0-0.34","fixation","","","","",""
"4030.8700000168756","Stimuli/Hangul_M36.bmp","188","image-keyboard-response","181","329458","0.0-8.0-1.34","test",",","",",","",""
"null","<div style=""color:white; font-size:60px;"">+</div>","null","html-keyboard-response","182","330460","0.0-8.0-0.35","fixation","","","","",""
"2034.719999996014","Stimuli/Hangul_M38.bmp","188","image-keyboard-response","183","332496","0.0-8.0-1.35","test",",","",",","",""
"null","<div style=""color:white; font-size:60px;"">+</div>","null","html-keyboard-response","184","333497","0.0-8.0-0.36","fixation","","","","",""
"2195.640000049025","Stimuli/Hangul_M31.bmp","188","image-keyboard-response","185","335695","0.0-8.0-1.36","test",",","",",","",""
"null","<div style=""color:white; font-size:60px;"">+</div>","null","html-keyboard-response","186","336697","0.0-8.0-0.37","fixation","","","","",""
"2286.9149999460205","Stimuli/Hangul_F27.bmp","190","image-keyboard-response","187","338985","0.0-8.0-1.37","test",".","",".","",""
"null","<div style=""color:white; font-size:60px;"">+</div>","null","html-keyboard-response","188","339986","0.0-8.0-0.38","fixation","","","","",""
"1681.3599999295548","Stimuli/Hangul_F39.bmp","190","image-keyboard-response","189","341669","0.0-8.0-1.38","test",".","",".","",""
"null","<div style=""color:white; font-size:60px;"">+</div>","null","html-keyboard-response","190","342671","0.0-8.0-0.39","fixation","","","","",""
"1972.4949999945238","Stimuli/Hangul_F36.bmp","188","image-keyboard-response","191","344648","0.0-8.0-1.39","test",".","",",","",""
"null","<div style=""color:white; font-size:60px;"">+</div>","null","html-keyboard-response","192","345650","0.0-8.0-0.40","fixation","","","","",""
"1813.5299999266863","Stimuli/Hangul_F30.bmp","190","image-keyboard-response","193","347465","0.0-8.0-1.40","test",".","",".","",""
"null","<div style=""color:white; font-size:60px;"">+</div>","null","html-keyboard-response","194","348466","0.0-8.0-0.41","fixation","","","","",""
"1755.6750000221655","Stimuli/Hangul_M42.bmp","188","image-keyboard-response","195","350223","0.0-8.0-1.41","test",",","",",","",""
"null","<div style=""color:white; font-size:60px;"">+</div>","null","html-keyboard-response","196","351225","0.0-8.0-0.42","fixation","","","","",""
"2175.775000010617","Stimuli/Hangul_F25.bmp","188","image-keyboard-response","197","353401","0.0-8.0-1.42","test",".","",",","",""
"null","<div style=""color:white; font-size:60px;"">+</div>","null","html-keyboard-response","198","354404","0.0-8.0-0.43","fixation","","","","",""
"1759.0899999486282","Stimuli/Hangul_F44.bmp","190","image-keyboard-response","199","356164","0.0-8.0-1.43","test",".","",".","",""
"null","<div style=""color:white; font-size:60px;"">+</div>","null","html-keyboard-response","200","357166","0.0-8.0-0.44","fixation","","","","",""
"2133.185000042431","Stimuli/Hangul_F43.bmp","188","image-keyboard-response","201","359300","0.0-8.0-1.44","test",".","",",","",""
"null","<div style=""color:white; font-size:60px;"">+</div>","null","html-keyboard-response","202","360301","0.0-8.0-0.45","fixation","","","","",""
"2238.7350000208244","Stimuli/Hangul_F28.bmp","188","image-keyboard-response","203","362541","0.0-8.0-1.45","test",".","",",","",""
"null","<div style=""color:white; font-size:60px;"">+</div>","null","html-keyboard-response","204","363543","0.0-8.0-0.46","fixation","","","","",""
"2001.3299999991432","Stimuli/Hangul_M28.bmp","188","image-keyboard-response","205","365546","0.0-8.0-1.46","test",",","",",","",""
"null","<div style=""color:white; font-size:60px;"">+</div>","null","html-keyboard-response","206","366547","0.0-8.0-0.47","fixation","","","","",""
"1888.5199999203905","Stimuli/Hangul_M40.bmp","188","image-keyboard-response","207","368437","0.0-8.0-1.47","test",",","",",","",""
"null","<div style=""color:white; font-size:60px;"">+</div>","null","html-keyboard-response","208","369438","0.0-8.0-0.48","fixation","","","","",""
"1870.215000002645","Stimuli/Hangul_F38.bmp","188","image-keyboard-response","209","371309","0.0-8.0-1.48","test",".","",",","",""
"null","<div style=""color:white; font-size:60px;"">+</div>","null","html-keyboard-response","210","372311","0.0-8.0-0.49","fixation","","","","",""
"2108.265000046231","Stimuli/Hangul_F41.bmp","190","image-keyboard-response","211","374421","0.0-8.0-1.49","test",".","",".","",""
"1658.860000083223","<p style=""color:white;"">Half way there! Please take a moment to rest.</p> <p style=""color:white;"">When you are ready to continue with block 3 of 4, press the space bar.</p> ","32","html-keyboard-response","212","376081","0.0-9.0","","","","","",""
"null","<div style=""color:white; font-size:60px;"">+</div>","null","html-keyboard-response","213","379084","0.0-10.0-0.0","fixation","","","","",""
"1912.8649999620393","Stimuli/Hangul_F57.bmp","190","image-keyboard-response","214","380998","0.0-10.0-1.0","test",".","",".","",""
"null","<div style=""color:white; font-size:60px;"">+</div>","null","html-keyboard-response","215","382000","0.0-10.0-0.1","fixation","","","","",""
"1931.6799999214709","Stimuli/Hangul_M63.bmp","188","image-keyboard-response","216","383933","0.0-10.0-1.1","test",",","",",","",""
"null","<div style=""color:white; font-size:60px;"">+</div>","null","html-keyboard-response","217","384934","0.0-10.0-0.2","fixation","","","","",""
"1762.9750000778586","Stimuli/Hangul_F60.bmp","190","image-keyboard-response","218","386698","0.0-10.0-1.2","test",".","",".","",""
"null","<div style=""color:white; font-size:60px;"">+</div>","null","html-keyboard-response","219","387701","0.0-10.0-0.3","fixation","","","","",""
"1835.7149999355897","Stimuli/Hangul_M60.bmp","188","image-keyboard-response","220","389538","0.0-10.0-1.3","test",",","",",","",""
"null","<div style=""color:white; font-size:60px;"">+</div>","null","html-keyboard-response","221","390552","0.0-10.0-0.4","fixation","","","","",""
"1671.0099999327213","Stimuli/Hangul_F74.bmp","190","image-keyboard-response","222","392224","0.0-10.0-1.4","test",".","",".","",""
"null","<div style=""color:white; font-size:60px;"">+</div>","null","html-keyboard-response","223","393225","0.0-10.0-0.5","fixation","","","","",""
"1934.3250000383705","Stimuli/Hangul_M65.bmp","188","image-keyboard-response","224","395161","0.0-10.0-1.5","test",",","",",","",""
"null","<div style=""color:white; font-size:60px;"">+</div>","null","html-keyboard-response","225","396163","0.0-10.0-0.6","fixation","","","","",""
"1949.0750000113621","Stimuli/Hangul_M53.bmp","188","image-keyboard-response","226","398113","0.0-10.0-1.6","test",",","",",","",""
"null","<div style=""color:white; font-size:60px;"">+</div>","null","html-keyboard-response","227","399115","0.0-10.0-0.7","fixation","","","","",""
"1824.1350000025705","Stimuli/Hangul_F71.bmp","190","image-keyboard-response","228","400940","0.0-10.0-1.7","test",".","",".","",""
"null","<div style=""color:white; font-size:60px;"">+</div>","null","html-keyboard-response","229","401943","0.0-10.0-0.8","fixation","","","","",""
"2634.5900000305846","Stimuli/Hangul_M62.bmp","188","image-keyboard-response","230","404578","0.0-10.0-1.8","test",",","",",","",""
"null","<div style=""color:white; font-size:60px;"">+</div>","null","html-keyboard-response","231","405580","0.0-10.0-0.9","fixation","","","","",""
"1981.7549999570474","Stimuli/Hangul_F56.bmp","190","image-keyboard-response","232","407563","0.0-10.0-1.9","test",".","",".","",""
"null","<div style=""color:white; font-size:60px;"">+</div>","null","html-keyboard-response","233","408565","0.0-10.0-0.10","fixation","","","","",""
"1990.2849999489263","Stimuli/Hangul_M58.bmp","188","image-keyboard-response","234","410557","0.0-10.0-1.10","test",",","",",","",""
"null","<div style=""color:white; font-size:60px;"">+</div>","null","html-keyboard-response","235","411560","0.0-10.0-0.11","fixation","","","","",""
"1712.6500000013039","Stimuli/Hangul_F53.bmp","190","image-keyboard-response","236","413274","0.0-10.0-1.11","test",".","",".","",""
"null","<div style=""color:white; font-size:60px;"">+</div>","null","html-keyboard-response","237","414275","0.0-10.0-0.12","fixation","","","","",""
"1808.9700000127777","Stimuli/Hangul_F59.bmp","190","image-keyboard-response","238","416085","0.0-10.0-1.12","test",".","",".","",""
"null","<div style=""color:white; font-size:60px;"">+</div>","null","html-keyboard-response","239","417087","0.0-10.0-0.13","fixation","","","","",""
"1851.4650000724941","Stimuli/Hangul_F72.bmp","188","image-keyboard-response","240","418940","0.0-10.0-1.13","test",".","",",","",""
"null","<div style=""color:white; font-size:60px;"">+</div>","null","html-keyboard-response","241","419942","0.0-10.0-0.14","fixation","","","","",""
"2054.325000033714","Stimuli/Hangul_M68.bmp","188","image-keyboard-response","242","421998","0.0-10.0-1.14","test",",","",",","",""
"null","<div style=""color:white; font-size:60px;"">+</div>","null","html-keyboard-response","243","423000","0.0-10.0-0.15","fixation","","","","",""
"1947.5749999983236","Stimuli/Hangul_F52.bmp","188","image-keyboard-response","244","424948","0.0-10.0-1.15","test",".","",",","",""
"null","<div style=""color:white; font-size:60px;"">+</div>","null","html-keyboard-response","245","425950","0.0-10.0-0.16","fixation","","","","",""
"3729.3399999616668","Stimuli/Hangul_M64.bmp","188","image-keyboard-response","246","429681","0.0-10.0-1.16","test",",","",",","",""
"null","<div style=""color:white; font-size:60px;"">+</div>","null","html-keyboard-response","247","430684","0.0-10.0-0.17","fixation","","","","",""
"2020.9250000771135","Stimuli/Hangul_F58.bmp","188","image-keyboard-response","248","432706","0.0-10.0-1.17","test",".","",",","",""
"null","<div style=""color:white; font-size:60px;"">+</div>","null","html-keyboard-response","249","433708","0.0-10.0-0.18","fixation","","","","",""
"2020.9049999248236","Stimuli/Hangul_F61.bmp","188","image-keyboard-response","250","435730","0.0-10.0-1.18","test",".","",",","",""
"null","<div style=""color:white; font-size:60px;"">+</div>","null","html-keyboard-response","251","436732","0.0-10.0-0.19","fixation","","","","",""
"1845.1999999815598","Stimuli/Hangul_F51.bmp","190","image-keyboard-response","252","438578","0.0-10.0-1.19","test",".","",".","",""
"null","<div style=""color:white; font-size:60px;"">+</div>","null","html-keyboard-response","253","439580","0.0-10.0-0.20","fixation","","","","",""
"1889.6549999481067","Stimuli/Hangul_M50.bmp","188","image-keyboard-response","254","441471","0.0-10.0-1.20","test",",","",",","",""
"null","<div style=""color:white; font-size:60px;"">+</div>","null","html-keyboard-response","255","442473","0.0-10.0-0.21","fixation","","","","",""
"1850.7700000191107","Stimuli/Hangul_F68.bmp","190","image-keyboard-response","256","444325","0.0-10.0-1.21","test",".","",".","",""
"null","<div style=""color:white; font-size:60px;"">+</div>","null","html-keyboard-response","257","445327","0.0-10.0-0.22","fixation","","","","",""
"1883.0650000600144","Stimuli/Hangul_M61.bmp","188","image-keyboard-response","258","447212","0.0-10.0-1.22","test",",","",",","",""
"null","<div style=""color:white; font-size:60px;"">+</div>","null","html-keyboard-response","259","448215","0.0-10.0-0.23","fixation","","","","",""
"1602.4949999991804","Stimuli/Hangul_M51.bmp","188","image-keyboard-response","260","449818","0.0-10.0-1.23","test",",","",",","",""
"null","<div style=""color:white; font-size:60px;"">+</div>","null","html-keyboard-response","261","450820","0.0-10.0-0.24","fixation","","","","",""
"1808.7150000501424","Stimuli/Hangul_F73.bmp","190","image-keyboard-response","262","452630","0.0-10.0-1.24","test",".","",".","",""
"null","<div style=""color:white; font-size:60px;"">+</div>","null","html-keyboard-response","263","453632","0.0-10.0-0.25","fixation","","","","",""
"1693.6999999452382","Stimuli/Hangul_F69.bmp","190","image-keyboard-response","264","455327","0.0-10.0-1.25","test",".","",".","",""
"null","<div style=""color:white; font-size:60px;"">+</div>","null","html-keyboard-response","265","456335","0.0-10.0-0.26","fixation","","","","",""
"1887.0149999856949","Stimuli/Hangul_F70.bmp","188","image-keyboard-response","266","458223","0.0-10.0-1.26","test",".","",",","",""
"null","<div style=""color:white; font-size:60px;"">+</div>","null","html-keyboard-response","267","459224","0.0-10.0-0.27","fixation","","","","",""
"1699.9950000317767","Stimuli/Hangul_M67.bmp","190","image-keyboard-response","268","460925","0.0-10.0-1.27","test",",","",".","",""
"null","<div style=""color:white; font-size:60px;"">+</div>","null","html-keyboard-response","269","461927","0.0-10.0-0.28","fixation","","","","",""
"1860.8049999456853","Stimuli/Hangul_F55.bmp","188","image-keyboard-response","270","463789","0.0-10.0-1.28","test",".","",",","",""
"null","<div style=""color:white; font-size:60px;"">+</div>","null","html-keyboard-response","271","464791","0.0-10.0-0.29","fixation","","","","",""
"2003.3350000157952","Stimuli/Hangul_M66.bmp","188","image-keyboard-response","272","466795","0.0-10.0-1.29","test",",","",",","",""
"null","<div style=""color:white; font-size:60px;"">+</div>","null","html-keyboard-response","273","467807","0.0-10.0-0.30","fixation","","","","",""
"1873.9499999210238","Stimuli/Hangul_M57.bmp","188","image-keyboard-response","274","469683","0.0-10.0-1.30","test",",","",",","",""
"null","<div style=""color:white; font-size:60px;"">+</div>","null","html-keyboard-response","275","470685","0.0-10.0-0.31","fixation","","","","",""
"1910.645000054501","Stimuli/Hangul_M74.bmp","188","image-keyboard-response","276","472597","0.0-10.0-1.31","test",",","",",","",""
"null","<div style=""color:white; font-size:60px;"">+</div>","null","html-keyboard-response","277","473598","0.0-10.0-0.32","fixation","","","","",""
"1851.545000099577","Stimuli/Hangul_F67.bmp","188","image-keyboard-response","278","475451","0.0-10.0-1.32","test",".","",",","",""
"null","<div style=""color:white; font-size:60px;"">+</div>","null","html-keyboard-response","279","476453","0.0-10.0-0.33","fixation","","","","",""
"2060.1850000675768","Stimuli/Hangul_F62.bmp","188","image-keyboard-response","280","478514","0.0-10.0-1.33","test",".","",",","",""
"null","<div style=""color:white; font-size:60px;"">+</div>","null","html-keyboard-response","281","479516","0.0-10.0-0.34","fixation","","","","",""
"2367.1699999831617","Stimuli/Hangul_M69.bmp","188","image-keyboard-response","282","481885","0.0-10.0-1.34","test",",","",",","",""
"null","<div style=""color:white; font-size:60px;"">+</div>","null","html-keyboard-response","283","482887","0.0-10.0-0.35","fixation","","","","",""
"1426.8450000090525","Stimuli/Hangul_M73.bmp","190","image-keyboard-response","284","484315","0.0-10.0-1.35","test",",","",".","",""
"null","<div style=""color:white; font-size:60px;"">+</div>","null","html-keyboard-response","285","485316","0.0-10.0-0.36","fixation","","","","",""
"2339.520000037737","Stimuli/Hangul_M59.bmp","188","image-keyboard-response","286","487657","0.0-10.0-1.36","test",",","",",","",""
"null","<div style=""color:white; font-size:60px;"">+</div>","null","html-keyboard-response","287","488659","0.0-10.0-0.37","fixation","","","","",""
"1679.1300000622869","Stimuli/Hangul_F65.bmp","190","image-keyboard-response","288","490339","0.0-10.0-1.37","test",".","",".","",""
"null","<div style=""color:white; font-size:60px;"">+</div>","null","html-keyboard-response","289","491341","0.0-10.0-0.38","fixation","","","","",""
"1992.3900000285357","Stimuli/Hangul_M52.bmp","188","image-keyboard-response","290","493335","0.0-10.0-1.38","test",",","",",","",""
"null","<div style=""color:white; font-size:60px;"">+</div>","null","html-keyboard-response","291","494336","0.0-10.0-0.39","fixation","","","","",""
"1734.6100000431761","Stimuli/Hangul_F64.bmp","190","image-keyboard-response","292","496072","0.0-10.0-1.39","test",".","",".","",""
"null","<div style=""color:white; font-size:60px;"">+</div>","null","html-keyboard-response","293","497074","0.0-10.0-0.40","fixation","","","","",""
"1657.5200000079349","Stimuli/Hangul_F66.bmp","190","image-keyboard-response","294","498732","0.0-10.0-1.40","test",".","",".","",""
"null","<div style=""color:white; font-size:60px;"">+</div>","null","html-keyboard-response","295","499735","0.0-10.0-0.41","fixation","","","","",""
"1951.1900000507012","Stimuli/Hangul_M56.bmp","188","image-keyboard-response","296","501687","0.0-10.0-1.41","test",",","",",","",""
"null","<div style=""color:white; font-size:60px;"">+</div>","null","html-keyboard-response","297","502689","0.0-10.0-0.42","fixation","","","","",""
"1921.6199999209493","Stimuli/Hangul_M72.bmp","188","image-keyboard-response","298","504612","0.0-10.0-1.42","test",",","",",","",""
"null","<div style=""color:white; font-size:60px;"">+</div>","null","html-keyboard-response","299","505613","0.0-10.0-0.43","fixation","","","","",""
"2380.0399999599904","Stimuli/Hangul_M55.bmp","188","image-keyboard-response","300","507995","0.0-10.0-1.43","test",",","",",","",""
"null","<div style=""color:white; font-size:60px;"">+</div>","null","html-keyboard-response","301","508996","0.0-10.0-0.44","fixation","","","","",""
"1685.2700000163168","Stimuli/Hangul_F50.bmp","190","image-keyboard-response","302","510682","0.0-10.0-1.44","test",".","",".","",""
"null","<div style=""color:white; font-size:60px;"">+</div>","null","html-keyboard-response","303","511684","0.0-10.0-0.45","fixation","","","","",""
"1991.5250000776723","Stimuli/Hangul_M71.bmp","188","image-keyboard-response","304","513677","0.0-10.0-1.45","test",",","",",","",""
"null","<div style=""color:white; font-size:60px;"">+</div>","null","html-keyboard-response","305","514680","0.0-10.0-0.46","fixation","","","","",""
"1978.495000046678","Stimuli/Hangul_M54.bmp","190","image-keyboard-response","306","516659","0.0-10.0-1.46","test",",","",".","",""
"null","<div style=""color:white; font-size:60px;"">+</div>","null","html-keyboard-response","307","517661","0.0-10.0-0.47","fixation","","","","",""
"1821.775000076741","Stimuli/Hangul_F54.bmp","190","image-keyboard-response","308","519484","0.0-10.0-1.47","test",".","",".","",""
"null","<div style=""color:white; font-size:60px;"">+</div>","null","html-keyboard-response","309","520486","0.0-10.0-0.48","fixation","","","","",""
"2416.2149999756366","Stimuli/Hangul_F63.bmp","188","image-keyboard-response","310","522903","0.0-10.0-1.48","test",".","",",","",""
"null","<div style=""color:white; font-size:60px;"">+</div>","null","html-keyboard-response","311","523904","0.0-10.0-0.49","fixation","","","","",""
"1764.2099999357015","Stimuli/Hangul_M70.bmp","190","image-keyboard-response","312","525669","0.0-10.0-1.49","test",",","",".","",""
"285566.2199999206","<p style=""color:white;"">One more block to go! Please take a moment to rest.</p> <p style=""color:white;"">When you are ready to continue with block 4 of 4, press the space bar.</p> ","32","html-keyboard-response","313","811237","0.0-11.0","","","","","",""
"null","<div style=""color:white; font-size:60px;"">+</div>","null","html-keyboard-response","314","814240","0.0-12.0-0.0","fixation","","","","",""
"2276.784999994561","Stimuli/Hangul_M82.bmp","188","image-keyboard-response","315","816519","0.0-12.0-1.0","test",",","",",","",""
"null","<div style=""color:white; font-size:60px;"">+</div>","null","html-keyboard-response","316","817522","0.0-12.0-0.1","fixation","","","","",""
"1767.3700000159442","Stimuli/Hangul_F83.bmp","190","image-keyboard-response","317","819290","0.0-12.0-1.1","test",".","",".","",""
"null","<div style=""color:white; font-size:60px;"">+</div>","null","html-keyboard-response","318","820292","0.0-12.0-0.2","fixation","","","","",""
"1806.4500000327826","Stimuli/Hangul_F76.bmp","190","image-keyboard-response","319","822100","0.0-12.0-1.2","test",".","",".","",""
"null","<div style=""color:white; font-size:60px;"">+</div>","null","html-keyboard-response","320","823102","0.0-12.0-0.3","fixation","","","","",""
"2194.6149999275804","Stimuli/Hangul_F90.bmp","188","image-keyboard-response","321","825298","0.0-12.0-1.3","test",".","",",","",""
"null","<div style=""color:white; font-size:60px;"">+</div>","null","html-keyboard-response","322","826299","0.0-12.0-0.4","fixation","","","","",""
"1822.3749999888241","Stimuli/Hangul_F91.bmp","188","image-keyboard-response","323","828123","0.0-12.0-1.4","test",".","",",","",""
"null","<div style=""color:white; font-size:60px;"">+</div>","null","html-keyboard-response","324","829125","0.0-12.0-0.5","fixation","","","","",""
"1829.494999954477","Stimuli/Hangul_M83.bmp","188","image-keyboard-response","325","830956","0.0-12.0-1.5","test",",","",",","",""
"null","<div style=""color:white; font-size:60px;"">+</div>","null","html-keyboard-response","326","831958","0.0-12.0-0.6","fixation","","","","",""
"1771.695000003092","Stimuli/Hangul_F86.bmp","190","image-keyboard-response","327","833730","0.0-12.0-1.6","test",".","",".","",""
"null","<div style=""color:white; font-size:60px;"">+</div>","null","html-keyboard-response","328","834732","0.0-12.0-0.7","fixation","","","","",""
"1799.9300000956282","Stimuli/Hangul_F77.bmp","190","image-keyboard-response","329","836534","0.0-12.0-1.7","test",".","",".","",""
"null","<div style=""color:white; font-size:60px;"">+</div>","null","html-keyboard-response","330","837536","0.0-12.0-0.8","fixation","","","","",""
"1753.1250000465661","Stimuli/Hangul_F87.bmp","190","image-keyboard-response","331","839290","0.0-12.0-1.8","test",".","",".","",""
"null","<div style=""color:white; font-size:60px;"">+</div>","null","html-keyboard-response","332","840292","0.0-12.0-0.9","fixation","","","","",""
"1770.974999992177","Stimuli/Hangul_F93.bmp","190","image-keyboard-response","333","842065","0.0-12.0-1.9","test",".","",".","",""
"null","<div style=""color:white; font-size:60px;"">+</div>","null","html-keyboard-response","334","843068","0.0-12.0-0.10","fixation","","","","",""
"1627.1100000012666","Stimuli/Hangul_M87.bmp","190","image-keyboard-response","335","844696","0.0-12.0-1.10","test",",","",".","",""
"null","<div style=""color:white; font-size:60px;"">+</div>","null","html-keyboard-response","336","845699","0.0-12.0-0.11","fixation","","","","",""
"1740.0250000646338","Stimuli/Hangul_F96.bmp","190","image-keyboard-response","337","847440","0.0-12.0-1.11","test",".","",".","",""
"null","<div style=""color:white; font-size:60px;"">+</div>","null","html-keyboard-response","338","848443","0.0-12.0-0.12","fixation","","","","",""
"1802.6949999621138","Stimuli/Hangul_M99.bmp","188","image-keyboard-response","339","850247","0.0-12.0-1.12","test",",","",",","",""
"null","<div style=""color:white; font-size:60px;"">+</div>","null","html-keyboard-response","340","851250","0.0-12.0-0.13","fixation","","","","",""
"1738.065000041388","Stimuli/Hangul_M96.bmp","188","image-keyboard-response","341","852989","0.0-12.0-1.13","test",",","",",","",""
"null","<div style=""color:white; font-size:60px;"">+</div>","null","html-keyboard-response","342","853994","0.0-12.0-0.14","fixation","","","","",""
"1621.4149999432266","Stimuli/Hangul_F98.bmp","190","image-keyboard-response","343","855617","0.0-12.0-1.14","test",".","",".","",""
"null","<div style=""color:white; font-size:60px;"">+</div>","null","html-keyboard-response","344","856619","0.0-12.0-0.15","fixation","","","","",""
"1710.674999980256","Stimuli/Hangul_M84.bmp","188","image-keyboard-response","345","858331","0.0-12.0-1.15","test",",","",",","",""
"null","<div style=""color:white; font-size:60px;"">+</div>","null","html-keyboard-response","346","859333","0.0-12.0-0.16","fixation","","","","",""
"1804.9899999750778","Stimuli/Hangul_F84.bmp","190","image-keyboard-response","347","861139","0.0-12.0-1.16","test",".","",".","",""
"null","<div style=""color:white; font-size:60px;"">+</div>","null","html-keyboard-response","348","862153","0.0-12.0-0.17","fixation","","","","",""
"2819.134999997914","Stimuli/Hangul_M91.bmp","188","image-keyboard-response","349","864973","0.0-12.0-1.17","test",",","",",","",""
"null","<div style=""color:white; font-size:60px;"">+</div>","null","html-keyboard-response","350","865989","0.0-12.0-0.18","fixation","","","","",""
"1831.74500009045","Stimuli/Hangul_M86.bmp","188","image-keyboard-response","351","867822","0.0-12.0-1.18","test",",","",",","",""
"null","<div style=""color:white; font-size:60px;"">+</div>","null","html-keyboard-response","352","868823","0.0-12.0-0.19","fixation","","","","",""
"2030.214999918826","Stimuli/Hangul_M98.bmp","188","image-keyboard-response","353","870855","0.0-12.0-1.19","test",",","",",","",""
"null","<div style=""color:white; font-size:60px;"">+</div>","null","html-keyboard-response","354","871857","0.0-12.0-0.20","fixation","","","","",""
"2124.519999953918","Stimuli/Hangul_M88.bmp","188","image-keyboard-response","355","873982","0.0-12.0-1.20","test",",","",",","",""
"null","<div style=""color:white; font-size:60px;"">+</div>","null","html-keyboard-response","356","874984","0.0-12.0-0.21","fixation","","","","",""
"2175.2700000070035","Stimuli/Hangul_M95.bmp","188","image-keyboard-response","357","877161","0.0-12.0-1.21","test",",","",",","",""
"null","<div style=""color:white; font-size:60px;"">+</div>","null","html-keyboard-response","358","878163","0.0-12.0-0.22","fixation","","","","",""
"1849.80500000529","Stimuli/Hangul_M85.bmp","188","image-keyboard-response","359","880014","0.0-12.0-1.22","test",",","",",","",""
"null","<div style=""color:white; font-size:60px;"">+</div>","null","html-keyboard-response","360","881016","0.0-12.0-0.23","fixation","","","","",""
"1754.744999925606","Stimuli/Hangul_M90.bmp","188","image-keyboard-response","361","882772","0.0-12.0-1.23","test",",","",",","",""
"null","<div style=""color:white; font-size:60px;"">+</div>","null","html-keyboard-response","362","883774","0.0-12.0-0.24","fixation","","","","",""
"1627.2299999836832","Stimuli/Hangul_F82.bmp","190","image-keyboard-response","363","885402","0.0-12.0-1.24","test",".","",".","",""
"null","<div style=""color:white; font-size:60px;"">+</div>","null","html-keyboard-response","364","886405","0.0-12.0-0.25","fixation","","","","",""
"1689.284999971278","Stimuli/Hangul_F88.bmp","190","image-keyboard-response","365","888097","0.0-12.0-1.25","test",".","",".","",""
"null","<div style=""color:white; font-size:60px;"">+</div>","null","html-keyboard-response","366","889099","0.0-12.0-0.26","fixation","","","","",""
"3218.0249999510124","Stimuli/Hangul_M94.bmp","188","image-keyboard-response","367","892318","0.0-12.0-1.26","test",",","",",","",""
"null","<div style=""color:white; font-size:60px;"">+</div>","null","html-keyboard-response","368","893320","0.0-12.0-0.27","fixation","","","","",""
"2867.3649999545887","Stimuli/Hangul_F80.bmp","190","image-keyboard-response","369","896188","0.0-12.0-1.27","test",".","",".","",""
"null","<div style=""color:white; font-size:60px;"">+</div>","null","html-keyboard-response","370","897190","0.0-12.0-0.28","fixation","","","","",""
"1771.40500000678","Stimuli/Hangul_F94.bmp","190","image-keyboard-response","371","898963","0.0-12.0-1.28","test",".","",".","",""
"null","<div style=""color:white; font-size:60px;"">+</div>","null","html-keyboard-response","372","899965","0.0-12.0-0.29","fixation","","","","",""
"1833.5549999028444","Stimuli/Hangul_M77.bmp","188","image-keyboard-response","373","901799","0.0-12.0-1.29","test",",","",",","",""
"null","<div style=""color:white; font-size:60px;"">+</div>","null","html-keyboard-response","374","902801","0.0-12.0-0.30","fixation","","","","",""
"1914.4150000065565","Stimuli/Hangul_M89.bmp","188","image-keyboard-response","375","904717","0.0-12.0-1.30","test",",","",",","",""
"null","<div style=""color:white; font-size:60px;"">+</div>","null","html-keyboard-response","376","905719","0.0-12.0-0.31","fixation","","","","",""
"1902.3149999557063","Stimuli/Hangul_M93.bmp","188","image-keyboard-response","377","907622","0.0-12.0-1.31","test",",","",",","",""
"null","<div style=""color:white; font-size:60px;"">+</div>","null","html-keyboard-response","378","908624","0.0-12.0-0.32","fixation","","","","",""
"2015.0850000791252","Stimuli/Hangul_M76.bmp","188","image-keyboard-response","379","910641","0.0-12.0-1.32","test",",","",",","",""
"null","<div style=""color:white; font-size:60px;"">+</div>","null","html-keyboard-response","380","911643","0.0-12.0-0.33","fixation","","","","",""
"1747.689999989234","Stimuli/Hangul_F89.bmp","190","image-keyboard-response","381","913391","0.0-12.0-1.33","test",".","",".","",""
"null","<div style=""color:white; font-size:60px;"">+</div>","null","html-keyboard-response","382","914392","0.0-12.0-0.34","fixation","","","","",""
"1681.9499999983236","Stimuli/Hangul_F95.bmp","190","image-keyboard-response","383","916076","0.0-12.0-1.34","test",".","",".","",""
"null","<div style=""color:white; font-size:60px;"">+</div>","null","html-keyboard-response","384","917078","0.0-12.0-0.35","fixation","","","","",""
"1699.8850000090897","Stimuli/Hangul_F97.bmp","190","image-keyboard-response","385","918779","0.0-12.0-1.35","test",".","",".","",""
"null","<div style=""color:white; font-size:60px;"">+</div>","null","html-keyboard-response","386","919780","0.0-12.0-0.36","fixation","","","","",""
"1788.1699999561533","Stimuli/Hangul_M81.bmp","188","image-keyboard-response","387","921569","0.0-12.0-1.36","test",",","",",","",""
"null","<div style=""color:white; font-size:60px;"">+</div>","null","html-keyboard-response","388","922570","0.0-12.0-0.37","fixation","","","","",""
"2684.224999975413","Stimuli/Hangul_F75.bmp","190","image-keyboard-response","389","925256","0.0-12.0-1.37","test",".","",".","",""
"null","<div style=""color:white; font-size:60px;"">+</div>","null","html-keyboard-response","390","926258","0.0-12.0-0.38","fixation","","","","",""
"1770.5449999775738","Stimuli/Hangul_F81.bmp","190","image-keyboard-response","391","928029","0.0-12.0-1.38","test",".","",".","",""
"null","<div style=""color:white; font-size:60px;"">+</div>","null","html-keyboard-response","392","929031","0.0-12.0-0.39","fixation","","","","",""
"2057.560000102967","Stimuli/Hangul_M97.bmp","188","image-keyboard-response","393","931090","0.0-12.0-1.39","test",",","",",","",""
"null","<div style=""color:white; font-size:60px;"">+</div>","null","html-keyboard-response","394","932092","0.0-12.0-0.40","fixation","","","","",""
"1827.0799999590963","Stimuli/Hangul_M80.bmp","188","image-keyboard-response","395","933920","0.0-12.0-1.40","test",",","",",","",""
"null","<div style=""color:white; font-size:60px;"">+</div>","null","html-keyboard-response","396","934922","0.0-12.0-0.41","fixation","","","","",""
"1954.4450000394136","Stimuli/Hangul_F78.bmp","190","image-keyboard-response","397","936878","0.0-12.0-1.41","test",".","",".","",""
"null","<div style=""color:white; font-size:60px;"">+</div>","null","html-keyboard-response","398","937880","0.0-12.0-0.42","fixation","","","","",""
"1809.1750000603497","Stimuli/Hangul_F79.bmp","190","image-keyboard-response","399","939690","0.0-12.0-1.42","test",".","",".","",""
"null","<div style=""color:white; font-size:60px;"">+</div>","null","html-keyboard-response","400","940692","0.0-12.0-0.43","fixation","","","","",""
"1993.5099999420345","Stimuli/Hangul_M79.bmp","188","image-keyboard-response","401","942687","0.0-12.0-1.43","test",",","",",","",""
"null","<div style=""color:white; font-size:60px;"">+</div>","null","html-keyboard-response","402","943689","0.0-12.0-0.44","fixation","","","","",""
"2094.9450000189245","Stimuli/Hangul_M78.bmp","188","image-keyboard-response","403","945785","0.0-12.0-1.44","test",",","",",","",""
"null","<div style=""color:white; font-size:60px;"">+</div>","null","html-keyboard-response","404","946787","0.0-12.0-0.45","fixation","","","","",""
"3347.784999990836","Stimuli/Hangul_M75.bmp","188","image-keyboard-response","405","950136","0.0-12.0-1.45","test",",","",",","",""
"null","<div style=""color:white; font-size:60px;"">+</div>","null","html-keyboard-response","406","951139","0.0-12.0-0.46","fixation","","","","",""
"1856.5599999856204","Stimuli/Hangul_F92.bmp","190","image-keyboard-response","407","952997","0.0-12.0-1.46","test",".","",".","",""
"null","<div style=""color:white; font-size:60px;"">+</div>","null","html-keyboard-response","408","953999","0.0-12.0-0.47","fixation","","","","",""
"2256.040000007488","Stimuli/Hangul_F99.bmp","188","image-keyboard-response","409","956256","0.0-12.0-1.47","test",".","",",","",""
"null","<div style=""color:white; font-size:60px;"">+</div>","null","html-keyboard-response","410","957259","0.0-12.0-0.48","fixation","","","","",""
"4089.8049999959767","Stimuli/Hangul_F85.bmp","190","image-keyboard-response","411","961351","0.0-12.0-1.48","test",".","",".","",""
"null","<div style=""color:white; font-size:60px;"">+</div>","null","html-keyboard-response","412","962352","0.0-12.0-0.49","fixation","","","","",""
"2512.235000031069","Stimuli/Hangul_M92.bmp","188","image-keyboard-response","413","964867","0.0-12.0-1.49","test",",","",",","",""
"4230.005000019446","<p style=""color:white;"">Phase I of the experiment is complete.</p> <p style=""color:white;"">Press the space bar to proceed to Phase II of the experiment.</p> ","32","html-keyboard-response","414","969098","0.0-13.0","","","","","",""
"23984.30000001099","<p style=""color:white;"">Now we are interested in how well you can predict patterns in the series of figures. You will be asked to predict whether the next figure in the series is more male-like or female-like. When you see the <q>Next Figure</q> prompt, press the corresponding response keys to indicate your prediction: </p><p style=""color:white;""> Male &#8594 <q>,</q> (comma)</p><p style=""color:white;""> Female &#8594 <q>.</q> (period)</p><p style=""color:white;"">The actual figure will then appear on the screen. After you see the figure, please guess the assigned gender with response keys. </p><p style=""color:white;"">As before, you will receive 2 cents for correctly classifying each figure.</p><p style=""color:white;"">Press either response keys to continue.</p>","190","html-keyboard-response","415","995085","0.0-14.0","","","","","",""
"6714.13500001654","<p style=""color:white;"">PREDICTION BONUS</p> <p style=""color:white;"">Your prediction accuracy is the total number of correct predictions you make over the 200 trials.</p> <p style=""color:white;"">In addition to the 2 cents per correct figure classification, you have the chance to receive a bonus of 40 dollars IF your accuracy is above average relative to previous participants.</p><p style=""color:white;"">If your accuracy is below average relative to previous participants, then you will not receive the 40 dollar bonus.</p><p style=""color:white;"">Press the space bar to continue.</p>","32","html-keyboard-response","416","1001801","0.0-15.0","","","","","",""
"3514.339999994263","<p style=""color:white;"">Here are some examples.</p> <p style=""color:white;"">For each, predict whether the next figure looks more male-like or female-like. Then, when the figure appears, guess whether it looks more male-like or female-like and indicate your choice.</p> <p style=""color:white;"">Press the space bar to continue.</p>","32","html-keyboard-response","417","1005319","0.0-16.0","","","","","",""
"3000.140000018291","<p style=""color:white;""> Next Figure: Male or Female? </p>","188","html-keyboard-response","418","1010321","0.0-17.0-0.0","prediction_train","","","",",",""
"null","<div style=""color:white; font-size:60px;"">+</div>","null","html-keyboard-response","419","1011323","0.0-17.0-1.0","fixation","","","","",""
"1661.9700000155717","Stimuli/Hangul_E0.bmp","188","image-keyboard-response","420","1012986","0.0-17.0-2.0","c2_train",",","","","",","
"1002.3100000107661","<p style=""color:white;""> Next Figure: Male or Female? </p>","190","html-keyboard-response","421","1013990","0.0-17.0-0.1","prediction_train","","","",".",""
"null","<div style=""color:white; font-size:60px;"">+</div>","null","html-keyboard-response","422","1014992","0.0-17.0-1.1","fixation","","","","",""
"695.049999980256","Stimuli/Hangul_E2.bmp","190","image-keyboard-response","423","1015688","0.0-17.0-2.1","c2_train",".","","","","."
"1407.565000001341","<p style=""color:white;""> Next Figure: Male or Female? </p>","188","html-keyboard-response","424","1017096","0.0-17.0-0.2","prediction_train","","","",",",""
"null","<div style=""color:white; font-size:60px;"">+</div>","null","html-keyboard-response","425","1018097","0.0-17.0-1.2","fixation","","","","",""
"960.8099999604747","Stimuli/Hangul_E1.bmp","188","image-keyboard-response","426","1019060","0.0-17.0-2.2","c2_train",",","","","",","
"144154.5449999394","<p style=""color:white;"">Let us begin! Press the space bar when you are ready to start block 1 of 4.</p> ","32","html-keyboard-response","427","1163215","0.0-18.0","","","","","",""
"3411.1549999797717","<p style=""color:white;""> Next Figure: Male or Female? </p>","188","html-keyboard-response","428","1168632","0.0-19.0-0.0","prediction","","","",",",""
"null","<div style=""color:white; font-size:60px;"">+</div>","null","html-keyboard-response","429","1169635","0.0-19.0-1.0","fixation","","","","",""
"7107.040000031702","Stimuli/Hangul_M6.bmp","188","image-keyboard-response","430","1176741","0.0-19.0-2.0","c2_test",",","","","",","
"2393.015000037849","<p style=""color:white;""> Next Figure: Male or Female? </p>","188","html-keyboard-response","431","1179136","0.0-19.0-0.1","prediction","","","",",",""
"null","<div style=""color:white; font-size:60px;"">+</div>","null","html-keyboard-response","432","1180140","0.0-19.0-1.1","fixation","","","","",""
"1989.850000012666","Stimuli/Hangul_M24.bmp","190","image-keyboard-response","433","1182132","0.0-19.0-2.1","c2_test",",","","","","."
"4622.38499999512","<p style=""color:white;""> Next Figure: Male or Female? </p>","190","html-keyboard-response","434","1186755","0.0-19.0-0.2","prediction","","","",".",""
"null","<div style=""color:white; font-size:60px;"">+</div>","null","html-keyboard-response","435","1187760","0.0-19.0-1.2","fixation","","","","",""
"3961.765000014566","Stimuli/Hangul_M16.bmp","190","image-keyboard-response","436","1191724","0.0-19.0-2.2","c2_test",",","","","","."
"1773.3099999604747","<p style=""color:white;""> Next Figure: Male or Female? </p>","188","html-keyboard-response","437","1193498","0.0-19.0-0.3","prediction","","","",",",""
"null","<div style=""color:white; font-size:60px;"">+</div>","null","html-keyboard-response","438","1194504","0.0-19.0-1.3","fixation","","","","",""
"1294.135000091046","Stimuli/Hangul_F7.bmp","188","image-keyboard-response","439","1195799","0.0-19.0-2.3","c2_test",".","","","",","
"1177.8250000206754","<p style=""color:white;""> Next Figure: Male or Female? </p>","188","html-keyboard-response","440","1196979","0.0-19.0-0.4","prediction","","","",",",""
"null","<div style=""color:white; font-size:60px;"">+</div>","null","html-keyboard-response","441","1197981","0.0-19.0-1.4","fixation","","","","",""
"1095.5250000115484","Stimuli/Hangul_M12.bmp","188","image-keyboard-response","442","1199078","0.0-19.0-2.4","c2_test",",","","","",","
"919.8750000214204","<p style=""color:white;""> Next Figure: Male or Female? </p>","188","html-keyboard-response","443","1199999","0.0-19.0-0.5","prediction","","","",",",""
"null","<div style=""color:white; font-size:60px;"">+</div>","null","html-keyboard-response","444","1201004","0.0-19.0-1.5","fixation","","","","",""
"1268.59999995213","Stimuli/Hangul_F22.bmp","190","image-keyboard-response","445","1202273","0.0-19.0-2.5","c2_test",".","","","","."
"2110.664999927394","<p style=""color:white;""> Next Figure: Male or Female? </p>","190","html-keyboard-response","446","1204385","0.0-19.0-0.6","prediction","","","",".",""
"null","<div style=""color:white; font-size:60px;"">+</div>","null","html-keyboard-response","447","1205390","0.0-19.0-1.6","fixation","","","","",""
"56.80000002030283","Stimuli/Hangul_F14.bmp","190","image-keyboard-response","448","1205448","0.0-19.0-2.6","c2_test",".","","","","."
"1355.4149999981746","<p style=""color:white;""> Next Figure: Male or Female? </p>","190","html-keyboard-response","449","1206805","0.0-19.0-0.7","prediction","","","",".",""
"null","<div style=""color:white; font-size:60px;"">+</div>","null","html-keyboard-response","450","1207808","0.0-19.0-1.7","fixation","","","","",""
"2211.284999968484","Stimuli/Hangul_F18.bmp","188","image-keyboard-response","451","1210021","0.0-19.0-2.7","c2_test",".","","","",","
"1981.984999962151","<p style=""color:white;""> Next Figure: Male or Female? </p>","190","html-keyboard-response","452","1212005","0.0-19.0-0.8","prediction","","","",".",""
"null","<div style=""color:white; font-size:60px;"">+</div>","null","html-keyboard-response","453","1213007","0.0-19.0-1.8","fixation","","","","",""
"3450.565000064671","Stimuli/Hangul_M7.bmp","190","image-keyboard-response","454","1216459","0.0-19.0-2.8","c2_test",",","","","","."
"3183.1549999769777","<p style=""color:white;""> Next Figure: Male or Female? </p>","188","html-keyboard-response","455","1219644","0.0-19.0-0.9","prediction","","","",",",""
"null","<div style=""color:white; font-size:60px;"">+</div>","null","html-keyboard-response","456","1220649","0.0-19.0-1.9","fixation","","","","",""
"2826.480000047013","Stimuli/Hangul_F6.bmp","188","image-keyboard-response","457","1223477","0.0-19.0-2.9","c2_test",".","","","",","
"1215.5499999644235","<p style=""color:white;""> Next Figure: Male or Female? </p>","188","html-keyboard-response","458","1224694","0.0-19.0-0.10","prediction","","","",",",""
"null","<div style=""color:white; font-size:60px;"">+</div>","null","html-keyboard-response","459","1225699","0.0-19.0-1.10","fixation","","","","",""
"50.805000006221235","Stimuli/Hangul_M20.bmp","188","image-keyboard-response","460","1225752","0.0-19.0-2.10","c2_test",",","","","",","
"929.8600000329316","<p style=""color:white;""> Next Figure: Male or Female? </p>","188","html-keyboard-response","461","1226683","0.0-19.0-0.11","prediction","","","",",",""
"null","<div style=""color:white; font-size:60px;"">+</div>","null","html-keyboard-response","462","1227686","0.0-19.0-1.11","fixation","","","","",""
"1580.19999996759","Stimuli/Hangul_M0.bmp","190","image-keyboard-response","463","1229267","0.0-19.0-2.11","c2_test",",","","","","."
"2061.915000085719","<p style=""color:white;""> Next Figure: Male or Female? </p>","188","html-keyboard-response","464","1231330","0.0-19.0-0.12","prediction","","","",",",""
"null","<div style=""color:white; font-size:60px;"">+</div>","null","html-keyboard-response","465","1232348","0.0-19.0-1.12","fixation","","","","",""
"1025.315000093542","Stimuli/Hangul_M4.bmp","188","image-keyboard-response","466","1233376","0.0-19.0-2.12","c2_test",",","","","",","
"1280.1100000506267","<p style=""color:white;""> Next Figure: Male or Female? </p>","188","html-keyboard-response","467","1234657","0.0-19.0-0.13","prediction","","","",",",""
"null","<div style=""color:white; font-size:60px;"">+</div>","null","html-keyboard-response","468","1235659","0.0-19.0-1.13","fixation","","","","",""
"1354.0899999206886","Stimuli/Hangul_M14.bmp","190","image-keyboard-response","469","1237016","0.0-19.0-2.13","c2_test",",","","","","."
"736.3250000635162","<p style=""color:white;""> Next Figure: Male or Female? </p>","188","html-keyboard-response","470","1237755","0.0-19.0-0.14","prediction","","","",",",""
"null","<div style=""color:white; font-size:60px;"">+</div>","null","html-keyboard-response","471","1238759","0.0-19.0-1.14","fixation","","","","",""
"33.0250000115484","Stimuli/Hangul_M8.bmp","188","image-keyboard-response","472","1238793","0.0-19.0-2.14","c2_test",",","","","",","
"1223.0349999153987","<p style=""color:white;""> Next Figure: Male or Female? </p>","190","html-keyboard-response","473","1240019","0.0-19.0-0.15","prediction","","","",".",""
"null","<div style=""color:white; font-size:60px;"">+</div>","null","html-keyboard-response","474","1241023","0.0-19.0-1.15","fixation","","","","",""
"1032.14999998454","Stimuli/Hangul_M22.bmp","190","image-keyboard-response","475","1242056","0.0-19.0-2.15","c2_test",",","","","","."
"1925.6400000303984","<p style=""color:white;""> Next Figure: Male or Female? </p>","188","html-keyboard-response","476","1243983","0.0-19.0-0.16","prediction","","","",",",""
"null","<div style=""color:white; font-size:60px;"">+</div>","null","html-keyboard-response","477","1244985","0.0-19.0-1.16","fixation","","","","",""
"4453.389999922365","Stimuli/Hangul_M18.bmp","188","image-keyboard-response","478","1249440","0.0-19.0-2.16","c2_test",",","","","",","
"1360.5949999764562","<p style=""color:white;""> Next Figure: Male or Female? </p>","188","html-keyboard-response","479","1250802","0.0-19.0-0.17","prediction","","","",",",""
"null","<div style=""color:white; font-size:60px;"">+</div>","null","html-keyboard-response","480","1251805","0.0-19.0-1.17","fixation","","","","",""
"3755.7200000155717","Stimuli/Hangul_F5.bmp","190","image-keyboard-response","481","1255563","0.0-19.0-2.17","c2_test",".","","","","."
"2865.9800000023097","<p style=""color:white;""> Next Figure: Male or Female? </p>","188","html-keyboard-response","482","1258430","0.0-19.0-0.18","prediction","","","",",",""
"null","<div style=""color:white; font-size:60px;"">+</div>","null","html-keyboard-response","483","1259433","0.0-19.0-1.18","fixation","","","","",""
"2167.1250000363216","Stimuli/Hangul_F2.bmp","188","image-keyboard-response","484","1261602","0.0-19.0-2.18","c2_test",".","","","",","
"2428.1700000865385","<p style=""color:white;""> Next Figure: Male or Female? </p>","188","html-keyboard-response","485","1264032","0.0-19.0-0.19","prediction","","","",",",""
"null","<div style=""color:white; font-size:60px;"">+</div>","null","html-keyboard-response","486","1265034","0.0-19.0-1.19","fixation","","","","",""
"4252.680000034161","Stimuli/Hangul_M23.bmp","188","image-keyboard-response","487","1269288","0.0-19.0-2.19","c2_test",",","","","",","
"1633.5650000255555","<p style=""color:white;""> Next Figure: Male or Female? </p>","190","html-keyboard-response","488","1270923","0.0-19.0-0.20","prediction","","","",".",""
"null","<div style=""color:white; font-size:60px;"">+</div>","null","html-keyboard-response","489","1271925","0.0-19.0-1.20","fixation","","","","",""
"2861.1399999354035","Stimuli/Hangul_F0.bmp","188","image-keyboard-response","490","1274789","0.0-19.0-2.20","c2_test",".","","","",","
"1186.6500000469387","<p style=""color:white;""> Next Figure: Male or Female? </p>","190","html-keyboard-response","491","1275977","0.0-19.0-0.21","prediction","","","",".",""
"null","<div style=""color:white; font-size:60px;"">+</div>","null","html-keyboard-response","492","1276980","0.0-19.0-1.21","fixation","","","","",""
"1564.5500000100583","Stimuli/Hangul_M21.bmp","190","image-keyboard-response","493","1278546","0.0-19.0-2.21","c2_test",",","","","","."
"1590.724999899976","<p style=""color:white;""> Next Figure: Male or Female? </p>","188","html-keyboard-response","494","1280138","0.0-19.0-0.22","prediction","","","",",",""
"null","<div style=""color:white; font-size:60px;"">+</div>","null","html-keyboard-response","495","1281141","0.0-19.0-1.22","fixation","","","","",""
"1729.3549999594688","Stimuli/Hangul_M3.bmp","190","image-keyboard-response","496","1282872","0.0-19.0-2.22","c2_test",",","","","","."
"1803.8500000257045","<p style=""color:white;""> Next Figure: Male or Female? </p>","190","html-keyboard-response","497","1284677","0.0-19.0-0.23","prediction","","","",".",""
"null","<div style=""color:white; font-size:60px;"">+</div>","null","html-keyboard-response","498","1285680","0.0-19.0-1.23","fixation","","","","",""
"3564.4150000298396","Stimuli/Hangul_F1.bmp","188","image-keyboard-response","499","1289246","0.0-19.0-2.23","c2_test",".","","","",","
"1653.8650000002235","<p style=""color:white;""> Next Figure: Male or Female? </p>","188","html-keyboard-response","500","1290901","0.0-19.0-0.24","prediction","","","",",",""
"null","<div style=""color:white; font-size:60px;"">+</div>","null","html-keyboard-response","501","1291903","0.0-19.0-1.24","fixation","","","","",""
"1973.8049999577925","Stimuli/Hangul_M17.bmp","188","image-keyboard-response","502","1293879","0.0-19.0-2.24","c2_test",",","","","",","
"3741.0450000315905","<p style=""color:white;""> Next Figure: Male or Female? </p>","190","html-keyboard-response","503","1297621","0.0-19.0-0.25","prediction","","","",".",""
"null","<div style=""color:white; font-size:60px;"">+</div>","null","html-keyboard-response","504","1298626","0.0-19.0-1.25","fixation","","","","",""
"1817.985000088811","Stimuli/Hangul_F3.bmp","188","image-keyboard-response","505","1300445","0.0-19.0-2.25","c2_test",".","","","",","
"1580.7700000004843","<p style=""color:white;""> Next Figure: Male or Female? </p>","188","html-keyboard-response","506","1302028","0.0-19.0-0.26","prediction","","","",",",""
"null","<div style=""color:white; font-size:60px;"">+</div>","null","html-keyboard-response","507","1303032","0.0-19.0-1.26","fixation","","","","",""
"6543.044999940321","Stimuli/Hangul_F12.bmp","188","image-keyboard-response","508","1309577","0.0-19.0-2.26","c2_test",".","","","",","
"798.0599999427795","<p style=""color:white;""> Next Figure: Male or Female? </p>","188","html-keyboard-response","509","1310376","0.0-19.0-0.27","prediction","","","",",",""
"null","<div style=""color:white; font-size:60px;"">+</div>","null","html-keyboard-response","510","1311381","0.0-19.0-1.27","fixation","","","","",""
"1485.3049999801442","Stimuli/Hangul_F19.bmp","190","image-keyboard-response","511","1312868","0.0-19.0-2.27","c2_test",".","","","","."
"3823.850000044331","<p style=""color:white;""> Next Figure: Male or Female? </p>","188","html-keyboard-response","512","1316693","0.0-19.0-0.28","prediction","","","",",",""
"null","<div style=""color:white; font-size:60px;"">+</div>","null","html-keyboard-response","513","1317696","0.0-19.0-1.28","fixation","","","","",""
"1424.2400000803173","Stimuli/Hangul_F8.bmp","188","image-keyboard-response","514","1319122","0.0-19.0-2.28","c2_test",".","","","",","
"1200.8549999445677","<p style=""color:white;""> Next Figure: Male or Female? </p>","188","html-keyboard-response","515","1320325","0.0-19.0-0.29","prediction","","","",",",""
"null","<div style=""color:white; font-size:60px;"">+</div>","null","html-keyboard-response","516","1321330","0.0-19.0-1.29","fixation","","","","",""
"1281.345000024885","Stimuli/Hangul_M5.bmp","188","image-keyboard-response","517","1322612","0.0-19.0-2.29","c2_test",",","","","",","
"1592.8049999056384","<p style=""color:white;""> Next Figure: Male or Female? </p>","188","html-keyboard-response","518","1324207","0.0-19.0-0.30","prediction","","","",",",""
"null","<div style=""color:white; font-size:60px;"">+</div>","null","html-keyboard-response","519","1325212","0.0-19.0-1.30","fixation","","","","",""
"1206.9800000172108","Stimuli/Hangul_F15.bmp","190","image-keyboard-response","520","1326420","0.0-19.0-2.30","c2_test",".","","","","."
"930.9099999954924","<p style=""color:white;""> Next Figure: Male or Female? </p>","188","html-keyboard-response","521","1327352","0.0-19.0-0.31","prediction","","","",",",""
"null","<div style=""color:white; font-size:60px;"">+</div>","null","html-keyboard-response","522","1328357","0.0-19.0-1.31","fixation","","","","",""
"2622.550000087358","Stimuli/Hangul_M1.bmp","190","image-keyboard-response","523","1330982","0.0-19.0-2.31","c2_test",",","","","","."
"1681.3599999295548","<p style=""color:white;""> Next Figure: Male or Female? </p>","190","html-keyboard-response","524","1332664","0.0-19.0-0.32","prediction","","","",".",""
"null","<div style=""color:white; font-size:60px;"">+</div>","null","html-keyboard-response","525","1333669","0.0-19.0-1.32","fixation","","","","",""
"1628.7500000325963","Stimuli/Hangul_M10.bmp","188","image-keyboard-response","526","1335300","0.0-19.0-2.32","c2_test",",","","","",","
"1098.134999978356","<p style=""color:white;""> Next Figure: Male or Female? </p>","188","html-keyboard-response","527","1336399","0.0-19.0-0.33","prediction","","","",",",""
"null","<div style=""color:white; font-size:60px;"">+</div>","null","html-keyboard-response","528","1337404","0.0-19.0-1.33","fixation","","","","",""
"1566.0399999469519","Stimuli/Hangul_F4.bmp","188","image-keyboard-response","529","1338972","0.0-19.0-2.33","c2_test",".","","","",","
"2288.0899999290705","<p style=""color:white;""> Next Figure: Male or Female? </p>","188","html-keyboard-response","530","1341262","0.0-19.0-0.34","prediction","","","",",",""
"null","<div style=""color:white; font-size:60px;"">+</div>","null","html-keyboard-response","531","1342267","0.0-19.0-1.34","fixation","","","","",""
"44.66500005219132","Stimuli/Hangul_F23.bmp","188","image-keyboard-response","532","1342314","0.0-19.0-2.34","c2_test",".","","","",","
"1590.0200000032783","<p style=""color:white;""> Next Figure: Male or Female? </p>","190","html-keyboard-response","533","1343909","0.0-19.0-0.35","prediction","","","",".",""
"null","<div style=""color:white; font-size:60px;"">+</div>","null","html-keyboard-response","534","1344911","0.0-19.0-1.35","fixation","","","","",""
"1461.644999915734","Stimuli/Hangul_F20.bmp","190","image-keyboard-response","535","1346374","0.0-19.0-2.35","c2_test",".","","","","."
"2714.310000068508","<p style=""color:white;""> Next Figure: Male or Female? </p>","188","html-keyboard-response","536","1349089","0.0-19.0-0.36","prediction","","","",",",""
"null","<div style=""color:white; font-size:60px;"">+</div>","null","html-keyboard-response","537","1350091","0.0-19.0-1.36","fixation","","","","",""
"1474.69999990426","Stimuli/Hangul_F13.bmp","188","image-keyboard-response","538","1351567","0.0-19.0-2.36","c2_test",".","","","",","
"3114.7049999563023","<p style=""color:white;""> Next Figure: Male or Female? </p>","188","html-keyboard-response","539","1354683","0.0-19.0-0.37","prediction","","","",",",""
"null","<div style=""color:white; font-size:60px;"">+</div>","null","html-keyboard-response","540","1355698","0.0-19.0-1.37","fixation","","","","",""
"1897.1800000872463","Stimuli/Hangul_F16.bmp","188","image-keyboard-response","541","1357597","0.0-19.0-2.37","c2_test",".","","","",","
"2870.7200000062585","<p style=""color:white;""> Next Figure: Male or Female? </p>","188","html-keyboard-response","542","1360468","0.0-19.0-0.38","prediction","","","",",",""
"null","<div style=""color:white; font-size:60px;"">+</div>","null","html-keyboard-response","543","1361470","0.0-19.0-1.38","fixation","","","","",""
"3352.7600000379607","Stimuli/Hangul_M2.bmp","188","image-keyboard-response","544","1364825","0.0-19.0-2.38","c2_test",",","","","",","
"925.5300000077114","<p style=""color:white;""> Next Figure: Male or Female? </p>","188","html-keyboard-response","545","1365752","0.0-19.0-0.39","prediction","","","",",",""
"null","<div style=""color:white; font-size:60px;"">+</div>","null","html-keyboard-response","546","1366763","0.0-19.0-1.39","fixation","","","","",""
"1590.8000000054017","Stimuli/Hangul_F17.bmp","190","image-keyboard-response","547","1368355","0.0-19.0-2.39","c2_test",".","","","","."
"2732.6549999415874","<p style=""color:white;""> Next Figure: Male or Female? </p>","190","html-keyboard-response","548","1371089","0.0-19.0-0.40","prediction","","","",".",""
"null","<div style=""color:white; font-size:60px;"">+</div>","null","html-keyboard-response","549","1372094","0.0-19.0-1.40","fixation","","","","",""
"1078.5299999406561","Stimuli/Hangul_M19.bmp","190","image-keyboard-response","550","1373175","0.0-19.0-2.40","c2_test",",","","","","."
"884.8699999507517","<p style=""color:white;""> Next Figure: Male or Female? </p>","190","html-keyboard-response","551","1374061","0.0-19.0-0.41","prediction","","","",".",""
"null","<div style=""color:white; font-size:60px;"">+</div>","null","html-keyboard-response","552","1375066","0.0-19.0-1.41","fixation","","","","",""
"15263.990000006743","Stimuli/Hangul_F9.bmp","190","image-keyboard-response","553","1390331","0.0-19.0-2.41","c2_test",".","","","","."
"787.8849999979138","<p style=""color:white;""> Next Figure: Male or Female? </p>","190","html-keyboard-response","554","1391120","0.0-19.0-0.42","prediction","","","",".",""
"null","<div style=""color:white; font-size:60px;"">+</div>","null","html-keyboard-response","555","1392124","0.0-19.0-1.42","fixation","","","","",""
"1246.8949999893084","Stimuli/Hangul_M13.bmp","188","image-keyboard-response","556","1393372","0.0-19.0-2.42","c2_test",",","","","",","
"530.5749999824911","<p style=""color:white;""> Next Figure: Male or Female? </p>","188","html-keyboard-response","557","1393904","0.0-19.0-0.43","prediction","","","",",",""
"null","<div style=""color:white; font-size:60px;"">+</div>","null","html-keyboard-response","558","1394907","0.0-19.0-1.43","fixation","","","","",""
"756.5450000111014","Stimuli/Hangul_M15.bmp","188","image-keyboard-response","559","1395665","0.0-19.0-2.43","c2_test",",","","","",","
"325750.52999996115","<p style=""color:white;""> Next Figure: Male or Female? </p>","190","html-keyboard-response","560","1721418","0.0-19.0-0.44","prediction","","","",".",""
"null","<div style=""color:white; font-size:60px;"">+</div>","null","html-keyboard-response","561","1722420","0.0-19.0-1.44","fixation","","","","",""
"3910.715000005439","Stimuli/Hangul_F10.bmp","190","image-keyboard-response","562","1726333","0.0-19.0-2.44","c2_test",".","","","","."
"1260.6900000246242","<p style=""color:white;""> Next Figure: Male or Female? </p>","188","html-keyboard-response","563","1727594","0.0-19.0-0.45","prediction","","","",",",""
"null","<div style=""color:white; font-size:60px;"">+</div>","null","html-keyboard-response","564","1728599","0.0-19.0-1.45","fixation","","","","",""
"1271.5450000250712","Stimuli/Hangul_M11.bmp","188","image-keyboard-response","565","1729872","0.0-19.0-2.45","c2_test",",","","","",","
"1487.5049999682233","<p style=""color:white;""> Next Figure: Male or Female? </p>","190","html-keyboard-response","566","1731361","0.0-19.0-0.46","prediction","","","",".",""
"null","<div style=""color:white; font-size:60px;"">+</div>","null","html-keyboard-response","567","1732365","0.0-19.0-1.46","fixation","","","","",""
"1055.9350000694394","Stimuli/Hangul_F21.bmp","190","image-keyboard-response","568","1733423","0.0-19.0-2.46","c2_test",".","","","","."
"1151.7300000414252","<p style=""color:white;""> Next Figure: Male or Female? </p>","188","html-keyboard-response","569","1734576","0.0-19.0-0.47","prediction","","","",",",""
"null","<div style=""color:white; font-size:60px;"">+</div>","null","html-keyboard-response","570","1735579","0.0-19.0-1.47","fixation","","","","",""
"1170.7900000037625","Stimuli/Hangul_F11.bmp","188","image-keyboard-response","571","1736751","0.0-19.0-2.47","c2_test",".","","","",","
"1909.0850000502542","<p style=""color:white;""> Next Figure: Male or Female? </p>","190","html-keyboard-response","572","1738662","0.0-19.0-0.48","prediction","","","",".",""
"null","<div style=""color:white; font-size:60px;"">+</div>","null","html-keyboard-response","573","1739665","0.0-19.0-1.48","fixation","","","","",""
"1426.659999997355","Stimuli/Hangul_F24.bmp","190","image-keyboard-response","574","1741094","0.0-19.0-2.48","c2_test",".","","","","."
"1320.0949999736622","<p style=""color:white;""> Next Figure: Male or Female? </p>","188","html-keyboard-response","575","1742415","0.0-19.0-0.49","prediction","","","",",",""
"null","<div style=""color:white; font-size:60px;"">+</div>","null","html-keyboard-response","576","1743419","0.0-19.0-1.49","fixation","","","","",""
"1373.420000076294","Stimuli/Hangul_M9.bmp","188","image-keyboard-response","577","1744793","0.0-19.0-2.49","c2_test",",","","","",","
"83432.29000002611","<p style=""color:white;"">Good job, block 1 complete! Please take a moment to rest.</p> <p style=""color:white;"">When you are ready to continue with block 2 of 4, press the space bar.</p> ","32","html-keyboard-response","578","1828225","0.0-20.0","","","","","",""
"1829.120000009425","<p style=""color:white;""> Next Figure: Male or Female? </p>","188","html-keyboard-response","579","1832059","0.0-21.0-0.0","prediction","","","",",",""
"null","<div style=""color:white; font-size:60px;"">+</div>","null","html-keyboard-response","580","1833063","0.0-21.0-1.0","fixation","","","","",""
"4531.034999992698","Stimuli/Hangul_F48.bmp","190","image-keyboard-response","581","1837596","0.0-21.0-2.0","c2_test",".","","","","."
"1627.7300000656396","<p style=""color:white;""> Next Figure: Male or Female? </p>","188","html-keyboard-response","582","1839225","0.0-21.0-0.1","prediction","","","",",",""
"null","<div style=""color:white; font-size:60px;"">+</div>","null","html-keyboard-response","583","1840227","0.0-21.0-1.1","fixation","","","","",""
"3860.119999968447","Stimuli/Hangul_M38.bmp","190","image-keyboard-response","584","1844089","0.0-21.0-2.1","c2_test",",","","","","."
"1116.7699999641627","<p style=""color:white;""> Next Figure: Male or Female? </p>","190","html-keyboard-response","585","1845207","0.0-21.0-0.2","prediction","","","",".",""
"null","<div style=""color:white; font-size:60px;"">+</div>","null","html-keyboard-response","586","1846224","0.0-21.0-1.2","fixation","","","","",""
"1670.299999997951","Stimuli/Hangul_F39.bmp","190","image-keyboard-response","587","1847896","0.0-21.0-2.2","c2_test",".","","","","."
"1473.2849999563769","<p style=""color:white;""> Next Figure: Male or Female? </p>","188","html-keyboard-response","588","1849371","0.0-21.0-0.3","prediction","","","",",",""
"null","<div style=""color:white; font-size:60px;"">+</div>","null","html-keyboard-response","589","1850381","0.0-21.0-1.3","fixation","","","","",""
"1343.5450000688434","Stimuli/Hangul_F32.bmp","188","image-keyboard-response","590","1851728","0.0-21.0-2.3","c2_test",".","","","",","
"1466.9350000331178","<p style=""color:white;""> Next Figure: Male or Female? </p>","190","html-keyboard-response","591","1853196","0.0-21.0-0.4","prediction","","","",".",""
"null","<div style=""color:white; font-size:60px;"">+</div>","null","html-keyboard-response","592","1854199","0.0-21.0-1.4","fixation","","","","",""
"638.0099999951199","Stimuli/Hangul_M47.bmp","190","image-keyboard-response","593","1854838","0.0-21.0-2.4","c2_test",",","","","","."
"620.5649999901652","<p style=""color:white;""> Next Figure: Male or Female? </p>","188","html-keyboard-response","594","1855460","0.0-21.0-0.5","prediction","","","",",",""
"null","<div style=""color:white; font-size:60px;"">+</div>","null","html-keyboard-response","595","1856464","0.0-21.0-1.5","fixation","","","","",""
"1682.1549999294803","Stimuli/Hangul_F45.bmp","190","image-keyboard-response","596","1858147","0.0-21.0-2.5","c2_test",".","","","","."
"342.1749999979511","<p style=""color:white;""> Next Figure: Male or Female? </p>","188","html-keyboard-response","597","1858491","0.0-21.0-0.6","prediction","","","",",",""
"null","<div style=""color:white; font-size:60px;"">+</div>","null","html-keyboard-response","598","1859497","0.0-21.0-1.6","fixation","","","","",""
"890.6300000380725","Stimuli/Hangul_M46.bmp","188","image-keyboard-response","599","1860389","0.0-21.0-2.6","c2_test",",","","","",","
"466.5749999694526","<p style=""color:white;""> Next Figure: Male or Female? </p>","190","html-keyboard-response","600","1860857","0.0-21.0-0.7","prediction","","","",".",""
"null","<div style=""color:white; font-size:60px;"">+</div>","null","html-keyboard-response","601","1861858","0.0-21.0-1.7","fixation","","","","",""
"683.3349999506027","Stimuli/Hangul_M27.bmp","190","image-keyboard-response","602","1862543","0.0-21.0-2.7","c2_test",",","","","","."
"343.8900000182912","<p style=""color:white;""> Next Figure: Male or Female? </p>","188","html-keyboard-response","603","1862888","0.0-21.0-0.8","prediction","","","",",",""
"null","<div style=""color:white; font-size:60px;"">+</div>","null","html-keyboard-response","604","1863900","0.0-21.0-1.8","fixation","","","","",""
"2543.309999979101","Stimuli/Hangul_M36.bmp","188","image-keyboard-response","605","1866445","0.0-21.0-2.8","c2_test",",","","","",","
"1366.814999957569","<p style=""color:white;""> Next Figure: Male or Female? </p>","190","html-keyboard-response","606","1867813","0.0-21.0-0.9","prediction","","","",".",""
"null","<div style=""color:white; font-size:60px;"">+</div>","null","html-keyboard-response","607","1868816","0.0-21.0-1.9","fixation","","","","",""
"2326.9800000125542","Stimuli/Hangul_M37.bmp","190","image-keyboard-response","608","1871145","0.0-21.0-2.9","c2_test",",","","","","."
"1150.3800000064075","<p style=""color:white;""> Next Figure: Male or Female? </p>","188","html-keyboard-response","609","1872296","0.0-21.0-0.10","prediction","","","",",",""
"null","<div style=""color:white; font-size:60px;"">+</div>","null","html-keyboard-response","610","1873300","0.0-21.0-1.10","fixation","","","","",""
"1249.974999926053","Stimuli/Hangul_F35.bmp","190","image-keyboard-response","611","1874552","0.0-21.0-2.10","c2_test",".","","","","."
"1277.490000007674","<p style=""color:white;""> Next Figure: Male or Female? </p>","188","html-keyboard-response","612","1875831","0.0-21.0-0.11","prediction","","","",",",""
"null","<div style=""color:white; font-size:60px;"">+</div>","null","html-keyboard-response","613","1876834","0.0-21.0-1.11","fixation","","","","",""
"898.3299999963492","Stimuli/Hangul_M44.bmp","188","image-keyboard-response","614","1877734","0.0-21.0-2.11","c2_test",",","","","",","
"420.1899999752641","<p style=""color:white;""> Next Figure: Male or Female? </p>","188","html-keyboard-response","615","1878156","0.0-21.0-0.12","prediction","","","",",",""
"null","<div style=""color:white; font-size:60px;"">+</div>","null","html-keyboard-response","616","1879162","0.0-21.0-1.12","fixation","","","","",""
"874.9349999707192","Stimuli/Hangul_F34.bmp","190","image-keyboard-response","617","1880038","0.0-21.0-2.12","c2_test",".","","","","."
"1031.8650000263005","<p style=""color:white;""> Next Figure: Male or Female? </p>","190","html-keyboard-response","618","1881071","0.0-21.0-0.13","prediction","","","",".",""
"null","<div style=""color:white; font-size:60px;"">+</div>","null","html-keyboard-response","619","1882076","0.0-21.0-1.13","fixation","","","","",""
"1360.8049999456853","Stimuli/Hangul_M31.bmp","188","image-keyboard-response","620","1883438","0.0-21.0-2.13","c2_test",",","","","",","
"2119.6800000034273","<p style=""color:white;""> Next Figure: Male or Female? </p>","188","html-keyboard-response","621","1885559","0.0-21.0-0.14","prediction","","","",",",""
"null","<div style=""color:white; font-size:60px;"">+</div>","null","html-keyboard-response","622","1886567","0.0-21.0-1.14","fixation","","","","",""
"730.4299999959767","Stimuli/Hangul_M26.bmp","188","image-keyboard-response","623","1887299","0.0-21.0-2.14","c2_test",",","","","",","
"1409.1999999945983","<p style=""color:white;""> Next Figure: Male or Female? </p>","188","html-keyboard-response","624","1888713","0.0-21.0-0.15","prediction","","","",",",""
"null","<div style=""color:white; font-size:60px;"">+</div>","null","html-keyboard-response","625","1889717","0.0-21.0-1.15","fixation","","","","",""
"914.5649999845773","Stimuli/Hangul_M41.bmp","188","image-keyboard-response","626","1890632","0.0-21.0-2.15","c2_test",",","","","",","
"2834.779999917373","<p style=""color:white;""> Next Figure: Male or Female? </p>","188","html-keyboard-response","627","1893468","0.0-21.0-0.16","prediction","","","",",",""
"null","<div style=""color:white; font-size:60px;"">+</div>","null","html-keyboard-response","628","1894472","0.0-21.0-1.16","fixation","","","","",""
"731.6749999299645","Stimuli/Hangul_M33.bmp","190","image-keyboard-response","629","1895205","0.0-21.0-2.16","c2_test",",","","","","."
"957.1649999124929","<p style=""color:white;""> Next Figure: Male or Female? </p>","188","html-keyboard-response","630","1896164","0.0-21.0-0.17","prediction","","","",",",""
"null","<div style=""color:white; font-size:60px;"">+</div>","null","html-keyboard-response","631","1897168","0.0-21.0-1.17","fixation","","","","",""
"4897.4900000030175","Stimuli/Hangul_F42.bmp","190","image-keyboard-response","632","1902066","0.0-21.0-2.17","c2_test",".","","","","."
"937.1850000461563","<p style=""color:white;""> Next Figure: Male or Female? </p>","190","html-keyboard-response","633","1903005","0.0-21.0-0.18","prediction","","","",".",""
"null","<div style=""color:white; font-size:60px;"">+</div>","null","html-keyboard-response","634","1904008","0.0-21.0-1.18","fixation","","","","",""
"1180.6050000013784","Stimuli/Hangul_M43.bmp","188","image-keyboard-response","635","1905190","0.0-21.0-2.18","c2_test",",","","","",","
"1832.5499999336898","<p style=""color:white;""> Next Figure: Male or Female? </p>","188","html-keyboard-response","636","1907024","0.0-21.0-0.19","prediction","","","",",",""
"null","<div style=""color:white; font-size:60px;"">+</div>","null","html-keyboard-response","637","1908030","0.0-21.0-1.19","fixation","","","","",""
"148.71500001754612","Stimuli/Hangul_M45.bmp","188","image-keyboard-response","638","1908180","0.0-21.0-2.19","c2_test",",","","","",","
"940.569999977015","<p style=""color:white;""> Next Figure: Male or Female? </p>","188","html-keyboard-response","639","1909122","0.0-21.0-0.20","prediction","","","",",",""
"null","<div style=""color:white; font-size:60px;"">+</div>","null","html-keyboard-response","640","1910124","0.0-21.0-1.20","fixation","","","","",""
"172.57499997504056","Stimuli/Hangul_F38.bmp","188","image-keyboard-response","641","1910298","0.0-21.0-2.20","c2_test",".","","","",","
"593.5049999970943","<p style=""color:white;""> Next Figure: Male or Female? </p>","188","html-keyboard-response","642","1910892","0.0-21.0-0.21","prediction","","","",",",""
"null","<div style=""color:white; font-size:60px;"">+</div>","null","html-keyboard-response","643","1911896","0.0-21.0-1.21","fixation","","","","",""
"101.9899999955669","Stimuli/Hangul_F36.bmp","188","image-keyboard-response","644","1911999","0.0-21.0-2.21","c2_test",".","","","",","
"1704.2399999918416","<p style=""color:white;""> Next Figure: Male or Female? </p>","190","html-keyboard-response","645","1913704","0.0-21.0-0.22","prediction","","","",".",""
"null","<div style=""color:white; font-size:60px;"">+</div>","null","html-keyboard-response","646","1914710","0.0-21.0-1.22","fixation","","","","",""
"286.8699999526143","Stimuli/Hangul_F28.bmp","190","image-keyboard-response","647","1914999","0.0-21.0-2.22","c2_test",".","","","","."
"315.27500005904585","<p style=""color:white;""> Next Figure: Male or Female? </p>","190","html-keyboard-response","648","1915316","0.0-21.0-0.23","prediction","","","",".",""
"null","<div style=""color:white; font-size:60px;"">+</div>","null","html-keyboard-response","649","1916320","0.0-21.0-1.23","fixation","","","","",""
"179.78999996557832","Stimuli/Hangul_F31.bmp","188","image-keyboard-response","650","1916504","0.0-21.0-2.23","c2_test",".","","","",","
"790.6899999361485","<p style=""color:white;""> Next Figure: Male or Female? </p>","190","html-keyboard-response","651","1917296","0.0-21.0-0.24","prediction","","","",".",""
"null","<div style=""color:white; font-size:60px;"">+</div>","null","html-keyboard-response","652","1918299","0.0-21.0-1.24","fixation","","","","",""
"779.6550000784919","Stimuli/Hangul_M40.bmp","190","image-keyboard-response","653","1919080","0.0-21.0-2.24","c2_test",",","","","","."
"1341.2150000222027","<p style=""color:white;""> Next Figure: Male or Female? </p>","188","html-keyboard-response","654","1920422","0.0-21.0-0.25","prediction","","","",",",""
"null","<div style=""color:white; font-size:60px;"">+</div>","null","html-keyboard-response","655","1921427","0.0-21.0-1.25","fixation","","","","",""
