"rt","stimulus","key_press","trial_type","trial_index","time_elapsed","internal_node_id","test_part","correct_response","C1_train","C1","A","C2"
"2789.9099999995087","<p style=""color:white;"">Welcome to the experiment! Press any key to begin.</p>","32","html-keyboard-response","0","2796","0.0-0.0","","","","","",""
"25687.615000000733","<p style=""color:white;"">You will see a series of abstract figures. They are adaptations of signs in the Korean alphabet, but that is not important for this study. </p><p style=""color:white;"">Abstract figures sometimes have a more masculine or feminine shape. Here, each figure has already been assigned a gender as <q>Male</q> or <q>Female</q> by a panel of respondents in a pilot study. The respondents were not given specific instructions on how to do this, but were only told to use their intuition and to take into account the entire configuration of the stimulus. </p><p style=""color:white;"">Your task now is to guess the assigned gender of each figure. Please press the corresponding response keys to indicate your choice: </p><p style=""color:white;""> Male &#8594 <q>,</q> (comma)</p><p style=""color:white;""> Female &#8594 <q>.</q> (period)</p><p style=""color:white;"">Press either response keys to continue.</p>","190","html-keyboard-response","1","28487","0.0-1.0","","","","","",""
"15489.104999998744","<p style=""color:white;"">Your choice is correct if it matches the gender assigned by the majority of respondents in the pilot study.</p> <p style=""color:white;"">For each correct choice you will receive 2 cents. There will be 200 trials divided into 4 blocks of 50 trials. You will be able to take a break after every 50 trials.</p> <p style=""color:white;"">Press the space bar to continue.</p>","32","html-keyboard-response","2","43979","0.0-2.0","","","","","",""
"2435.109999998531","<p style=""color:white;"">Here are some examples.</p> <p style=""color:white;"">For each, guess whether the assigned figure is male-like or female-like and indicate your choice by pressing either response keys.</p> <p style=""color:white;"">Press the space bar to continue.</p>","32","html-keyboard-response","3","46414","0.0-3.0","","","","","",""
"null","<div style=""color:white; font-size:60px;"">+</div>","null","html-keyboard-response","4","49417","0.0-4.0-0.0","fixation","","","","",""
"1085.5149999988498","Stimuli/Hangul_E1.bmp","190","image-keyboard-response","5","50504","0.0-4.0-1.0","c1_train",",",".","","",""
"null","<div style=""color:white; font-size:60px;"">+</div>","null","html-keyboard-response","6","51506","0.0-4.0-0.1","fixation","","","","",""
"2876.329999999143","Stimuli/Hangul_E0.bmp","190","image-keyboard-response","7","54383","0.0-4.0-1.1","c1_train",",",".","","",""
"null","<div style=""color:white; font-size:60px;"">+</div>","null","html-keyboard-response","8","55385","0.0-4.0-0.2","fixation","","","","",""
"2667.955000000802","Stimuli/Hangul_E2.bmp","188","image-keyboard-response","9","58055","0.0-4.0-1.2","c1_train",".",",","","",""
"2072.2399999995105","<p style=""color:white;"">Let us begin! Press the space bar when you are ready to start block 1 of 4.</p> ","32","html-keyboard-response","10","60128","0.0-5.0","","","","","",""
"null","<div style=""color:white; font-size:60px;"">+</div>","null","html-keyboard-response","11","63133","0.0-6.0-0.0","fixation","","","","",""
"2595.6550000009884","Stimuli/Hangul_M8.bmp","188","image-keyboard-response","12","65731","0.0-6.0-1.0","test",",","",",","",""
"null","<div style=""color:white; font-size:60px;"">+</div>","null","html-keyboard-response","13","66734","0.0-6.0-0.1","fixation","","","","",""
"2342.3249999996187","Stimuli/Hangul_F0.bmp","190","image-keyboard-response","14","69078","0.0-6.0-1.1","test",".","",".","",""
"null","<div style=""color:white; font-size:60px;"">+</div>","null","html-keyboard-response","15","70080","0.0-6.0-0.2","fixation","","","","",""
"2233.619999999064","Stimuli/Hangul_M19.bmp","188","image-keyboard-response","16","72314","0.0-6.0-1.2","test",",","",",","",""
"null","<div style=""color:white; font-size:60px;"">+</div>","null","html-keyboard-response","17","73316","0.0-6.0-0.3","fixation","","","","",""
"2301.7799999997806","Stimuli/Hangul_M2.bmp","188","image-keyboard-response","18","75620","0.0-6.0-1.3","test",",","",",","",""
"null","<div style=""color:white; font-size:60px;"">+</div>","null","html-keyboard-response","19","76623","0.0-6.0-0.4","fixation","","","","",""
"2132.8450000000885","Stimuli/Hangul_M4.bmp","190","image-keyboard-response","20","78758","0.0-6.0-1.4","test",",","",".","",""
"null","<div style=""color:white; font-size:60px;"">+</div>","null","html-keyboard-response","21","79761","0.0-6.0-0.5","fixation","","","","",""
"2041.1299999996118","Stimuli/Hangul_M5.bmp","188","image-keyboard-response","22","81803","0.0-6.0-1.5","test",",","",",","",""
"null","<div style=""color:white; font-size:60px;"">+</div>","null","html-keyboard-response","23","82804","0.0-6.0-0.6","fixation","","","","",""
"2022.0849999986967","Stimuli/Hangul_F10.bmp","190","image-keyboard-response","24","84827","0.0-6.0-1.6","test",".","",".","",""
"null","<div style=""color:white; font-size:60px;"">+</div>","null","html-keyboard-response","25","85831","0.0-6.0-0.7","fixation","","","","",""
"4146.90999999948","Stimuli/Hangul_F22.bmp","188","image-keyboard-response","26","89979","0.0-6.0-1.7","test",".","",",","",""
"null","<div style=""color:white; font-size:60px;"">+</div>","null","html-keyboard-response","27","90981","0.0-6.0-0.8","fixation","","","","",""
"2076.73000000068","Stimuli/Hangul_M20.bmp","188","image-keyboard-response","28","93060","0.0-6.0-1.8","test",",","",",","",""
"null","<div style=""color:white; font-size:60px;"">+</div>","null","html-keyboard-response","29","94063","0.0-6.0-0.9","fixation","","","","",""
"1963.660000001255","Stimuli/Hangul_F19.bmp","190","image-keyboard-response","30","96028","0.0-6.0-1.9","test",".","",".","",""
"null","<div style=""color:white; font-size:60px;"">+</div>","null","html-keyboard-response","31","97031","0.0-6.0-0.10","fixation","","","","",""
"2082.0149999999558","Stimuli/Hangul_F6.bmp","188","image-keyboard-response","32","99115","0.0-6.0-1.10","test",".","",",","",""
"null","<div style=""color:white; font-size:60px;"">+</div>","null","html-keyboard-response","33","100117","0.0-6.0-0.11","fixation","","","","",""
"2029.5600000008562","Stimuli/Hangul_M22.bmp","188","image-keyboard-response","34","102148","0.0-6.0-1.11","test",",","",",","",""
"null","<div style=""color:white; font-size:60px;"">+</div>","null","html-keyboard-response","35","103150","0.0-6.0-0.12","fixation","","","","",""
"2310.639999999694","Stimuli/Hangul_F15.bmp","190","image-keyboard-response","36","105462","0.0-6.0-1.12","test",".","",".","",""
"null","<div style=""color:white; font-size:60px;"">+</div>","null","html-keyboard-response","37","106464","0.0-6.0-0.13","fixation","","","","",""
"2223.099999999249","Stimuli/Hangul_F4.bmp","190","image-keyboard-response","38","108687","0.0-6.0-1.13","test",".","",".","",""
"null","<div style=""color:white; font-size:60px;"">+</div>","null","html-keyboard-response","39","109689","0.0-6.0-0.14","fixation","","","","",""
"2100.4199999988487","Stimuli/Hangul_M16.bmp","190","image-keyboard-response","40","111790","0.0-6.0-1.14","test",",","",".","",""
"null","<div style=""color:white; font-size:60px;"">+</div>","null","html-keyboard-response","41","112792","0.0-6.0-0.15","fixation","","","","",""
"2175.4000000000815","Stimuli/Hangul_M0.bmp","188","image-keyboard-response","42","114967","0.0-6.0-1.15","test",",","",",","",""
"null","<div style=""color:white; font-size:60px;"">+</div>","null","html-keyboard-response","43","115968","0.0-6.0-0.16","fixation","","","","",""
"2067.2649999996793","Stimuli/Hangul_F3.bmp","188","image-keyboard-response","44","118038","0.0-6.0-1.16","test",".","",",","",""
"null","<div style=""color:white; font-size:60px;"">+</div>","null","html-keyboard-response","45","119040","0.0-6.0-0.17","fixation","","","","",""
"1899.4050000001298","Stimuli/Hangul_F1.bmp","190","image-keyboard-response","46","120942","0.0-6.0-1.17","test",".","",".","",""
"null","<div style=""color:white; font-size:60px;"">+</div>","null","html-keyboard-response","47","121943","0.0-6.0-0.18","fixation","","","","",""
"2375.235000001354","Stimuli/Hangul_F5.bmp","190","image-keyboard-response","48","124319","0.0-6.0-1.18","test",".","",".","",""
"null","<div style=""color:white; font-size:60px;"">+</div>","null","html-keyboard-response","49","125321","0.0-6.0-0.19","fixation","","","","",""
"2039.5950000001758","Stimuli/Hangul_M9.bmp","190","image-keyboard-response","50","127362","0.0-6.0-1.19","test",",","",".","",""
"null","<div style=""color:white; font-size:60px;"">+</div>","null","html-keyboard-response","51","128364","0.0-6.0-0.20","fixation","","","","",""
"2553.1950000004144","Stimuli/Hangul_F9.bmp","188","image-keyboard-response","52","130918","0.0-6.0-1.20","test",".","",",","",""
"null","<div style=""color:white; font-size:60px;"">+</div>","null","html-keyboard-response","53","131921","0.0-6.0-0.21","fixation","","","","",""
"2161.7000000005355","Stimuli/Hangul_M21.bmp","188","image-keyboard-response","54","134083","0.0-6.0-1.21","test",",","",",","",""
"null","<div style=""color:white; font-size:60px;"">+</div>","null","html-keyboard-response","55","135086","0.0-6.0-0.22","fixation","","","","",""
"1938.970000001049","Stimuli/Hangul_F18.bmp","190","image-keyboard-response","56","137027","0.0-6.0-1.22","test",".","",".","",""
"null","<div style=""color:white; font-size:60px;"">+</div>","null","html-keyboard-response","57","138030","0.0-6.0-0.23","fixation","","","","",""
"2003.7200000006123","Stimuli/Hangul_M14.bmp","190","image-keyboard-response","58","140035","0.0-6.0-1.23","test",",","",".","",""
"null","<div style=""color:white; font-size:60px;"">+</div>","null","html-keyboard-response","59","141036","0.0-6.0-0.24","fixation","","","","",""
"2190.3500000007625","Stimuli/Hangul_M1.bmp","188","image-keyboard-response","60","143228","0.0-6.0-1.24","test",",","",",","",""
"null","<div style=""color:white; font-size:60px;"">+</div>","null","html-keyboard-response","61","144231","0.0-6.0-0.25","fixation","","","","",""
"2075.665000000299","Stimuli/Hangul_M3.bmp","188","image-keyboard-response","62","146307","0.0-6.0-1.25","test",",","",",","",""
"null","<div style=""color:white; font-size:60px;"">+</div>","null","html-keyboard-response","63","147309","0.0-6.0-0.26","fixation","","","","",""
"2484.385000001552","Stimuli/Hangul_M7.bmp","188","image-keyboard-response","64","149795","0.0-6.0-1.26","test",",","",",","",""
"null","<div style=""color:white; font-size:60px;"">+</div>","null","html-keyboard-response","65","150795","0.0-6.0-0.27","fixation","","","","",""
"1969.7250000008207","Stimuli/Hangul_F14.bmp","190","image-keyboard-response","66","152766","0.0-6.0-1.27","test",".","",".","",""
"null","<div style=""color:white; font-size:60px;"">+</div>","null","html-keyboard-response","67","153768","0.0-6.0-0.28","fixation","","","","",""
"3058.4650000000547","Stimuli/Hangul_F7.bmp","190","image-keyboard-response","68","156827","0.0-6.0-1.28","test",".","",".","",""
"null","<div style=""color:white; font-size:60px;"">+</div>","null","html-keyboard-response","69","157833","0.0-6.0-0.29","fixation","","","","",""
"2416.7149999993853","Stimuli/Hangul_F17.bmp","188","image-keyboard-response","70","160251","0.0-6.0-1.29","test",".","",",","",""
"null","<div style=""color:white; font-size:60px;"">+</div>","null","html-keyboard-response","71","161253","0.0-6.0-0.30","fixation","","","","",""
"2181.2000000008848","Stimuli/Hangul_F20.bmp","188","image-keyboard-response","72","163436","0.0-6.0-1.30","test",".","",",","",""
"null","<div style=""color:white; font-size:60px;"">+</div>","null","html-keyboard-response","73","164438","0.0-6.0-0.31","fixation","","","","",""
"3199.6200000012177","Stimuli/Hangul_F2.bmp","190","image-keyboard-response","74","167638","0.0-6.0-1.31","test",".","",".","",""
"null","<div style=""color:white; font-size:60px;"">+</div>","null","html-keyboard-response","75","168639","0.0-6.0-0.32","fixation","","","","",""
"3213.7650000004214","Stimuli/Hangul_F24.bmp","190","image-keyboard-response","76","171855","0.0-6.0-1.32","test",".","",".","",""
"null","<div style=""color:white; font-size:60px;"">+</div>","null","html-keyboard-response","77","172856","0.0-6.0-0.33","fixation","","","","",""
"3670.7549999991897","Stimuli/Hangul_M17.bmp","188","image-keyboard-response","78","176528","0.0-6.0-1.33","test",",","",",","",""
"null","<div style=""color:white; font-size:60px;"">+</div>","null","html-keyboard-response","79","177530","0.0-6.0-0.34","fixation","","","","",""
"2561.7949999996054","Stimuli/Hangul_M15.bmp","188","image-keyboard-response","80","180094","0.0-6.0-1.34","test",",","",",","",""
"null","<div style=""color:white; font-size:60px;"">+</div>","null","html-keyboard-response","81","181096","0.0-6.0-0.35","fixation","","","","",""
"2198.350000000559","Stimuli/Hangul_F16.bmp","188","image-keyboard-response","82","183294","0.0-6.0-1.35","test",".","",",","",""
"null","<div style=""color:white; font-size:60px;"">+</div>","null","html-keyboard-response","83","184295","0.0-6.0-0.36","fixation","","","","",""
"3678.3849999992526","Stimuli/Hangul_F23.bmp","190","image-keyboard-response","84","187975","0.0-6.0-1.36","test",".","",".","",""
"null","<div style=""color:white; font-size:60px;"">+</div>","null","html-keyboard-response","85","188976","0.0-6.0-0.37","fixation","","","","",""
"2846.290000001318","Stimuli/Hangul_M6.bmp","190","image-keyboard-response","86","191823","0.0-6.0-1.37","test",",","",".","",""
"null","<div style=""color:white; font-size:60px;"">+</div>","null","html-keyboard-response","87","192824","0.0-6.0-0.38","fixation","","","","",""
"2193.6299999997427","Stimuli/Hangul_F8.bmp","190","image-keyboard-response","88","195019","0.0-6.0-1.38","test",".","",".","",""
"null","<div style=""color:white; font-size:60px;"">+</div>","null","html-keyboard-response","89","196021","0.0-6.0-0.39","fixation","","","","",""
"3454.8499999982305","Stimuli/Hangul_F21.bmp","190","image-keyboard-response","90","199477","0.0-6.0-1.39","test",".","",".","",""
"null","<div style=""color:white; font-size:60px;"">+</div>","null","html-keyboard-response","91","200480","0.0-6.0-0.40","fixation","","","","",""
"2328.8499999998894","Stimuli/Hangul_M13.bmp","188","image-keyboard-response","92","202811","0.0-6.0-1.40","test",",","",",","",""
"null","<div style=""color:white; font-size:60px;"">+</div>","null","html-keyboard-response","93","203814","0.0-6.0-0.41","fixation","","","","",""
"2586.115000000078","Stimuli/Hangul_M11.bmp","188","image-keyboard-response","94","206402","0.0-6.0-1.41","test",",","",",","",""
"null","<div style=""color:white; font-size:60px;"">+</div>","null","html-keyboard-response","95","207404","0.0-6.0-0.42","fixation","","","","",""
"2096.2650000001304","Stimuli/Hangul_M12.bmp","188","image-keyboard-response","96","209501","0.0-6.0-1.42","test",",","",",","",""
"null","<div style=""color:white; font-size:60px;"">+</div>","null","html-keyboard-response","97","210503","0.0-6.0-0.43","fixation","","","","",""
"2026.9200000002165","Stimuli/Hangul_M18.bmp","188","image-keyboard-response","98","212532","0.0-6.0-1.43","test",",","",",","",""
"null","<div style=""color:white; font-size:60px;"">+</div>","null","html-keyboard-response","99","213534","0.0-6.0-0.44","fixation","","","","",""
"3883.959999999206","Stimuli/Hangul_M23.bmp","188","image-keyboard-response","100","217420","0.0-6.0-1.44","test",",","",",","",""
"null","<div style=""color:white; font-size:60px;"">+</div>","null","html-keyboard-response","101","218422","0.0-6.0-0.45","fixation","","","","",""
"2941.939999998809","Stimuli/Hangul_M24.bmp","190","image-keyboard-response","102","221366","0.0-6.0-1.45","test",",","",".","",""
"null","<div style=""color:white; font-size:60px;"">+</div>","null","html-keyboard-response","103","222368","0.0-6.0-0.46","fixation","","","","",""
"2916.604999998526","Stimuli/Hangul_F12.bmp","190","image-keyboard-response","104","225286","0.0-6.0-1.46","test",".","",".","",""
"null","<div style=""color:white; font-size:60px;"">+</div>","null","html-keyboard-response","105","226288","0.0-6.0-0.47","fixation","","","","",""
"1910.4000000006636","Stimuli/Hangul_F11.bmp","190","image-keyboard-response","106","228199","0.0-6.0-1.47","test",".","",".","",""
"null","<div style=""color:white; font-size:60px;"">+</div>","null","html-keyboard-response","107","229201","0.0-6.0-0.48","fixation","","","","",""
"1725.469999999419","Stimuli/Hangul_M10.bmp","188","image-keyboard-response","108","230928","0.0-6.0-1.48","test",",","",",","",""
"null","<div style=""color:white; font-size:60px;"">+</div>","null","html-keyboard-response","109","231931","0.0-6.0-0.49","fixation","","","","",""
"2109.9549999999","Stimuli/Hangul_F13.bmp","190","image-keyboard-response","110","234042","0.0-6.0-1.49","test",".","",".","",""
"76645.33000000118","<p style=""color:white;"">Good job, block 1 complete! Please take a moment to rest.</p> <p style=""color:white;"">When you are ready to continue with block 2 of 4, press the space bar.</p> ","32","html-keyboard-response","111","310689","0.0-7.0","","","","","",""
"null","<div style=""color:white; font-size:60px;"">+</div>","null","html-keyboard-response","112","313694","0.0-8.0-0.0","fixation","","","","",""
"7538.395000001357","Stimuli/Hangul_F42.bmp","190","image-keyboard-response","113","321235","0.0-8.0-1.0","test",".","",".","",""
"null","<div style=""color:white; font-size:60px;"">+</div>","null","html-keyboard-response","114","322237","0.0-8.0-0.1","fixation","","","","",""
"3683.4749999998603","Stimuli/Hangul_F28.bmp","188","image-keyboard-response","115","325924","0.0-8.0-1.1","test",".","",",","",""
"null","<div style=""color:white; font-size:60px;"">+</div>","null","html-keyboard-response","116","326925","0.0-8.0-0.2","fixation","","","","",""
"2558.8800000004703","Stimuli/Hangul_M27.bmp","188","image-keyboard-response","117","329485","0.0-8.0-1.2","test",",","",",","",""
"null","<div style=""color:white; font-size:60px;"">+</div>","null","html-keyboard-response","118","330487","0.0-8.0-0.3","fixation","","","","",""
"3516.940000001341","Stimuli/Hangul_M43.bmp","190","image-keyboard-response","119","334007","0.0-8.0-1.3","test",",","",".","",""
"null","<div style=""color:white; font-size:60px;"">+</div>","null","html-keyboard-response","120","335009","0.0-8.0-0.4","fixation","","","","",""
"3138.8650000008056","Stimuli/Hangul_M32.bmp","190","image-keyboard-response","121","338148","0.0-8.0-1.4","test",",","",".","",""
"null","<div style=""color:white; font-size:60px;"">+</div>","null","html-keyboard-response","122","339150","0.0-8.0-0.5","fixation","","","","",""
"3021.5049999987823","Stimuli/Hangul_F49.bmp","188","image-keyboard-response","123","342172","0.0-8.0-1.5","test",".","",",","",""
"null","<div style=""color:white; font-size:60px;"">+</div>","null","html-keyboard-response","124","343174","0.0-8.0-0.6","fixation","","","","",""
"3142.559999998368","Stimuli/Hangul_F27.bmp","188","image-keyboard-response","125","346320","0.0-8.0-1.6","test",".","",",","",""
"null","<div style=""color:white; font-size:60px;"">+</div>","null","html-keyboard-response","126","347322","0.0-8.0-0.7","fixation","","","","",""
"3213.840000000375","Stimuli/Hangul_M25.bmp","190","image-keyboard-response","127","350537","0.0-8.0-1.7","test",",","",".","",""
"null","<div style=""color:white; font-size:60px;"">+</div>","null","html-keyboard-response","128","351540","0.0-8.0-0.8","fixation","","","","",""
"2443.9449999990757","Stimuli/Hangul_M35.bmp","190","image-keyboard-response","129","353984","0.0-8.0-1.8","test",",","",".","",""
"null","<div style=""color:white; font-size:60px;"">+</div>","null","html-keyboard-response","130","354985","0.0-8.0-0.9","fixation","","","","",""
"2230.1549999992712","Stimuli/Hangul_M45.bmp","188","image-keyboard-response","131","357217","0.0-8.0-1.9","test",",","",",","",""
"null","<div style=""color:white; font-size:60px;"">+</div>","null","html-keyboard-response","132","358219","0.0-8.0-0.10","fixation","","","","",""
"2027.5050000000047","Stimuli/Hangul_F41.bmp","188","image-keyboard-response","133","360248","0.0-8.0-1.10","test",".","",",","",""
"null","<div style=""color:white; font-size:60px;"">+</div>","null","html-keyboard-response","134","361249","0.0-8.0-0.11","fixation","","","","",""
"2190.920000000915","Stimuli/Hangul_M47.bmp","188","image-keyboard-response","135","363441","0.0-8.0-1.11","test",",","",",","",""
"null","<div style=""color:white; font-size:60px;"">+</div>","null","html-keyboard-response","136","364445","0.0-8.0-0.12","fixation","","","","",""
"2674.409999999625","Stimuli/Hangul_M39.bmp","188","image-keyboard-response","137","367121","0.0-8.0-1.12","test",",","",",","",""
"null","<div style=""color:white; font-size:60px;"">+</div>","null","html-keyboard-response","138","368125","0.0-8.0-0.13","fixation","","","","",""
"2998.095000000845","Stimuli/Hangul_F30.bmp","190","image-keyboard-response","139","371124","0.0-8.0-1.13","test",".","",".","",""
"null","<div style=""color:white; font-size:60px;"">+</div>","null","html-keyboard-response","140","372127","0.0-8.0-0.14","fixation","","","","",""
"2575.2200000006123","Stimuli/Hangul_M46.bmp","190","image-keyboard-response","141","374705","0.0-8.0-1.14","test",",","",".","",""
"null","<div style=""color:white; font-size:60px;"">+</div>","null","html-keyboard-response","142","375707","0.0-8.0-0.15","fixation","","","","",""
"3316.7599999997183","Stimuli/Hangul_F39.bmp","188","image-keyboard-response","143","379026","0.0-8.0-1.15","test",".","",",","",""
"null","<div style=""color:white; font-size:60px;"">+</div>","null","html-keyboard-response","144","380028","0.0-8.0-0.16","fixation","","","","",""
"2254.5100000006496","Stimuli/Hangul_F34.bmp","188","image-keyboard-response","145","382284","0.0-8.0-1.16","test",".","",",","",""
"null","<div style=""color:white; font-size:60px;"">+</div>","null","html-keyboard-response","146","383286","0.0-8.0-0.17","fixation","","","","",""
"2756.8449999998556","Stimuli/Hangul_M42.bmp","188","image-keyboard-response","147","386044","0.0-8.0-1.17","test",",","",",","",""
"null","<div style=""color:white; font-size:60px;"">+</div>","null","html-keyboard-response","148","387046","0.0-8.0-0.18","fixation","","","","",""
"2452.7399999988265","Stimuli/Hangul_M41.bmp","190","image-keyboard-response","149","389500","0.0-8.0-1.18","test",",","",".","",""
"null","<div style=""color:white; font-size:60px;"">+</div>","null","html-keyboard-response","150","390503","0.0-8.0-0.19","fixation","","","","",""
"3030.3050000001676","Stimuli/Hangul_F26.bmp","190","image-keyboard-response","151","393535","0.0-8.0-1.19","test",".","",".","",""
"null","<div style=""color:white; font-size:60px;"">+</div>","null","html-keyboard-response","152","394537","0.0-8.0-0.20","fixation","","","","",""
"2363.115000000107","Stimuli/Hangul_M48.bmp","190","image-keyboard-response","153","396901","0.0-8.0-1.20","test",",","",".","",""
"null","<div style=""color:white; font-size:60px;"">+</div>","null","html-keyboard-response","154","397903","0.0-8.0-0.21","fixation","","","","",""
"1853.5999999985215","Stimuli/Hangul_F48.bmp","188","image-keyboard-response","155","399757","0.0-8.0-1.21","test",".","",",","",""
"null","<div style=""color:white; font-size:60px;"">+</div>","null","html-keyboard-response","156","400760","0.0-8.0-0.22","fixation","","","","",""
"3855.5449999985285","Stimuli/Hangul_F47.bmp","188","image-keyboard-response","157","404616","0.0-8.0-1.22","test",".","",",","",""
"null","<div style=""color:white; font-size:60px;"">+</div>","null","html-keyboard-response","158","405620","0.0-8.0-0.23","fixation","","","","",""
"6074.645000000601","Stimuli/Hangul_F37.bmp","190","image-keyboard-response","159","411697","0.0-8.0-1.23","test",".","",".","",""
"null","<div style=""color:white; font-size:60px;"">+</div>","null","html-keyboard-response","160","412700","0.0-8.0-0.24","fixation","","","","",""
"2266.1199999983655","Stimuli/Hangul_M44.bmp","190","image-keyboard-response","161","414969","0.0-8.0-1.24","test",",","",".","",""
"null","<div style=""color:white; font-size:60px;"">+</div>","null","html-keyboard-response","162","415969","0.0-8.0-0.25","fixation","","","","",""
"2974.2600000008824","Stimuli/Hangul_M36.bmp","188","image-keyboard-response","163","418944","0.0-8.0-1.25","test",",","",",","",""
"null","<div style=""color:white; font-size:60px;"">+</div>","null","html-keyboard-response","164","419946","0.0-8.0-0.26","fixation","","","","",""
"4758.485000000335","Stimuli/Hangul_M30.bmp","188","image-keyboard-response","165","424706","0.0-8.0-1.26","test",",","",",","",""
"null","<div style=""color:white; font-size:60px;"">+</div>","null","html-keyboard-response","166","425708","0.0-8.0-0.27","fixation","","","","",""
"3651.9400000015157","Stimuli/Hangul_M34.bmp","188","image-keyboard-response","167","429363","0.0-8.0-1.27","test",",","",",","",""
"null","<div style=""color:white; font-size:60px;"">+</div>","null","html-keyboard-response","168","430365","0.0-8.0-0.28","fixation","","","","",""
"3514.170000000391","Stimuli/Hangul_M26.bmp","188","image-keyboard-response","169","433881","0.0-8.0-1.28","test",",","",",","",""
"null","<div style=""color:white; font-size:60px;"">+</div>","null","html-keyboard-response","170","434883","0.0-8.0-0.29","fixation","","","","",""
"2388.3000000005704","Stimuli/Hangul_F43.bmp","190","image-keyboard-response","171","437273","0.0-8.0-1.29","test",".","",".","",""
"null","<div style=""color:white; font-size:60px;"">+</div>","null","html-keyboard-response","172","438277","0.0-8.0-0.30","fixation","","","","",""
"2206.30999999959","Stimuli/Hangul_F46.bmp","190","image-keyboard-response","173","440486","0.0-8.0-1.30","test",".","",".","",""
"null","<div style=""color:white; font-size:60px;"">+</div>","null","html-keyboard-response","174","441487","0.0-8.0-0.31","fixation","","","","",""
"2756.0599999997066","Stimuli/Hangul_M40.bmp","188","image-keyboard-response","175","444244","0.0-8.0-1.31","test",",","",",","",""
"null","<div style=""color:white; font-size:60px;"">+</div>","null","html-keyboard-response","176","445245","0.0-8.0-0.32","fixation","","","","",""
"3014.5200000006007","Stimuli/Hangul_F33.bmp","190","image-keyboard-response","177","448261","0.0-8.0-1.32","test",".","",".","",""
"null","<div style=""color:white; font-size:60px;"">+</div>","null","html-keyboard-response","178","449263","0.0-8.0-0.33","fixation","","","","",""
"1860.555000001099","Stimuli/Hangul_M49.bmp","188","image-keyboard-response","179","451125","0.0-8.0-1.33","test",",","",",","",""
"null","<div style=""color:white; font-size:60px;"">+</div>","null","html-keyboard-response","180","452127","0.0-8.0-0.34","fixation","","","","",""
"2588.465000000724","Stimuli/Hangul_F35.bmp","188","image-keyboard-response","181","454717","0.0-8.0-1.34","test",".","",",","",""
"null","<div style=""color:white; font-size:60px;"">+</div>","null","html-keyboard-response","182","455720","0.0-8.0-0.35","fixation","","","","",""
"4043.600000000908","Stimuli/Hangul_F40.bmp","190","image-keyboard-response","183","459765","0.0-8.0-1.35","test",".","",".","",""
"null","<div style=""color:white; font-size:60px;"">+</div>","null","html-keyboard-response","184","460767","0.0-8.0-0.36","fixation","","","","",""
"2423.57500000071","Stimuli/Hangul_F29.bmp","190","image-keyboard-response","185","463191","0.0-8.0-1.36","test",".","",".","",""
"null","<div style=""color:white; font-size:60px;"">+</div>","null","html-keyboard-response","186","464194","0.0-8.0-0.37","fixation","","","","",""
"2050.5849999990314","Stimuli/Hangul_F32.bmp","188","image-keyboard-response","187","466245","0.0-8.0-1.37","test",".","",",","",""
"null","<div style=""color:white; font-size:60px;"">+</div>","null","html-keyboard-response","188","467247","0.0-8.0-0.38","fixation","","","","",""
"1945.2349999992293","Stimuli/Hangul_M31.bmp","188","image-keyboard-response","189","469193","0.0-8.0-1.38","test",",","",",","",""
"null","<div style=""color:white; font-size:60px;"">+</div>","null","html-keyboard-response","190","470195","0.0-8.0-0.39","fixation","","","","",""
"6325.3550000008545","Stimuli/Hangul_F45.bmp","188","image-keyboard-response","191","476520","0.0-8.0-1.39","test",".","",",","",""
"null","<div style=""color:white; font-size:60px;"">+</div>","null","html-keyboard-response","192","477523","0.0-8.0-0.40","fixation","","","","",""
"5853.170000000275","Stimuli/Hangul_F36.bmp","190","image-keyboard-response","193","483377","0.0-8.0-1.40","test",".","",".","",""
"null","<div style=""color:white; font-size:60px;"">+</div>","null","html-keyboard-response","194","484380","0.0-8.0-0.41","fixation","","","","",""
"2090.775000000547","Stimuli/Hangul_M38.bmp","190","image-keyboard-response","195","486473","0.0-8.0-1.41","test",",","",".","",""
"null","<div style=""color:white; font-size:60px;"">+</div>","null","html-keyboard-response","196","487476","0.0-8.0-0.42","fixation","","","","",""
"2022.8650000008638","Stimuli/Hangul_M37.bmp","188","image-keyboard-response","197","489500","0.0-8.0-1.42","test",",","",",","",""
"null","<div style=""color:white; font-size:60px;"">+</div>","null","html-keyboard-response","198","490502","0.0-8.0-0.43","fixation","","","","",""
"3697.6950000007637","Stimuli/Hangul_M28.bmp","188","image-keyboard-response","199","494201","0.0-8.0-1.43","test",",","",",","",""
"null","<div style=""color:white; font-size:60px;"">+</div>","null","html-keyboard-response","200","495204","0.0-8.0-0.44","fixation","","","","",""
"1999.7299999995157","Stimuli/Hangul_M29.bmp","188","image-keyboard-response","201","497204","0.0-8.0-1.44","test",",","",",","",""
"null","<div style=""color:white; font-size:60px;"">+</div>","null","html-keyboard-response","202","498206","0.0-8.0-0.45","fixation","","","","",""
"2359.429999998596","Stimuli/Hangul_F31.bmp","190","image-keyboard-response","203","500566","0.0-8.0-1.45","test",".","",".","",""
"null","<div style=""color:white; font-size:60px;"">+</div>","null","html-keyboard-response","204","501567","0.0-8.0-0.46","fixation","","","","",""
"5113.7250000010245","Stimuli/Hangul_F25.bmp","190","image-keyboard-response","205","506682","0.0-8.0-1.46","test",".","",".","",""
"null","<div style=""color:white; font-size:60px;"">+</div>","null","html-keyboard-response","206","507685","0.0-8.0-0.47","fixation","","","","",""
"7254.930000000983","Stimuli/Hangul_F44.bmp","188","image-keyboard-response","207","514941","0.0-8.0-1.47","test",".","",",","",""
"null","<div style=""color:white; font-size:60px;"">+</div>","null","html-keyboard-response","208","515943","0.0-8.0-0.48","fixation","","","","",""
"3101.009999998496","Stimuli/Hangul_M33.bmp","190","image-keyboard-response","209","519045","0.0-8.0-1.48","test",",","",".","",""
"null","<div style=""color:white; font-size:60px;"">+</div>","null","html-keyboard-response","210","520047","0.0-8.0-0.49","fixation","","","","",""
"2036.005000001751","Stimuli/Hangul_F38.bmp","188","image-keyboard-response","211","522084","0.0-8.0-1.49","test",".","",",","",""
"31819.449999999022","<p style=""color:white;"">Half way there! Please take a moment to rest.</p> <p style=""color:white;"">When you are ready to continue with block 3 of 4, press the space bar.</p> ","32","html-keyboard-response","212","553904","0.0-9.0","","","","","",""
"null","<div style=""color:white; font-size:60px;"">+</div>","null","html-keyboard-response","213","556907","0.0-10.0-0.0","fixation","","","","",""
"2208.98500000115","Stimuli/Hangul_M74.bmp","190","image-keyboard-response","214","559118","0.0-10.0-1.0","test",",","",".","",""
"null","<div style=""color:white; font-size:60px;"">+</div>","null","html-keyboard-response","215","560120","0.0-10.0-0.1","fixation","","","","",""
"2682.394999999786","Stimuli/Hangul_F51.bmp","188","image-keyboard-response","216","562804","0.0-10.0-1.1","test",".","",",","",""
"null","<div style=""color:white; font-size:60px;"">+</div>","null","html-keyboard-response","217","563806","0.0-10.0-0.2","fixation","","","","",""
"4516.935000001453","Stimuli/Hangul_F65.bmp","190","image-keyboard-response","218","568324","0.0-10.0-1.2","test",".","",".","",""
"null","<div style=""color:white; font-size:60px;"">+</div>","null","html-keyboard-response","219","569326","0.0-10.0-0.3","fixation","","","","",""
"2583.67499999993","Stimuli/Hangul_F54.bmp","190","image-keyboard-response","220","571910","0.0-10.0-1.3","test",".","",".","",""
"null","<div style=""color:white; font-size:60px;"">+</div>","null","html-keyboard-response","221","572912","0.0-10.0-0.4","fixation","","","","",""
"2387.575000000652","Stimuli/Hangul_F73.bmp","188","image-keyboard-response","222","575300","0.0-10.0-1.4","test",".","",",","",""
"null","<div style=""color:white; font-size:60px;"">+</div>","null","html-keyboard-response","223","576301","0.0-10.0-0.5","fixation","","","","",""
"3285.919999998412","Stimuli/Hangul_M53.bmp","188","image-keyboard-response","224","579588","0.0-10.0-1.5","test",",","",",","",""
"null","<div style=""color:white; font-size:60px;"">+</div>","null","html-keyboard-response","225","580589","0.0-10.0-0.6","fixation","","","","",""
"2471.4600000006612","Stimuli/Hangul_M62.bmp","188","image-keyboard-response","226","583061","0.0-10.0-1.6","test",",","",",","",""
"null","<div style=""color:white; font-size:60px;"">+</div>","null","html-keyboard-response","227","584062","0.0-10.0-0.7","fixation","","","","",""
"1169.0849999996135","Stimuli/Hangul_M61.bmp","188","image-keyboard-response","228","585232","0.0-10.0-1.7","test",",","",",","",""
"null","<div style=""color:white; font-size:60px;"">+</div>","null","html-keyboard-response","229","586232","0.0-10.0-0.8","fixation","","","","",""
"2399.1850000001723","Stimuli/Hangul_F72.bmp","190","image-keyboard-response","230","588632","0.0-10.0-1.8","test",".","",".","",""
"null","<div style=""color:white; font-size:60px;"">+</div>","null","html-keyboard-response","231","589633","0.0-10.0-0.9","fixation","","","","",""
"2165.2899999989895","Stimuli/Hangul_M60.bmp","188","image-keyboard-response","232","591800","0.0-10.0-1.9","test",",","",",","",""
"null","<div style=""color:white; font-size:60px;"">+</div>","null","html-keyboard-response","233","592802","0.0-10.0-0.10","fixation","","","","",""
"2527.2249999998603","Stimuli/Hangul_M72.bmp","188","image-keyboard-response","234","595329","0.0-10.0-1.10","test",",","",",","",""
"null","<div style=""color:white; font-size:60px;"">+</div>","null","html-keyboard-response","235","596331","0.0-10.0-0.11","fixation","","","","",""
"2963.040000000503","Stimuli/Hangul_F66.bmp","188","image-keyboard-response","236","599296","0.0-10.0-1.11","test",".","",",","",""
"null","<div style=""color:white; font-size:60px;"">+</div>","null","html-keyboard-response","237","600297","0.0-10.0-0.12","fixation","","","","",""
"2326.6299999996554","Stimuli/Hangul_F50.bmp","190","image-keyboard-response","238","602625","0.0-10.0-1.12","test",".","",".","",""
"null","<div style=""color:white; font-size:60px;"">+</div>","null","html-keyboard-response","239","603626","0.0-10.0-0.13","fixation","","","","",""
"3534.990000000107","Stimuli/Hangul_F60.bmp","190","image-keyboard-response","240","607162","0.0-10.0-1.13","test",".","",".","",""
"null","<div style=""color:white; font-size:60px;"">+</div>","null","html-keyboard-response","241","608164","0.0-10.0-0.14","fixation","","","","",""
"1963.2600000003586","Stimuli/Hangul_M70.bmp","188","image-keyboard-response","242","610129","0.0-10.0-1.14","test",",","",",","",""
"null","<div style=""color:white; font-size:60px;"">+</div>","null","html-keyboard-response","243","611132","0.0-10.0-0.15","fixation","","","","",""
"2355.8950000006007","Stimuli/Hangul_M54.bmp","188","image-keyboard-response","244","613489","0.0-10.0-1.15","test",",","",",","",""
"null","<div style=""color:white; font-size:60px;"">+</div>","null","html-keyboard-response","245","614495","0.0-10.0-0.16","fixation","","","","",""
"3068.460000000312","Stimuli/Hangul_M57.bmp","188","image-keyboard-response","246","617565","0.0-10.0-1.16","test",",","",",","",""
"null","<div style=""color:white; font-size:60px;"">+</div>","null","html-keyboard-response","247","618566","0.0-10.0-0.17","fixation","","","","",""
"2340.060000000405","Stimuli/Hangul_M66.bmp","190","image-keyboard-response","248","620908","0.0-10.0-1.17","test",",","",".","",""
"null","<div style=""color:white; font-size:60px;"">+</div>","null","html-keyboard-response","249","621909","0.0-10.0-0.18","fixation","","","","",""
"2774.335000000079","Stimuli/Hangul_F63.bmp","190","image-keyboard-response","250","624685","0.0-10.0-1.18","test",".","",".","",""
"null","<div style=""color:white; font-size:60px;"">+</div>","null","html-keyboard-response","251","625686","0.0-10.0-0.19","fixation","","","","",""
"2165.609999999986","Stimuli/Hangul_M64.bmp","190","image-keyboard-response","252","627854","0.0-10.0-1.19","test",",","",".","",""
"null","<div style=""color:white; font-size:60px;"">+</div>","null","html-keyboard-response","253","628856","0.0-10.0-0.20","fixation","","","","",""
"6995.629999999423","Stimuli/Hangul_M56.bmp","190","image-keyboard-response","254","635852","0.0-10.0-1.20","test",",","",".","",""
"null","<div style=""color:white; font-size:60px;"">+</div>","null","html-keyboard-response","255","636855","0.0-10.0-0.21","fixation","","","","",""
"2348.0899999995017","Stimuli/Hangul_F53.bmp","188","image-keyboard-response","256","639205","0.0-10.0-1.21","test",".","",",","",""
"null","<div style=""color:white; font-size:60px;"">+</div>","null","html-keyboard-response","257","640206","0.0-10.0-0.22","fixation","","","","",""
"2637.9349999987753","Stimuli/Hangul_M59.bmp","188","image-keyboard-response","258","642845","0.0-10.0-1.22","test",",","",",","",""
"null","<div style=""color:white; font-size:60px;"">+</div>","null","html-keyboard-response","259","643848","0.0-10.0-0.23","fixation","","","","",""
"2670.7549999991897","Stimuli/Hangul_F52.bmp","190","image-keyboard-response","260","646521","0.0-10.0-1.23","test",".","",".","",""
"null","<div style=""color:white; font-size:60px;"">+</div>","null","html-keyboard-response","261","647523","0.0-10.0-0.24","fixation","","","","",""
"3523.855000001262","Stimuli/Hangul_M65.bmp","188","image-keyboard-response","262","651050","0.0-10.0-1.24","test",",","",",","",""
"null","<div style=""color:white; font-size:60px;"">+</div>","null","html-keyboard-response","263","652051","0.0-10.0-0.25","fixation","","","","",""
"2236.034999999916","Stimuli/Hangul_M58.bmp","190","image-keyboard-response","264","654288","0.0-10.0-1.25","test",",","",".","",""
"null","<div style=""color:white; font-size:60px;"">+</div>","null","html-keyboard-response","265","655290","0.0-10.0-0.26","fixation","","","","",""
"2318.100000000326","Stimuli/Hangul_M50.bmp","188","image-keyboard-response","266","657609","0.0-10.0-1.26","test",",","",",","",""
"null","<div style=""color:white; font-size:60px;"">+</div>","null","html-keyboard-response","267","658614","0.0-10.0-0.27","fixation","","","","",""
"3291.025000000489","Stimuli/Hangul_M55.bmp","188","image-keyboard-response","268","661907","0.0-10.0-1.27","test",",","",",","",""
"null","<div style=""color:white; font-size:60px;"">+</div>","null","html-keyboard-response","269","662909","0.0-10.0-0.28","fixation","","","","",""
"2107.665000001318","Stimuli/Hangul_M51.bmp","188","image-keyboard-response","270","665017","0.0-10.0-1.28","test",",","",",","",""
"null","<div style=""color:white; font-size:60px;"">+</div>","null","html-keyboard-response","271","666021","0.0-10.0-0.29","fixation","","","","",""
"3762.730000000447","Stimuli/Hangul_F69.bmp","190","image-keyboard-response","272","669786","0.0-10.0-1.29","test",".","",".","",""
"null","<div style=""color:white; font-size:60px;"">+</div>","null","html-keyboard-response","273","670788","0.0-10.0-0.30","fixation","","","","",""
"2506.8100000007544","Stimuli/Hangul_F71.bmp","188","image-keyboard-response","274","673297","0.0-10.0-1.30","test",".","",",","",""
"null","<div style=""color:white; font-size:60px;"">+</div>","null","html-keyboard-response","275","674298","0.0-10.0-0.31","fixation","","","","",""
"3826.0250000003725","Stimuli/Hangul_M67.bmp","188","image-keyboard-response","276","678125","0.0-10.0-1.31","test",",","",",","",""
"null","<div style=""color:white; font-size:60px;"">+</div>","null","html-keyboard-response","277","679127","0.0-10.0-0.32","fixation","","","","",""
"2980.9700000004377","Stimuli/Hangul_M68.bmp","188","image-keyboard-response","278","682109","0.0-10.0-1.32","test",",","",",","",""
"null","<div style=""color:white; font-size:60px;"">+</div>","null","html-keyboard-response","279","683111","0.0-10.0-0.33","fixation","","","","",""
"2094.0949999984587","Stimuli/Hangul_M52.bmp","190","image-keyboard-response","280","685206","0.0-10.0-1.33","test",",","",".","",""
"null","<div style=""color:white; font-size:60px;"">+</div>","null","html-keyboard-response","281","686208","0.0-10.0-0.34","fixation","","","","",""
"2114.6450000014156","Stimuli/Hangul_F70.bmp","190","image-keyboard-response","282","688325","0.0-10.0-1.34","test",".","",".","",""
"null","<div style=""color:white; font-size:60px;"">+</div>","null","html-keyboard-response","283","689326","0.0-10.0-0.35","fixation","","","","",""
"3726.2599999994272","Stimuli/Hangul_F59.bmp","190","image-keyboard-response","284","693053","0.0-10.0-1.35","test",".","",".","",""
"null","<div style=""color:white; font-size:60px;"">+</div>","null","html-keyboard-response","285","694055","0.0-10.0-0.36","fixation","","","","",""
"4440.179999999586","Stimuli/Hangul_F64.bmp","188","image-keyboard-response","286","698497","0.0-10.0-1.36","test",".","",",","",""
"null","<div style=""color:white; font-size:60px;"">+</div>","null","html-keyboard-response","287","699498","0.0-10.0-0.37","fixation","","","","",""
"4412.059999998775","Stimuli/Hangul_M71.bmp","190","image-keyboard-response","288","703913","0.0-10.0-1.37","test",",","",".","",""
"null","<div style=""color:white; font-size:60px;"">+</div>","null","html-keyboard-response","289","704916","0.0-10.0-0.38","fixation","","","","",""
"3755.880000000703","Stimuli/Hangul_F67.bmp","188","image-keyboard-response","290","708676","0.0-10.0-1.38","test",".","",",","",""
"null","<div style=""color:white; font-size:60px;"">+</div>","null","html-keyboard-response","291","709679","0.0-10.0-0.39","fixation","","","","",""
"3209.714999999036","Stimuli/Hangul_F62.bmp","188","image-keyboard-response","292","712889","0.0-10.0-1.39","test",".","",",","",""
"null","<div style=""color:white; font-size:60px;"">+</div>","null","html-keyboard-response","293","713891","0.0-10.0-0.40","fixation","","","","",""
"4523.440000000875","Stimuli/Hangul_F61.bmp","188","image-keyboard-response","294","718416","0.0-10.0-1.40","test",".","",",","",""
"null","<div style=""color:white; font-size:60px;"">+</div>","null","html-keyboard-response","295","719419","0.0-10.0-0.41","fixation","","","","",""
"3908.3299999984447","Stimuli/Hangul_F55.bmp","190","image-keyboard-response","296","723329","0.0-10.0-1.41","test",".","",".","",""
"null","<div style=""color:white; font-size:60px;"">+</div>","null","html-keyboard-response","297","724331","0.0-10.0-0.42","fixation","","","","",""
"2732.5650000002934","Stimuli/Hangul_F58.bmp","190","image-keyboard-response","298","727065","0.0-10.0-1.42","test",".","",".","",""
"null","<div style=""color:white; font-size:60px;"">+</div>","null","html-keyboard-response","299","728066","0.0-10.0-0.43","fixation","","","","",""
"3690.3999999995576","Stimuli/Hangul_F68.bmp","190","image-keyboard-response","300","731757","0.0-10.0-1.43","test",".","",".","",""
"null","<div style=""color:white; font-size:60px;"">+</div>","null","html-keyboard-response","301","732760","0.0-10.0-0.44","fixation","","","","",""
"2837.3750000010477","Stimuli/Hangul_F74.bmp","190","image-keyboard-response","302","735600","0.0-10.0-1.44","test",".","",".","",""
"null","<div style=""color:white; font-size:60px;"">+</div>","null","html-keyboard-response","303","736603","0.0-10.0-0.45","fixation","","","","",""
"2447.7600000009406","Stimuli/Hangul_F56.bmp","188","image-keyboard-response","304","739052","0.0-10.0-1.45","test",".","",",","",""
"null","<div style=""color:white; font-size:60px;"">+</div>","null","html-keyboard-response","305","740054","0.0-10.0-0.46","fixation","","","","",""
"2765.63499999966","Stimuli/Hangul_M63.bmp","188","image-keyboard-response","306","742821","0.0-10.0-1.46","test",",","",",","",""
"null","<div style=""color:white; font-size:60px;"">+</div>","null","html-keyboard-response","307","743822","0.0-10.0-0.47","fixation","","","","",""
"3461.079999999143","Stimuli/Hangul_M69.bmp","188","image-keyboard-response","308","747284","0.0-10.0-1.47","test",",","",",","",""
"null","<div style=""color:white; font-size:60px;"">+</div>","null","html-keyboard-response","309","748285","0.0-10.0-0.48","fixation","","","","",""
"3117.9049999990966","Stimuli/Hangul_F57.bmp","190","image-keyboard-response","310","751404","0.0-10.0-1.48","test",".","",".","",""
"null","<div style=""color:white; font-size:60px;"">+</div>","null","html-keyboard-response","311","752406","0.0-10.0-0.49","fixation","","","","",""
"2164.630000001169","Stimuli/Hangul_M73.bmp","188","image-keyboard-response","312","754573","0.0-10.0-1.49","test",",","",",","",""
"3768.215000000084","<p style=""color:white;"">One more block to go! Please take a moment to rest.</p> <p style=""color:white;"">When you are ready to continue with block 4 of 4, press the space bar.</p> ","32","html-keyboard-response","313","758344","0.0-11.0","","","","","",""
"null","<div style=""color:white; font-size:60px;"">+</div>","null","html-keyboard-response","314","761347","0.0-12.0-0.0","fixation","","","","",""
"2419.90500000061","Stimuli/Hangul_F93.bmp","190","image-keyboard-response","315","763769","0.0-12.0-1.0","test",".","",".","",""
"null","<div style=""color:white; font-size:60px;"">+</div>","null","html-keyboard-response","316","764772","0.0-12.0-0.1","fixation","","","","",""
"2443.94500000088","Stimuli/Hangul_F82.bmp","188","image-keyboard-response","317","767217","0.0-12.0-1.1","test",".","",",","",""
"null","<div style=""color:white; font-size:60px;"">+</div>","null","html-keyboard-response","318","768221","0.0-12.0-0.2","fixation","","","","",""
"3628.8150000000605","Stimuli/Hangul_F94.bmp","190","image-keyboard-response","319","771851","0.0-12.0-1.2","test",".","",".","",""
"null","<div style=""color:white; font-size:60px;"">+</div>","null","html-keyboard-response","320","772853","0.0-12.0-0.3","fixation","","","","",""
"3417.1999999999534","Stimuli/Hangul_M91.bmp","188","image-keyboard-response","321","776272","0.0-12.0-1.3","test",",","",",","",""
"null","<div style=""color:white; font-size:60px;"">+</div>","null","html-keyboard-response","322","777273","0.0-12.0-0.4","fixation","","","","",""
"2406.7549999998882","Stimuli/Hangul_F84.bmp","190","image-keyboard-response","323","779681","0.0-12.0-1.4","test",".","",".","",""
"null","<div style=""color:white; font-size:60px;"">+</div>","null","html-keyboard-response","324","780683","0.0-12.0-0.5","fixation","","","","",""
"3149.3699999991804","Stimuli/Hangul_M96.bmp","188","image-keyboard-response","325","783833","0.0-12.0-1.5","test",",","",",","",""
"null","<div style=""color:white; font-size:60px;"">+</div>","null","html-keyboard-response","326","784835","0.0-12.0-0.6","fixation","","","","",""
"2291.720000001136","Stimuli/Hangul_F78.bmp","190","image-keyboard-response","327","787128","0.0-12.0-1.6","test",".","",".","",""
"null","<div style=""color:white; font-size:60px;"">+</div>","null","html-keyboard-response","328","788131","0.0-12.0-0.7","fixation","","","","",""
"2828.225000001141","Stimuli/Hangul_M93.bmp","188","image-keyboard-response","329","790960","0.0-12.0-1.7","test",",","",",","",""
"null","<div style=""color:white; font-size:60px;"">+</div>","null","html-keyboard-response","330","791963","0.0-12.0-0.8","fixation","","","","",""
"2683.7849999992177","Stimuli/Hangul_F80.bmp","188","image-keyboard-response","331","794648","0.0-12.0-1.8","test",".","",",","",""
"null","<div style=""color:white; font-size:60px;"">+</div>","null","html-keyboard-response","332","795650","0.0-12.0-0.9","fixation","","","","",""
"3326.1600000004983","Stimuli/Hangul_M84.bmp","188","image-keyboard-response","333","798980","0.0-12.0-1.9","test",",","",",","",""
"null","<div style=""color:white; font-size:60px;"">+</div>","null","html-keyboard-response","334","799981","0.0-12.0-0.10","fixation","","","","",""
"2935.8300000004238","Stimuli/Hangul_F98.bmp","190","image-keyboard-response","335","802918","0.0-12.0-1.10","test",".","",".","",""
"null","<div style=""color:white; font-size:60px;"">+</div>","null","html-keyboard-response","336","803920","0.0-12.0-0.11","fixation","","","","",""
"3932.4349999988917","Stimuli/Hangul_F77.bmp","188","image-keyboard-response","337","807853","0.0-12.0-1.11","test",".","",",","",""
"null","<div style=""color:white; font-size:60px;"">+</div>","null","html-keyboard-response","338","808855","0.0-12.0-0.12","fixation","","","","",""
"5381.439999999246","Stimuli/Hangul_M95.bmp","188","image-keyboard-response","339","814238","0.0-12.0-1.12","test",",","",",","",""
"null","<div style=""color:white; font-size:60px;"">+</div>","null","html-keyboard-response","340","815240","0.0-12.0-0.13","fixation","","","","",""
"4246.349999999395","Stimuli/Hangul_F87.bmp","188","image-keyboard-response","341","819488","0.0-12.0-1.13","test",".","",",","",""
"null","<div style=""color:white; font-size:60px;"">+</div>","null","html-keyboard-response","342","820490","0.0-12.0-0.14","fixation","","","","",""
"3788.7549999996554","Stimuli/Hangul_M94.bmp","188","image-keyboard-response","343","824280","0.0-12.0-1.14","test",",","",",","",""
"null","<div style=""color:white; font-size:60px;"">+</div>","null","html-keyboard-response","344","825283","0.0-12.0-0.15","fixation","","","","",""
"2516.825000000652","Stimuli/Hangul_M83.bmp","190","image-keyboard-response","345","827800","0.0-12.0-1.15","test",",","",".","",""
"null","<div style=""color:white; font-size:60px;"">+</div>","null","html-keyboard-response","346","828803","0.0-12.0-0.16","fixation","","","","",""
"5686.690000000526","Stimuli/Hangul_M77.bmp","188","image-keyboard-response","347","834490","0.0-12.0-1.16","test",",","",",","",""
"null","<div style=""color:white; font-size:60px;"">+</div>","null","html-keyboard-response","348","835491","0.0-12.0-0.17","fixation","","","","",""
"2028.0750000001863","Stimuli/Hangul_F96.bmp","190","image-keyboard-response","349","837520","0.0-12.0-1.17","test",".","",".","",""
"null","<div style=""color:white; font-size:60px;"">+</div>","null","html-keyboard-response","350","838521","0.0-12.0-0.18","fixation","","","","",""
"2333.839999999269","Stimuli/Hangul_M78.bmp","188","image-keyboard-response","351","840856","0.0-12.0-1.18","test",",","",",","",""
"null","<div style=""color:white; font-size:60px;"">+</div>","null","html-keyboard-response","352","841858","0.0-12.0-0.19","fixation","","","","",""
"2300.835000000079","Stimuli/Hangul_M86.bmp","190","image-keyboard-response","353","844162","0.0-12.0-1.19","test",",","",".","",""
"null","<div style=""color:white; font-size:60px;"">+</div>","null","html-keyboard-response","354","845163","0.0-12.0-0.20","fixation","","","","",""
"2614.999999999767","Stimuli/Hangul_M90.bmp","188","image-keyboard-response","355","847779","0.0-12.0-1.20","test",",","",",","",""
"null","<div style=""color:white; font-size:60px;"">+</div>","null","html-keyboard-response","356","848780","0.0-12.0-0.21","fixation","","","","",""
"2430.775000000722","Stimuli/Hangul_M81.bmp","188","image-keyboard-response","357","851213","0.0-12.0-1.21","test",",","",",","",""
"null","<div style=""color:white; font-size:60px;"">+</div>","null","html-keyboard-response","358","852215","0.0-12.0-0.22","fixation","","","","",""
"3372.510000001057","Stimuli/Hangul_F97.bmp","190","image-keyboard-response","359","855589","0.0-12.0-1.22","test",".","",".","",""
"null","<div style=""color:white; font-size:60px;"">+</div>","null","html-keyboard-response","360","856591","0.0-12.0-0.23","fixation","","","","",""
"5510.749999999534","Stimuli/Hangul_F99.bmp","188","image-keyboard-response","361","862104","0.0-12.0-1.23","test",".","",",","",""
"null","<div style=""color:white; font-size:60px;"">+</div>","null","html-keyboard-response","362","863106","0.0-12.0-0.24","fixation","","","","",""
"2367.304999999702","Stimuli/Hangul_M88.bmp","190","image-keyboard-response","363","865476","0.0-12.0-1.24","test",",","",".","",""
"null","<div style=""color:white; font-size:60px;"">+</div>","null","html-keyboard-response","364","866477","0.0-12.0-0.25","fixation","","","","",""
"2902.1450000000186","Stimuli/Hangul_F79.bmp","190","image-keyboard-response","365","869380","0.0-12.0-1.25","test",".","",".","",""
"null","<div style=""color:white; font-size:60px;"">+</div>","null","html-keyboard-response","366","870381","0.0-12.0-0.26","fixation","","","","",""
"2088.91500000027","Stimuli/Hangul_M98.bmp","188","image-keyboard-response","367","872471","0.0-12.0-1.26","test",",","",",","",""
"null","<div style=""color:white; font-size:60px;"">+</div>","null","html-keyboard-response","368","873473","0.0-12.0-0.27","fixation","","","","",""
"2970.2950000009732","Stimuli/Hangul_M85.bmp","188","image-keyboard-response","369","876445","0.0-12.0-1.27","test",",","",",","",""
"null","<div style=""color:white; font-size:60px;"">+</div>","null","html-keyboard-response","370","877447","0.0-12.0-0.28","fixation","","","","",""
"2135.3049999998184","Stimuli/Hangul_F81.bmp","188","image-keyboard-response","371","879585","0.0-12.0-1.28","test",".","",",","",""
"null","<div style=""color:white; font-size:60px;"">+</div>","null","html-keyboard-response","372","880587","0.0-12.0-0.29","fixation","","","","",""
"2804.5550000006333","Stimuli/Hangul_F86.bmp","190","image-keyboard-response","373","883392","0.0-12.0-1.29","test",".","",".","",""
"null","<div style=""color:white; font-size:60px;"">+</div>","null","html-keyboard-response","374","884394","0.0-12.0-0.30","fixation","","","","",""
"2186.8400000003166","Stimuli/Hangul_F92.bmp","188","image-keyboard-response","375","886584","0.0-12.0-1.30","test",".","",",","",""
"null","<div style=""color:white; font-size:60px;"">+</div>","null","html-keyboard-response","376","887585","0.0-12.0-0.31","fixation","","","","",""
"2781.5749999991385","Stimuli/Hangul_M82.bmp","188","image-keyboard-response","377","890369","0.0-12.0-1.31","test",",","",",","",""
"null","<div style=""color:white; font-size:60px;"">+</div>","null","html-keyboard-response","378","891370","0.0-12.0-0.32","fixation","","","","",""
"3478.989999999525","Stimuli/Hangul_F76.bmp","190","image-keyboard-response","379","894850","0.0-12.0-1.32","test",".","",".","",""
"null","<div style=""color:white; font-size:60px;"">+</div>","null","html-keyboard-response","380","895851","0.0-12.0-0.33","fixation","","","","",""
"2315.099999999744","Stimuli/Hangul_M92.bmp","188","image-keyboard-response","381","898169","0.0-12.0-1.33","test",",","",",","",""
"null","<div style=""color:white; font-size:60px;"">+</div>","null","html-keyboard-response","382","899172","0.0-12.0-0.34","fixation","","","","",""
"2058.9949999994133","Stimuli/Hangul_F90.bmp","188","image-keyboard-response","383","901232","0.0-12.0-1.34","test",".","",",","",""
"null","<div style=""color:white; font-size:60px;"">+</div>","null","html-keyboard-response","384","902233","0.0-12.0-0.35","fixation","","","","",""
"14467.640000000712","Stimuli/Hangul_F83.bmp","188","image-keyboard-response","385","916702","0.0-12.0-1.35","test",".","",",","",""
"null","<div style=""color:white; font-size:60px;"">+</div>","null","html-keyboard-response","386","917705","0.0-12.0-0.36","fixation","","","","",""
"7629.134999999194","Stimuli/Hangul_F95.bmp","190","image-keyboard-response","387","925334","0.0-12.0-1.36","test",".","",".","",""
"null","<div style=""color:white; font-size:60px;"">+</div>","null","html-keyboard-response","388","926336","0.0-12.0-0.37","fixation","","","","",""
"4087.9150000000373","Stimuli/Hangul_M89.bmp","188","image-keyboard-response","389","930425","0.0-12.0-1.37","test",",","",",","",""
"null","<div style=""color:white; font-size:60px;"">+</div>","null","html-keyboard-response","390","931427","0.0-12.0-0.38","fixation","","","","",""
"4106.004999999655","Stimuli/Hangul_M87.bmp","190","image-keyboard-response","391","935538","0.0-12.0-1.38","test",",","",".","",""
"null","<div style=""color:white; font-size:60px;"">+</div>","null","html-keyboard-response","392","936540","0.0-12.0-0.39","fixation","","","","",""
"4486.7599999997765","Stimuli/Hangul_F91.bmp","188","image-keyboard-response","393","941028","0.0-12.0-1.39","test",".","",",","",""
"null","<div style=""color:white; font-size:60px;"">+</div>","null","html-keyboard-response","394","942030","0.0-12.0-0.40","fixation","","","","",""
"3051.4900000016205","Stimuli/Hangul_F85.bmp","188","image-keyboard-response","395","945083","0.0-12.0-1.40","test",".","",",","",""
"null","<div style=""color:white; font-size:60px;"">+</div>","null","html-keyboard-response","396","946087","0.0-12.0-0.41","fixation","","","","",""
"2923.124999999418","Stimuli/Hangul_F75.bmp","190","image-keyboard-response","397","949011","0.0-12.0-1.41","test",".","",".","",""
"null","<div style=""color:white; font-size:60px;"">+</div>","null","html-keyboard-response","398","950013","0.0-12.0-0.42","fixation","","","","",""
"2605.8949999988545","Stimuli/Hangul_M80.bmp","188","image-keyboard-response","399","952621","0.0-12.0-1.42","test",",","",",","",""
"null","<div style=""color:white; font-size:60px;"">+</div>","null","html-keyboard-response","400","953622","0.0-12.0-0.43","fixation","","","","",""
"3740.600000000908","Stimuli/Hangul_F89.bmp","188","image-keyboard-response","401","957363","0.0-12.0-1.43","test",".","",",","",""
"null","<div style=""color:white; font-size:60px;"">+</div>","null","html-keyboard-response","402","958364","0.0-12.0-0.44","fixation","","","","",""
"3473.1350000001257","Stimuli/Hangul_M99.bmp","190","image-keyboard-response","403","961838","0.0-12.0-1.44","test",",","",".","",""
"null","<div style=""color:white; font-size:60px;"">+</div>","null","html-keyboard-response","404","962840","0.0-12.0-0.45","fixation","","","","",""
"4262.355000000796","Stimuli/Hangul_M76.bmp","190","image-keyboard-response","405","967105","0.0-12.0-1.45","test",",","",".","",""
"null","<div style=""color:white; font-size:60px;"">+</div>","null","html-keyboard-response","406","968108","0.0-12.0-0.46","fixation","","","","",""
"3098.1099999990547","Stimuli/Hangul_M97.bmp","188","image-keyboard-response","407","971207","0.0-12.0-1.46","test",",","",",","",""
"null","<div style=""color:white; font-size:60px;"">+</div>","null","html-keyboard-response","408","972210","0.0-12.0-0.47","fixation","","","","",""
"3299.370000000694","Stimuli/Hangul_F88.bmp","188","image-keyboard-response","409","975512","0.0-12.0-1.47","test",".","",",","",""
"null","<div style=""color:white; font-size:60px;"">+</div>","null","html-keyboard-response","410","976514","0.0-12.0-0.48","fixation","","","","",""
"3147.295000000624","Stimuli/Hangul_M75.bmp","190","image-keyboard-response","411","979664","0.0-12.0-1.48","test",",","",".","",""
"null","<div style=""color:white; font-size:60px;"">+</div>","null","html-keyboard-response","412","980667","0.0-12.0-0.49","fixation","","","","",""
"2690.4599999998463","Stimuli/Hangul_M79.bmp","188","image-keyboard-response","413","983359","0.0-12.0-1.49","test",",","",",","",""
"3360.1799999995856","<p style=""color:white;"">Phase I of the experiment is complete.</p> <p style=""color:white;"">Press the space bar to proceed to Phase II of the experiment.</p> ","32","html-keyboard-response","414","986720","0.0-13.0","","","","","",""
"148321.51499999966","<p style=""color:white;"">Now we are interested in how well you can predict patterns in the series of figures. You will be asked to predict whether the next figure in the series is more male-like or female-like. When you see the <q>Next Figure</q> prompt, press the corresponding response keys to indicate your prediction: </p><p style=""color:white;""> Male &#8594 <q>,</q> (comma)</p><p style=""color:white;""> Female &#8594 <q>.</q> (period)</p><p style=""color:white;"">The actual figure will then appear on the screen. After you see the figure, please guess the assigned gender with response keys. </p><p style=""color:white;"">As before, you will receive 2 cents for correctly classifying each figure.</p><p style=""color:white;"">Press either response keys to continue.</p>","190","html-keyboard-response","415","1137043","0.0-14.0","","","","","",""
"49210.51999999862","<p style=""color:white;"">PREDICTION BONUS</p> <p style=""color:white;"">Your prediction accuracy is the total number of correct predictions you make over the 200 trials.</p> <p style=""color:white;"">In addition to the 2 cents per correct figure classification, you have the chance to receive a bonus of 40 dollars IF your accuracy is above average relative to previous participants.</p><p style=""color:white;"">If your accuracy is below average relative to previous participants, then you will not receive the 40 dollar bonus.</p><p style=""color:white;"">Press the space bar to continue.</p>","32","html-keyboard-response","416","1186254","0.0-15.0","","","","","",""
"6679.589999999851","<p style=""color:white;"">Here are some examples.</p> <p style=""color:white;"">For each, predict whether the next figure looks more male-like or female-like. Then, when the figure appears, guess whether it looks more male-like or female-like and indicate your choice.</p> <p style=""color:white;"">Press the space bar to continue.</p>","32","html-keyboard-response","417","1192935","0.0-16.0","","","","","",""
"1673.6750000000466","<p style=""color:white;""> Next Figure: Male or Female? </p>","190","html-keyboard-response","418","1196610","0.0-17.0-0.0","prediction_train","","","",".",""
"null","<div style=""color:white; font-size:60px;"">+</div>","null","html-keyboard-response","419","1197613","0.0-17.0-1.0","fixation","","","","",""
"2592.779999998864","Stimuli/Hangul_E0.bmp","190","image-keyboard-response","420","1200206","0.0-17.0-2.0","c2_train",",","","","","."
"10020.195000000997","<p style=""color:white;""> Next Figure: Male or Female? </p>","190","html-keyboard-response","421","1210227","0.0-17.0-0.1","prediction_train","","","",".",""
"null","<div style=""color:white; font-size:60px;"">+</div>","null","html-keyboard-response","422","1211229","0.0-17.0-1.1","fixation","","","","",""
"3221.4700000004377","Stimuli/Hangul_E2.bmp","190","image-keyboard-response","423","1214452","0.0-17.0-2.1","c2_train",".","","","","."
"1694.0950000006706","<p style=""color:white;""> Next Figure: Male or Female? </p>","190","html-keyboard-response","424","1216148","0.0-17.0-0.2","prediction_train","","","",".",""
"null","<div style=""color:white; font-size:60px;"">+</div>","null","html-keyboard-response","425","1217149","0.0-17.0-1.2","fixation","","","","",""
"2696.9250000002794","Stimuli/Hangul_E1.bmp","188","image-keyboard-response","426","1219847","0.0-17.0-2.2","c2_train",",","","","",","
"1906.004999998957","<p style=""color:white;"">Let us begin! Press the space bar when you are ready to start block 1 of 4.</p> ","32","html-keyboard-response","427","1221755","0.0-18.0","","","","","",""
"1350.8399999991525","<p style=""color:white;""> Next Figure: Male or Female? </p>","188","html-keyboard-response","428","1225107","0.0-19.0-0.0","prediction","","","",",",""
"null","<div style=""color:white; font-size:60px;"">+</div>","null","html-keyboard-response","429","1226108","0.0-19.0-1.0","fixation","","","","",""
"2964.8949999990873","Stimuli/Hangul_F16.bmp","190","image-keyboard-response","430","1229074","0.0-19.0-2.0","c2_test",".","","","","."
"1170.3700000017416","<p style=""color:white;""> Next Figure: Male or Female? </p>","190","html-keyboard-response","431","1230245","0.0-19.0-0.1","prediction","","","",".",""
"null","<div style=""color:white; font-size:60px;"">+</div>","null","html-keyboard-response","432","1231247","0.0-19.0-1.1","fixation","","","","",""
"4093.5250000001397","Stimuli/Hangul_F19.bmp","190","image-keyboard-response","433","1235343","0.0-19.0-2.1","c2_test",".","","","","."
"3006.8950000004843","<p style=""color:white;""> Next Figure: Male or Female? </p>","190","html-keyboard-response","434","1238352","0.0-19.0-0.2","prediction","","","",".",""
"null","<div style=""color:white; font-size:60px;"">+</div>","null","html-keyboard-response","435","1239353","0.0-19.0-1.2","fixation","","","","",""
"3716.940000000177","Stimuli/Hangul_M16.bmp","188","image-keyboard-response","436","1243071","0.0-19.0-2.2","c2_test",",","","","",","
"2415.9150000014342","<p style=""color:white;""> Next Figure: Male or Female? </p>","190","html-keyboard-response","437","1245488","0.0-19.0-0.3","prediction","","","",".",""
"null","<div style=""color:white; font-size:60px;"">+</div>","null","html-keyboard-response","438","1246490","0.0-19.0-1.3","fixation","","","","",""
"2339.734999999637","Stimuli/Hangul_M15.bmp","190","image-keyboard-response","439","1248831","0.0-19.0-2.3","c2_test",",","","","","."
"1568.4350000009872","<p style=""color:white;""> Next Figure: Male or Female? </p>","188","html-keyboard-response","440","1250400","0.0-19.0-0.4","prediction","","","",",",""
"null","<div style=""color:white; font-size:60px;"">+</div>","null","html-keyboard-response","441","1251403","0.0-19.0-1.4","fixation","","","","",""
"2276.7899999998044","Stimuli/Hangul_M10.bmp","188","image-keyboard-response","442","1253682","0.0-19.0-2.4","c2_test",",","","","",","
"883.7400000011548","<p style=""color:white;""> Next Figure: Male or Female? </p>","188","html-keyboard-response","443","1254568","0.0-19.0-0.5","prediction","","","",",",""
"null","<div style=""color:white; font-size:60px;"">+</div>","null","html-keyboard-response","444","1255571","0.0-19.0-1.5","fixation","","","","",""
"2482.8849999995437","Stimuli/Hangul_M19.bmp","190","image-keyboard-response","445","1258056","0.0-19.0-2.5","c2_test",",","","","","."
"1109.7049999989104","<p style=""color:white;""> Next Figure: Male or Female? </p>","188","html-keyboard-response","446","1259168","0.0-19.0-0.6","prediction","","","",",",""
"null","<div style=""color:white; font-size:60px;"">+</div>","null","html-keyboard-response","447","1260170","0.0-19.0-1.6","fixation","","","","",""
"2095.269999999786","Stimuli/Hangul_M8.bmp","188","image-keyboard-response","448","1262268","0.0-19.0-2.6","c2_test",",","","","",","
"946.1350000002421","<p style=""color:white;""> Next Figure: Male or Female? </p>","188","html-keyboard-response","449","1263216","0.0-19.0-0.7","prediction","","","",",",""
"null","<div style=""color:white; font-size:60px;"">+</div>","null","html-keyboard-response","450","1264219","0.0-19.0-1.7","fixation","","","","",""
"2345.525000000838","Stimuli/Hangul_F14.bmp","188","image-keyboard-response","451","1266566","0.0-19.0-2.7","c2_test",".","","","",","
"876.2199999999721","<p style=""color:white;""> Next Figure: Male or Female? </p>","190","html-keyboard-response","452","1267444","0.0-19.0-0.8","prediction","","","",".",""
"null","<div style=""color:white; font-size:60px;"">+</div>","null","html-keyboard-response","453","1268447","0.0-19.0-1.8","fixation","","","","",""
"3210.504999998957","Stimuli/Hangul_F13.bmp","190","image-keyboard-response","454","1271660","0.0-19.0-2.8","c2_test",".","","","","."
"878.275000001071","<p style=""color:white;""> Next Figure: Male or Female? </p>","190","html-keyboard-response","455","1272540","0.0-19.0-0.9","prediction","","","",".",""
"null","<div style=""color:white; font-size:60px;"">+</div>","null","html-keyboard-response","456","1273542","0.0-19.0-1.9","fixation","","","","",""
"2770.510000000242","Stimuli/Hangul_F8.bmp","190","image-keyboard-response","457","1276315","0.0-19.0-2.9","c2_test",".","","","","."
"818.054999999702","<p style=""color:white;""> Next Figure: Male or Female? </p>","188","html-keyboard-response","458","1277134","0.0-19.0-0.10","prediction","","","",",",""
"null","<div style=""color:white; font-size:60px;"">+</div>","null","html-keyboard-response","459","1278136","0.0-19.0-1.10","fixation","","","","",""
"2783.8950000004843","Stimuli/Hangul_M14.bmp","190","image-keyboard-response","460","1280923","0.0-19.0-2.10","c2_test",",","","","","."
"1007.1550000011921","<p style=""color:white;""> Next Figure: Male or Female? </p>","188","html-keyboard-response","461","1281930","0.0-19.0-0.11","prediction","","","",",",""
"null","<div style=""color:white; font-size:60px;"">+</div>","null","html-keyboard-response","462","1282932","0.0-19.0-1.11","fixation","","","","",""
"2109.6800000015646","Stimuli/Hangul_F1.bmp","190","image-keyboard-response","463","1285042","0.0-19.0-2.11","c2_test",".","","","","."
"874.0899999993853","<p style=""color:white;""> Next Figure: Male or Female? </p>","190","html-keyboard-response","464","1285918","0.0-19.0-0.12","prediction","","","",".",""
"null","<div style=""color:white; font-size:60px;"">+</div>","null","html-keyboard-response","465","1286919","0.0-19.0-1.12","fixation","","","","",""
"2742.8199999995995","Stimuli/Hangul_F24.bmp","190","image-keyboard-response","466","1289662","0.0-19.0-2.12","c2_test",".","","","","."
"690.6350000009406","<p style=""color:white;""> Next Figure: Male or Female? </p>","188","html-keyboard-response","467","1290354","0.0-19.0-0.13","prediction","","","",",",""
"null","<div style=""color:white; font-size:60px;"">+</div>","null","html-keyboard-response","468","1291356","0.0-19.0-1.13","fixation","","","","",""
"2889.535000000382","Stimuli/Hangul_F0.bmp","188","image-keyboard-response","469","1294247","0.0-19.0-2.13","c2_test",".","","","",","
"622.8499999996275","<p style=""color:white;""> Next Figure: Male or Female? </p>","188","html-keyboard-response","470","1294872","0.0-19.0-0.14","prediction","","","",",",""
"null","<div style=""color:white; font-size:60px;"">+</div>","null","html-keyboard-response","471","1295874","0.0-19.0-1.14","fixation","","","","",""
"2082.765000000829","Stimuli/Hangul_F15.bmp","188","image-keyboard-response","472","1297959","0.0-19.0-2.14","c2_test",".","","","",","
"752.6550000002608","<p style=""color:white;""> Next Figure: Male or Female? </p>","188","html-keyboard-response","473","1298712","0.0-19.0-0.15","prediction","","","",",",""
"null","<div style=""color:white; font-size:60px;"">+</div>","null","html-keyboard-response","474","1299714","0.0-19.0-1.15","fixation","","","","",""
"2327.2149999993853","Stimuli/Hangul_F2.bmp","190","image-keyboard-response","475","1302042","0.0-19.0-2.15","c2_test",".","","","","."
"867.5750000004191","<p style=""color:white;""> Next Figure: Male or Female? </p>","190","html-keyboard-response","476","1302912","0.0-19.0-0.16","prediction","","","",".",""
"null","<div style=""color:white; font-size:60px;"">+</div>","null","html-keyboard-response","477","1303915","0.0-19.0-1.16","fixation","","","","",""
"2906.184999999823","Stimuli/Hangul_M3.bmp","188","image-keyboard-response","478","1306823","0.0-19.0-2.16","c2_test",",","","","",","
"703.6549999993294","<p style=""color:white;""> Next Figure: Male or Female? </p>","188","html-keyboard-response","479","1307528","0.0-19.0-0.17","prediction","","","",",",""
"null","<div style=""color:white; font-size:60px;"">+</div>","null","html-keyboard-response","480","1308530","0.0-19.0-1.17","fixation","","","","",""
"2491.939999999944","Stimuli/Hangul_F11.bmp","190","image-keyboard-response","481","1311024","0.0-19.0-2.17","c2_test",".","","","","."
"638.1400000008289","<p style=""color:white;""> Next Figure: Male or Female? </p>","190","html-keyboard-response","482","1311664","0.0-19.0-0.18","prediction","","","",".",""
"null","<div style=""color:white; font-size:60px;"">+</div>","null","html-keyboard-response","483","1312667","0.0-19.0-1.18","fixation","","","","",""
"2508.780000000028","Stimuli/Hangul_M11.bmp","188","image-keyboard-response","484","1315178","0.0-19.0-2.18","c2_test",",","","","",","
"907.8449999997392","<p style=""color:white;""> Next Figure: Male or Female? </p>","188","html-keyboard-response","485","1316088","0.0-19.0-0.19","prediction","","","",",",""
"null","<div style=""color:white; font-size:60px;"">+</div>","null","html-keyboard-response","486","1317091","0.0-19.0-1.19","fixation","","","","",""
"2418.8099999993574","Stimuli/Hangul_F6.bmp","188","image-keyboard-response","487","1319512","0.0-19.0-2.19","c2_test",".","","","",","
"770.7399999999907","<p style=""color:white;""> Next Figure: Male or Female? </p>","190","html-keyboard-response","488","1320284","0.0-19.0-0.20","prediction","","","",".",""
"null","<div style=""color:white; font-size:60px;"">+</div>","null","html-keyboard-response","489","1321287","0.0-19.0-1.20","fixation","","","","",""
"2282.7199999992736","Stimuli/Hangul_F17.bmp","190","image-keyboard-response","490","1323572","0.0-19.0-2.20","c2_test",".","","","","."
"2021.2350000001024","<p style=""color:white;""> Next Figure: Male or Female? </p>","190","html-keyboard-response","491","1325596","0.0-19.0-0.21","prediction","","","",".",""
"null","<div style=""color:white; font-size:60px;"">+</div>","null","html-keyboard-response","492","1326599","0.0-19.0-1.21","fixation","","","","",""
"5594.385000000475","Stimuli/Hangul_M5.bmp","188","image-keyboard-response","493","1332196","0.0-19.0-2.21","c2_test",",","","","",","
"1661.5999999993946","<p style=""color:white;""> Next Figure: Male or Female? </p>","188","html-keyboard-response","494","1333860","0.0-19.0-0.22","prediction","","","",",",""
"null","<div style=""color:white; font-size:60px;"">+</div>","null","html-keyboard-response","495","1334866","0.0-19.0-1.22","fixation","","","","",""
"2738.1750000005122","Stimuli/Hangul_F23.bmp","188","image-keyboard-response","496","1337605","0.0-19.0-2.22","c2_test",".","","","",","
"1588.4999999997672","<p style=""color:white;""> Next Figure: Male or Female? </p>","188","html-keyboard-response","497","1339195","0.0-19.0-0.23","prediction","","","",",",""
"null","<div style=""color:white; font-size:60px;"">+</div>","null","html-keyboard-response","498","1340197","0.0-19.0-1.23","fixation","","","","",""
"2179.5100000000093","Stimuli/Hangul_M17.bmp","188","image-keyboard-response","499","1342379","0.0-19.0-2.23","c2_test",",","","","",","
"2112.7600000000093","<p style=""color:white;""> Next Figure: Male or Female? </p>","190","html-keyboard-response","500","1344492","0.0-19.0-0.24","prediction","","","",".",""
"null","<div style=""color:white; font-size:60px;"">+</div>","null","html-keyboard-response","501","1345495","0.0-19.0-1.24","fixation","","","","",""
"2946.9449999995995","Stimuli/Hangul_M13.bmp","190","image-keyboard-response","502","1348444","0.0-19.0-2.24","c2_test",",","","","","."
"1366.1850000007544","<p style=""color:white;""> Next Figure: Male or Female? </p>","190","html-keyboard-response","503","1349811","0.0-19.0-0.25","prediction","","","",".",""
"null","<div style=""color:white; font-size:60px;"">+</div>","null","html-keyboard-response","504","1350812","0.0-19.0-1.25","fixation","","","","",""
"3971.3350000001956","Stimuli/Hangul_M7.bmp","188","image-keyboard-response","505","1354784","0.0-19.0-2.25","c2_test",",","","","",","
"1381.7700000000186","<p style=""color:white;""> Next Figure: Male or Female? </p>","188","html-keyboard-response","506","1356168","0.0-19.0-0.26","prediction","","","",",",""
"null","<div style=""color:white; font-size:60px;"">+</div>","null","html-keyboard-response","507","1357171","0.0-19.0-1.26","fixation","","","","",""
"2955.609999999171","Stimuli/Hangul_M9.bmp","190","image-keyboard-response","508","1360127","0.0-19.0-2.26","c2_test",",","","","","."
"1607.6450000000186","<p style=""color:white;""> Next Figure: Male or Female? </p>","190","html-keyboard-response","509","1361735","0.0-19.0-0.27","prediction","","","",".",""
"null","<div style=""color:white; font-size:60px;"">+</div>","null","html-keyboard-response","510","1362738","0.0-19.0-1.27","fixation","","","","",""
"4995.0700000009965","Stimuli/Hangul_F10.bmp","190","image-keyboard-response","511","1367736","0.0-19.0-2.27","c2_test",".","","","","."
"1349.4049999990966","<p style=""color:white;""> Next Figure: Male or Female? </p>","188","html-keyboard-response","512","1369087","0.0-19.0-0.28","prediction","","","",",",""
"null","<div style=""color:white; font-size:60px;"">+</div>","null","html-keyboard-response","513","1370088","0.0-19.0-1.28","fixation","","","","",""
"3416.73000000068","Stimuli/Hangul_F22.bmp","188","image-keyboard-response","514","1373506","0.0-19.0-2.28","c2_test",".","","","",","
"2499.254999998957","<p style=""color:white;""> Next Figure: Male or Female? </p>","188","html-keyboard-response","515","1376008","0.0-19.0-0.29","prediction","","","",",",""
"null","<div style=""color:white; font-size:60px;"">+</div>","null","html-keyboard-response","516","1377010","0.0-19.0-1.29","fixation","","","","",""
"1810.2449999987148","Stimuli/Hangul_M4.bmp","188","image-keyboard-response","517","1378824","0.0-19.0-2.29","c2_test",",","","","",","
"1026.7499999990687","<p style=""color:white;""> Next Figure: Male or Female? </p>","190","html-keyboard-response","518","1379852","0.0-19.0-0.30","prediction","","","",".",""
"null","<div style=""color:white; font-size:60px;"">+</div>","null","html-keyboard-response","519","1380855","0.0-19.0-1.30","fixation","","","","",""
"2466.9049999993294","Stimuli/Hangul_M20.bmp","190","image-keyboard-response","520","1383323","0.0-19.0-2.30","c2_test",",","","","","."
"1202.7900000012014","<p style=""color:white;""> Next Figure: Male or Female? </p>","188","html-keyboard-response","521","1384527","0.0-19.0-0.31","prediction","","","",",",""
"null","<div style=""color:white; font-size:60px;"">+</div>","null","html-keyboard-response","522","1385530","0.0-19.0-1.31","fixation","","","","",""
"3503.564999999013","Stimuli/Hangul_F5.bmp","188","image-keyboard-response","523","1389035","0.0-19.0-2.31","c2_test",".","","","",","
"1335.0850000006612","<p style=""color:white;""> Next Figure: Male or Female? </p>","190","html-keyboard-response","524","1390372","0.0-19.0-0.32","prediction","","","",".",""
"null","<div style=""color:white; font-size:60px;"">+</div>","null","html-keyboard-response","525","1391374","0.0-19.0-1.32","fixation","","","","",""
"2196.1399999998976","Stimuli/Hangul_M1.bmp","190","image-keyboard-response","526","1393572","0.0-19.0-2.32","c2_test",",","","","","."
"1191.0800000005402","<p style=""color:white;""> Next Figure: Male or Female? </p>","188","html-keyboard-response","527","1394765","0.0-19.0-0.33","prediction","","","",",",""
"null","<div style=""color:white; font-size:60px;"">+</div>","null","html-keyboard-response","528","1395767","0.0-19.0-1.33","fixation","","","","",""
"2425.5950000006706","Stimuli/Hangul_F20.bmp","188","image-keyboard-response","529","1398195","0.0-19.0-2.33","c2_test",".","","","",","
"2015.6400000012945","<p style=""color:white;""> Next Figure: Male or Female? </p>","188","html-keyboard-response","530","1400211","0.0-19.0-0.34","prediction","","","",",",""
"null","<div style=""color:white; font-size:60px;"">+</div>","null","html-keyboard-response","531","1401213","0.0-19.0-1.34","fixation","","","","",""
"2868.614999999525","Stimuli/Hangul_F9.bmp","190","image-keyboard-response","532","1404083","0.0-19.0-2.34","c2_test",".","","","","."
"777.3200000009965","<p style=""color:white;""> Next Figure: Male or Female? </p>","190","html-keyboard-response","533","1404861","0.0-19.0-0.35","prediction","","","",".",""
"null","<div style=""color:white; font-size:60px;"">+</div>","null","html-keyboard-response","534","1405862","0.0-19.0-1.35","fixation","","","","",""
"2147.794999998994","Stimuli/Hangul_M23.bmp","190","image-keyboard-response","535","1408011","0.0-19.0-2.35","c2_test",",","","","","."
"1244.5249999999069","<p style=""color:white;""> Next Figure: Male or Female? </p>","188","html-keyboard-response","536","1409256","0.0-19.0-0.36","prediction","","","",",",""
"null","<div style=""color:white; font-size:60px;"">+</div>","null","html-keyboard-response","537","1410259","0.0-19.0-1.36","fixation","","","","",""
"2369.814999999944","Stimuli/Hangul_M6.bmp","188","image-keyboard-response","538","1412631","0.0-19.0-2.36","c2_test",",","","","",","
"2089.020000001183","<p style=""color:white;""> Next Figure: Male or Female? </p>","188","html-keyboard-response","539","1414721","0.0-19.0-0.37","prediction","","","",",",""
"null","<div style=""color:white; font-size:60px;"">+</div>","null","html-keyboard-response","540","1415722","0.0-19.0-1.37","fixation","","","","",""
"2092.4950000005774","Stimuli/Hangul_M22.bmp","188","image-keyboard-response","541","1417817","0.0-19.0-2.37","c2_test",",","","","",","
"1197.3250000008848","<p style=""color:white;""> Next Figure: Male or Female? </p>","190","html-keyboard-response","542","1419015","0.0-19.0-0.38","prediction","","","",".",""
"null","<div style=""color:white; font-size:60px;"">+</div>","null","html-keyboard-response","543","1420016","0.0-19.0-1.38","fixation","","","","",""
"2133.9550000012387","Stimuli/Hangul_M21.bmp","190","image-keyboard-response","544","1422151","0.0-19.0-2.38","c2_test",",","","","","."
"1359.744999999646","<p style=""color:white;""> Next Figure: Male or Female? </p>","190","html-keyboard-response","545","1423511","0.0-19.0-0.39","prediction","","","",".",""
"null","<div style=""color:white; font-size:60px;"">+</div>","null","html-keyboard-response","546","1424513","0.0-19.0-1.39","fixation","","","","",""
"2444.344999999972","Stimuli/Hangul_M24.bmp","188","image-keyboard-response","547","1426959","0.0-19.0-2.39","c2_test",",","","","",","
"2065.179999999702","<p style=""color:white;""> Next Figure: Male or Female? </p>","188","html-keyboard-response","548","1429025","0.0-19.0-0.40","prediction","","","",",",""
"null","<div style=""color:white; font-size:60px;"">+</div>","null","html-keyboard-response","549","1430026","0.0-19.0-1.40","fixation","","","","",""
"3051.444999999134","Stimuli/Hangul_F21.bmp","188","image-keyboard-response","550","1433079","0.0-19.0-2.40","c2_test",".","","","",","
"1087.8599999996368","<p style=""color:white;""> Next Figure: Male or Female? </p>","190","html-keyboard-response","551","1434168","0.0-19.0-0.41","prediction","","","",".",""
"null","<div style=""color:white; font-size:60px;"">+</div>","null","html-keyboard-response","552","1435171","0.0-19.0-1.41","fixation","","","","",""
"6386.194999999134","Stimuli/Hangul_F3.bmp","190","image-keyboard-response","553","1441558","0.0-19.0-2.41","c2_test",".","","","","."
"2552.910000000382","<p style=""color:white;""> Next Figure: Male or Female? </p>","188","html-keyboard-response","554","1444114","0.0-19.0-0.42","prediction","","","",",",""
"null","<div style=""color:white; font-size:60px;"">+</div>","null","html-keyboard-response","555","1445116","0.0-19.0-1.42","fixation","","","","",""
"5174.634999999311","Stimuli/Hangul_M12.bmp","188","image-keyboard-response","556","1450291","0.0-19.0-2.42","c2_test",",","","","",","
"2045.7249999998603","<p style=""color:white;""> Next Figure: Male or Female? </p>","190","html-keyboard-response","557","1452339","0.0-19.0-0.43","prediction","","","",".",""
"null","<div style=""color:white; font-size:60px;"">+</div>","null","html-keyboard-response","558","1453341","0.0-19.0-1.43","fixation","","","","",""
"3460.3300000017043","Stimuli/Hangul_F18.bmp","190","image-keyboard-response","559","1456803","0.0-19.0-2.43","c2_test",".","","","","."
"1862.7849999992177","<p style=""color:white;""> Next Figure: Male or Female? </p>","188","html-keyboard-response","560","1458667","0.0-19.0-0.44","prediction","","","",",",""
"null","<div style=""color:white; font-size:60px;"">+</div>","null","html-keyboard-response","561","1459669","0.0-19.0-1.44","fixation","","","","",""
"2515.6200000001118","Stimuli/Hangul_F4.bmp","190","image-keyboard-response","562","1462187","0.0-19.0-2.44","c2_test",".","","","","."
"1025.040000000503","<p style=""color:white;""> Next Figure: Male or Female? </p>","188","html-keyboard-response","563","1463213","0.0-19.0-0.45","prediction","","","",",",""
"null","<div style=""color:white; font-size:60px;"">+</div>","null","html-keyboard-response","564","1464214","0.0-19.0-1.45","fixation","","","","",""
"2869.4550000000745","Stimuli/Hangul_M2.bmp","188","image-keyboard-response","565","1467086","0.0-19.0-2.45","c2_test",",","","","",","
"887.5900000003166","<p style=""color:white;""> Next Figure: Male or Female? </p>","188","html-keyboard-response","566","1467974","0.0-19.0-0.46","prediction","","","",",",""
"null","<div style=""color:white; font-size:60px;"">+</div>","null","html-keyboard-response","567","1468976","0.0-19.0-1.46","fixation","","","","",""
"4671.935000000289","Stimuli/Hangul_M18.bmp","190","image-keyboard-response","568","1473648","0.0-19.0-2.46","c2_test",",","","","","."
"765.929999999702","<p style=""color:white;""> Next Figure: Male or Female? </p>","190","html-keyboard-response","569","1474415","0.0-19.0-0.47","prediction","","","",".",""
"null","<div style=""color:white; font-size:60px;"">+</div>","null","html-keyboard-response","570","1475417","0.0-19.0-1.47","fixation","","","","",""
"3420.3649999999907","Stimuli/Hangul_M0.bmp","190","image-keyboard-response","571","1478839","0.0-19.0-2.47","c2_test",",","","","","."
"1294.1799999990035","<p style=""color:white;""> Next Figure: Male or Female? </p>","188","html-keyboard-response","572","1480134","0.0-19.0-0.48","prediction","","","",",",""
"null","<div style=""color:white; font-size:60px;"">+</div>","null","html-keyboard-response","573","1481135","0.0-19.0-1.48","fixation","","","","",""
"10517.175000000745","Stimuli/Hangul_F7.bmp","188","image-keyboard-response","574","1491653","0.0-19.0-2.48","c2_test",".","","","",","
"643.1599999996834","<p style=""color:white;""> Next Figure: Male or Female? </p>","188","html-keyboard-response","575","1492298","0.0-19.0-0.49","prediction","","","",",",""
"null","<div style=""color:white; font-size:60px;"">+</div>","null","html-keyboard-response","576","1493300","0.0-19.0-1.49","fixation","","","","",""
"4276.360000001732","Stimuli/Hangul_F12.bmp","190","image-keyboard-response","577","1497578","0.0-19.0-2.49","c2_test",".","","","","."
"2996.1449999990873","<p style=""color:white;"">Good job, block 1 complete! Please take a moment to rest.</p> <p style=""color:white;"">When you are ready to continue with block 2 of 4, press the space bar.</p> ","32","html-keyboard-response","578","1500576","0.0-20.0","","","","","",""
"1094.7999999988824","<p style=""color:white;""> Next Figure: Male or Female? </p>","188","html-keyboard-response","579","1503673","0.0-21.0-0.0","prediction","","","",",",""
"null","<div style=""color:white; font-size:60px;"">+</div>","null","html-keyboard-response","580","1504674","0.0-21.0-1.0","fixation","","","","",""
"10068.05999999959","Stimuli/Hangul_F48.bmp","188","image-keyboard-response","581","1514743","0.0-21.0-2.0","c2_test",".","","","",","
"5127.51500000013","<p style=""color:white;""> Next Figure: Male or Female? </p>","190","html-keyboard-response","582","1519872","0.0-21.0-0.1","prediction","","","",".",""
"null","<div style=""color:white; font-size:60px;"">+</div>","null","html-keyboard-response","583","1520874","0.0-21.0-1.1","fixation","","","","",""
"3317.0900000003166","Stimuli/Hangul_F45.bmp","190","image-keyboard-response","584","1524193","0.0-21.0-2.1","c2_test",".","","","","."
"837.6800000004005","<p style=""color:white;""> Next Figure: Male or Female? </p>","190","html-keyboard-response","585","1525033","0.0-21.0-0.2","prediction","","","",".",""
"null","<div style=""color:white; font-size:60px;"">+</div>","null","html-keyboard-response","586","1526035","0.0-21.0-1.2","fixation","","","","",""
"3581.8249999994878","Stimuli/Hangul_F25.bmp","188","image-keyboard-response","587","1529617","0.0-21.0-2.2","c2_test",".","","","",","
"1078.1700000008568","<p style=""color:white;""> Next Figure: Male or Female? </p>","188","html-keyboard-response","588","1530697","0.0-21.0-0.3","prediction","","","",",",""
"null","<div style=""color:white; font-size:60px;"">+</div>","null","html-keyboard-response","589","1531699","0.0-21.0-1.3","fixation","","","","",""
"3358.9350000002887","Stimuli/Hangul_F41.bmp","190","image-keyboard-response","590","1535060","0.0-21.0-2.3","c2_test",".","","","","."
"2155.58000000054","<p style=""color:white;""> Next Figure: Male or Female? </p>","190","html-keyboard-response","591","1537217","0.0-21.0-0.4","prediction","","","",".",""
"null","<div style=""color:white; font-size:60px;"">+</div>","null","html-keyboard-response","592","1538220","0.0-21.0-1.4","fixation","","","","",""
"4759.655000000028","Stimuli/Hangul_F37.bmp","188","image-keyboard-response","593","1542980","0.0-21.0-2.4","c2_test",".","","","",","
"759.9050000007264","<p style=""color:white;""> Next Figure: Male or Female? </p>","188","html-keyboard-response","594","1543741","0.0-21.0-0.5","prediction","","","",",",""
"null","<div style=""color:white; font-size:60px;"">+</div>","null","html-keyboard-response","595","1544745","0.0-21.0-1.5","fixation","","","","",""
"4044.5149999996647","Stimuli/Hangul_M26.bmp","190","image-keyboard-response","596","1548792","0.0-21.0-2.5","c2_test",",","","","","."
"1875.7949999999255","<p style=""color:white;""> Next Figure: Male or Female? </p>","190","html-keyboard-response","597","1550669","0.0-21.0-0.6","prediction","","","",".",""
"null","<div style=""color:white; font-size:60px;"">+</div>","null","html-keyboard-response","598","1551674","0.0-21.0-1.6","fixation","","","","",""
"2632.195000000065","Stimuli/Hangul_F28.bmp","188","image-keyboard-response","599","1554309","0.0-21.0-2.6","c2_test",".","","","",","
"1053.6649999993388","<p style=""color:white;""> Next Figure: Male or Female? </p>","188","html-keyboard-response","600","1555365","0.0-21.0-0.7","prediction","","","",",",""
"null","<div style=""color:white; font-size:60px;"">+</div>","null","html-keyboard-response","601","1556369","0.0-21.0-1.7","fixation","","","","",""
"2428.4850000003353","Stimuli/Hangul_F31.bmp","190","image-keyboard-response","602","1558800","0.0-21.0-2.7","c2_test",".","","","","."
"923.5799999986775","<p style=""color:white;""> Next Figure: Male or Female? </p>","190","html-keyboard-response","603","1559725","0.0-21.0-0.8","prediction","","","",".",""
"null","<div style=""color:white; font-size:60px;"">+</div>","null","html-keyboard-response","604","1560728","0.0-21.0-1.8","fixation","","","","",""
"2626.765000000829","Stimuli/Hangul_F43.bmp","190","image-keyboard-response","605","1563357","0.0-21.0-2.8","c2_test",".","","","","."
"606.525000001071","<p style=""color:white;""> Next Figure: Male or Female? </p>","190","html-keyboard-response","606","1563964","0.0-21.0-0.9","prediction","","","",".",""
"null","<div style=""color:white; font-size:60px;"">+</div>","null","html-keyboard-response","607","1564966","0.0-21.0-1.9","fixation","","","","",""
"4112.300000000745","Stimuli/Hangul_F29.bmp","190","image-keyboard-response","608","1569079","0.0-21.0-2.9","c2_test",".","","","","."
"1386.7350000001024","<p style=""color:white;""> Next Figure: Male or Female? </p>","188","html-keyboard-response","609","1570469","0.0-21.0-0.10","prediction","","","",",",""
"null","<div style=""color:white; font-size:60px;"">+</div>","null","html-keyboard-response","610","1571470","0.0-21.0-1.10","fixation","","","","",""
"2743.9899999990594","Stimuli/Hangul_M43.bmp","190","image-keyboard-response","611","1574216","0.0-21.0-2.10","c2_test",",","","","","."
"808.4299999990035","<p style=""color:white;""> Next Figure: Male or Female? </p>","188","html-keyboard-response","612","1575025","0.0-21.0-0.11","prediction","","","",",",""
"null","<div style=""color:white; font-size:60px;"">+</div>","null","html-keyboard-response","613","1576027","0.0-21.0-1.11","fixation","","","","",""
"3197.56500000041","Stimuli/Hangul_F36.bmp","188","image-keyboard-response","614","1579226","0.0-21.0-2.11","c2_test",".","","","",","
"2478.6949999998324","<p style=""color:white;""> Next Figure: Male or Female? </p>","190","html-keyboard-response","615","1581705","0.0-21.0-0.12","prediction","","","",".",""
"null","<div style=""color:white; font-size:60px;"">+</div>","null","html-keyboard-response","616","1582707","0.0-21.0-1.12","fixation","","","","",""
"2963.1350000000093","Stimuli/Hangul_M30.bmp","190","image-keyboard-response","617","1585673","0.0-21.0-2.12","c2_test",",","","","","."
"1583.3849999997765","<p style=""color:white;""> Next Figure: Male or Female? </p>","190","html-keyboard-response","618","1587256","0.0-21.0-0.13","prediction","","","",".",""
"null","<div style=""color:white; font-size:60px;"">+</div>","null","html-keyboard-response","619","1588258","0.0-21.0-1.13","fixation","","","","",""
"2690.284999998752","Stimuli/Hangul_F39.bmp","190","image-keyboard-response","620","1590949","0.0-21.0-2.13","c2_test",".","","","","."
"626.5399999993388","<p style=""color:white;""> Next Figure: Male or Female? </p>","188","html-keyboard-response","621","1591576","0.0-21.0-0.14","prediction","","","",",",""
"null","<div style=""color:white; font-size:60px;"">+</div>","null","html-keyboard-response","622","1592578","0.0-21.0-1.14","fixation","","","","",""
"2648.289999999106","Stimuli/Hangul_M46.bmp","188","image-keyboard-response","623","1595229","0.0-21.0-2.14","c2_test",",","","","",","
"675.4199999996927","<p style=""color:white;""> Next Figure: Male or Female? </p>","188","html-keyboard-response","624","1595905","0.0-21.0-0.15","prediction","","","",",",""
"null","<div style=""color:white; font-size:60px;"">+</div>","null","html-keyboard-response","625","1596908","0.0-21.0-1.15","fixation","","","","",""
"1923.4949999989476","Stimuli/Hangul_M37.bmp","188","image-keyboard-response","626","1598833","0.0-21.0-2.15","c2_test",",","","","",","
"702.9450000009965","<p style=""color:white;""> Next Figure: Male or Female? </p>","190","html-keyboard-response","627","1599537","0.0-21.0-0.16","prediction","","","",".",""
"null","<div style=""color:white; font-size:60px;"">+</div>","null","html-keyboard-response","628","1600540","0.0-21.0-1.16","fixation","","","","",""
"1560.9700000004377","Stimuli/Hangul_F46.bmp","188","image-keyboard-response","629","1602102","0.0-21.0-2.16","c2_test",".","","","",","
"693.7500000004657","<p style=""color:white;""> Next Figure: Male or Female? </p>","188","html-keyboard-response","630","1602796","0.0-21.0-0.17","prediction","","","",",",""
"null","<div style=""color:white; font-size:60px;"">+</div>","null","html-keyboard-response","631","1603798","0.0-21.0-1.17","fixation","","","","",""
"2517.9850000003353","Stimuli/Hangul_M45.bmp","188","image-keyboard-response","632","1606317","0.0-21.0-2.17","c2_test",",","","","",","
"510.03999999933876","<p style=""color:white;""> Next Figure: Male or Female? </p>","190","html-keyboard-response","633","1606828","0.0-21.0-0.18","prediction","","","",".",""
"null","<div style=""color:white; font-size:60px;"">+</div>","null","html-keyboard-response","634","1607830","0.0-21.0-1.18","fixation","","","","",""
"2533.875000001164","Stimuli/Hangul_M33.bmp","188","image-keyboard-response","635","1610365","0.0-21.0-2.18","c2_test",",","","","",","
"1937.3949999988545","<p style=""color:white;""> Next Figure: Male or Female? </p>","190","html-keyboard-response","636","1612305","0.0-21.0-0.19","prediction","","","",".",""
"null","<div style=""color:white; font-size:60px;"">+</div>","null","html-keyboard-response","637","1613307","0.0-21.0-1.19","fixation","","","","",""
"3656.3649999988265","Stimuli/Hangul_M28.bmp","188","image-keyboard-response","638","1616965","0.0-21.0-2.19","c2_test",",","","","",","
"2607.604999999283","<p style=""color:white;""> Next Figure: Male or Female? </p>","188","html-keyboard-response","639","1619573","0.0-21.0-0.20","prediction","","","",",",""
"null","<div style=""color:white; font-size:60px;"">+</div>","null","html-keyboard-response","640","1620574","0.0-21.0-1.20","fixation","","","","",""
"2479.9650000003166","Stimuli/Hangul_F26.bmp","188","image-keyboard-response","641","1623055","0.0-21.0-2.20","c2_test",".","","","",","
"1587.540000000503","<p style=""color:white;""> Next Figure: Male or Female? </p>","188","html-keyboard-response","642","1624644","0.0-21.0-0.21","prediction","","","",",",""
"null","<div style=""color:white; font-size:60px;"">+</div>","null","html-keyboard-response","643","1625646","0.0-21.0-1.21","fixation","","","","",""
"2512.5200000002515","Stimuli/Hangul_M44.bmp","188","image-keyboard-response","644","1628160","0.0-21.0-2.21","c2_test",",","","","",","
"3197.7950000001583","<p style=""color:white;""> Next Figure: Male or Female? </p>","190","html-keyboard-response","645","1631360","0.0-21.0-0.22","prediction","","","",".",""
"null","<div style=""color:white; font-size:60px;"">+</div>","null","html-keyboard-response","646","1632362","0.0-21.0-1.22","fixation","","","","",""
"2310.684999998659","Stimuli/Hangul_M38.bmp","190","image-keyboard-response","647","1634675","0.0-21.0-2.22","c2_test",",","","","","."
"3540.9749999998603","<p style=""color:white;""> Next Figure: Male or Female? </p>","190","html-keyboard-response","648","1638216","0.0-21.0-0.23","prediction","","","",".",""
"null","<div style=""color:white; font-size:60px;"">+</div>","null","html-keyboard-response","649","1639219","0.0-21.0-1.23","fixation","","","","",""
"3474.765000000829","Stimuli/Hangul_F33.bmp","188","image-keyboard-response","650","1642696","0.0-21.0-2.23","c2_test",".","","","",","
"1327.1299999996554","<p style=""color:white;""> Next Figure: Male or Female? </p>","188","html-keyboard-response","651","1644024","0.0-21.0-0.24","prediction","","","",",",""
"null","<div style=""color:white; font-size:60px;"">+</div>","null","html-keyboard-response","652","1645026","0.0-21.0-1.24","fixation","","","","",""
"3289.3000000002794","Stimuli/Hangul_F42.bmp","188","image-keyboard-response","653","1648316","0.0-21.0-2.24","c2_test",".","","","",","
"1242.550000000745","<p style=""color:white;""> Next Figure: Male or Female? </p>","190","html-keyboard-response","654","1649560","0.0-21.0-0.25","prediction","","","",".",""
"null","<div style=""color:white; font-size:60px;"">+</div>","null","html-keyboard-response","655","1650562","0.0-21.0-1.25","fixation","","","","",""
