"rt","stimulus","key_press","trial_type","trial_index","time_elapsed","internal_node_id","test_part","correct_response","C1_train","C1","A","C2"
"1105.5000000051223","<p style=""color:white;"">Welcome to the experiment! Press any key to begin.</p>","32","html-keyboard-response","0","1112","0.0-0.0","","","","","",""
"19605.074999970384","<p style=""color:white;"">You will see a series of abstract figures. They are adaptations of signs in the Korean alphabet, but that is not important for this study. </p><p style=""color:white;"">Abstract figures sometimes have a more masculine or feminine shape. Here, each figure has already been assigned a gender as <q>Male</q> or <q>Female</q> by a panel of respondents in a pilot study. The respondents were not given specific instructions on how to do this, but were only told to use their intuition and to take into account the entire configuration of the stimulus. </p><p style=""color:white;"">Your task now is to guess the assigned gender of each figure. Please press the corresponding response keys to indicate your choice: </p><p style=""color:white;""> Male &#8594 <q>,</q> (comma)</p><p style=""color:white;""> Female &#8594 <q>.</q> (period)</p><p style=""color:white;"">Press either response keys to continue.</p>","188","html-keyboard-response","1","20721","0.0-1.0","","","","","",""
"2580.4750000243075","<p style=""color:white;"">Your choice is correct if it matches the gender assigned by the majority of respondents in the pilot study.</p> <p style=""color:white;"">For each correct choice you will receive 2 cents. There will be 200 trials divided into 4 blocks of 50 trials. You will be able to take a break after every 50 trials.</p> <p style=""color:white;"">Press the space bar to continue.</p>","32","html-keyboard-response","2","23303","0.0-2.0","","","","","",""
"1004.9950000247918","<p style=""color:white;"">Here are some examples.</p> <p style=""color:white;"">For each, guess whether the assigned figure is male-like or female-like and indicate your choice by pressing either response keys.</p> <p style=""color:white;"">Press the space bar to continue.</p>","32","html-keyboard-response","3","24310","0.0-3.0","","","","","",""
"null","<div style=""color:white; font-size:60px;"">+</div>","null","html-keyboard-response","4","27313","0.0-4.0-0.0","fixation","","","","",""
"3819.680000015069","Stimuli/Hangul_E1.bmp","188","image-keyboard-response","5","31136","0.0-4.0-1.0","c1_train",",",",","","",""
"null","<div style=""color:white; font-size:60px;"">+</div>","null","html-keyboard-response","6","32140","0.0-4.0-0.1","fixation","","","","",""
"4720.9900000016205","Stimuli/Hangul_E0.bmp","190","image-keyboard-response","7","36862","0.0-4.0-1.1","c1_train",",",".","","",""
"null","<div style=""color:white; font-size:60px;"">+</div>","null","html-keyboard-response","8","37863","0.0-4.0-0.2","fixation","","","","",""
"1837.7600000239909","Stimuli/Hangul_E2.bmp","190","image-keyboard-response","9","39702","0.0-4.0-1.2","c1_train",".",".","","",""
"2886.590000009164","<p style=""color:white;"">Let us begin! Press the space bar when you are ready to start block 1 of 4.</p> ","32","html-keyboard-response","10","42591","0.0-5.0","","","","","",""
"null","<div style=""color:white; font-size:60px;"">+</div>","null","html-keyboard-response","11","45594","0.0-6.0-0.0","fixation","","","","",""
"1298.8400000031106","Stimuli/Hangul_F23.bmp","188","image-keyboard-response","12","46895","0.0-6.0-1.0","test",".","",",","",""
"null","<div style=""color:white; font-size:60px;"">+</div>","null","html-keyboard-response","13","47897","0.0-6.0-0.1","fixation","","","","",""
"1668.3100000373088","Stimuli/Hangul_F16.bmp","188","image-keyboard-response","14","49566","0.0-6.0-1.1","test",".","",",","",""
"null","<div style=""color:white; font-size:60px;"">+</div>","null","html-keyboard-response","15","50570","0.0-6.0-0.2","fixation","","","","",""
"4933.729999989737","Stimuli/Hangul_M3.bmp","190","image-keyboard-response","16","55504","0.0-6.0-1.2","test",",","",".","",""
"null","<div style=""color:white; font-size:60px;"">+</div>","null","html-keyboard-response","17","56508","0.0-6.0-0.3","fixation","","","","",""
"5307.135000010021","Stimuli/Hangul_M5.bmp","190","image-keyboard-response","18","61816","0.0-6.0-1.3","test",",","",".","",""
"null","<div style=""color:white; font-size:60px;"">+</div>","null","html-keyboard-response","19","62818","0.0-6.0-0.4","fixation","","","","",""
"964.269999996759","Stimuli/Hangul_F8.bmp","190","image-keyboard-response","20","63784","0.0-6.0-1.4","test",".","",".","",""
"null","<div style=""color:white; font-size:60px;"">+</div>","null","html-keyboard-response","21","64786","0.0-6.0-0.5","fixation","","","","",""
"1292.2449999605305","Stimuli/Hangul_M15.bmp","188","image-keyboard-response","22","66080","0.0-6.0-1.5","test",",","",",","",""
"null","<div style=""color:white; font-size:60px;"">+</div>","null","html-keyboard-response","23","67082","0.0-6.0-0.6","fixation","","","","",""
"1075.5299999727868","Stimuli/Hangul_M6.bmp","188","image-keyboard-response","24","68165","0.0-6.0-1.6","test",",","",",","",""
"null","<div style=""color:white; font-size:60px;"">+</div>","null","html-keyboard-response","25","69167","0.0-6.0-0.7","fixation","","","","",""
"3543.3549999725074","Stimuli/Hangul_F0.bmp","188","image-keyboard-response","26","72712","0.0-6.0-1.7","test",".","",",","",""
"null","<div style=""color:white; font-size:60px;"">+</div>","null","html-keyboard-response","27","73715","0.0-6.0-0.8","fixation","","","","",""
"4003.3500000135973","Stimuli/Hangul_M7.bmp","188","image-keyboard-response","28","77721","0.0-6.0-1.8","test",",","",",","",""
"null","<div style=""color:white; font-size:60px;"">+</div>","null","html-keyboard-response","29","78723","0.0-6.0-0.9","fixation","","","","",""
"1290.2750000357628","Stimuli/Hangul_M10.bmp","188","image-keyboard-response","30","80015","0.0-6.0-1.9","test",",","",",","",""
"null","<div style=""color:white; font-size:60px;"">+</div>","null","html-keyboard-response","31","81017","0.0-6.0-0.10","fixation","","","","",""
"1422.2849999787286","Stimuli/Hangul_F13.bmp","188","image-keyboard-response","32","82440","0.0-6.0-1.10","test",".","",",","",""
"null","<div style=""color:white; font-size:60px;"">+</div>","null","html-keyboard-response","33","83443","0.0-6.0-0.11","fixation","","","","",""
"2163.6949999956414","Stimuli/Hangul_M9.bmp","188","image-keyboard-response","34","85608","0.0-6.0-1.11","test",",","",",","",""
"null","<div style=""color:white; font-size:60px;"">+</div>","null","html-keyboard-response","35","86611","0.0-6.0-0.12","fixation","","","","",""
"1091.695000010077","Stimuli/Hangul_F1.bmp","190","image-keyboard-response","36","87703","0.0-6.0-1.12","test",".","",".","",""
"null","<div style=""color:white; font-size:60px;"">+</div>","null","html-keyboard-response","37","88706","0.0-6.0-0.13","fixation","","","","",""
"2164.4800000358373","Stimuli/Hangul_M23.bmp","190","image-keyboard-response","38","90871","0.0-6.0-1.13","test",",","",".","",""
"null","<div style=""color:white; font-size:60px;"">+</div>","null","html-keyboard-response","39","91873","0.0-6.0-0.14","fixation","","","","",""
"1940.2699999627657","Stimuli/Hangul_F14.bmp","190","image-keyboard-response","40","93815","0.0-6.0-1.14","test",".","",".","",""
"null","<div style=""color:white; font-size:60px;"">+</div>","null","html-keyboard-response","41","94818","0.0-6.0-0.15","fixation","","","","",""
"1420.2349999686703","Stimuli/Hangul_F2.bmp","188","image-keyboard-response","42","96240","0.0-6.0-1.15","test",".","",",","",""
"null","<div style=""color:white; font-size:60px;"">+</div>","null","html-keyboard-response","43","97243","0.0-6.0-0.16","fixation","","","","",""
"1563.4149999823421","Stimuli/Hangul_M8.bmp","188","image-keyboard-response","44","98808","0.0-6.0-1.16","test",",","",",","",""
"null","<div style=""color:white; font-size:60px;"">+</div>","null","html-keyboard-response","45","99811","0.0-6.0-0.17","fixation","","","","",""
"1612.3999999836087","Stimuli/Hangul_F11.bmp","188","image-keyboard-response","46","101424","0.0-6.0-1.17","test",".","",",","",""
"null","<div style=""color:white; font-size:60px;"">+</div>","null","html-keyboard-response","47","102427","0.0-6.0-0.18","fixation","","","","",""
"1474.3699999526143","Stimuli/Hangul_M0.bmp","190","image-keyboard-response","48","103903","0.0-6.0-1.18","test",",","",".","",""
"null","<div style=""color:white; font-size:60px;"">+</div>","null","html-keyboard-response","49","104904","0.0-6.0-0.19","fixation","","","","",""
"1316.434999986086","Stimuli/Hangul_F18.bmp","190","image-keyboard-response","50","106222","0.0-6.0-1.19","test",".","",".","",""
"null","<div style=""color:white; font-size:60px;"">+</div>","null","html-keyboard-response","51","107224","0.0-6.0-0.20","fixation","","","","",""
"4678.895000019111","Stimuli/Hangul_F6.bmp","188","image-keyboard-response","52","111904","0.0-6.0-1.20","test",".","",",","",""
"null","<div style=""color:white; font-size:60px;"">+</div>","null","html-keyboard-response","53","112906","0.0-6.0-0.21","fixation","","","","",""
"1403.569999965839","Stimuli/Hangul_F22.bmp","188","image-keyboard-response","54","114311","0.0-6.0-1.21","test",".","",",","",""
"null","<div style=""color:white; font-size:60px;"">+</div>","null","html-keyboard-response","55","115314","0.0-6.0-0.22","fixation","","","","",""
"1596.0199999972247","Stimuli/Hangul_M20.bmp","188","image-keyboard-response","56","116911","0.0-6.0-1.22","test",",","",",","",""
"null","<div style=""color:white; font-size:60px;"">+</div>","null","html-keyboard-response","57","117912","0.0-6.0-0.23","fixation","","","","",""
"1207.4649999849498","Stimuli/Hangul_M22.bmp","188","image-keyboard-response","58","119120","0.0-6.0-1.23","test",",","",",","",""
"null","<div style=""color:white; font-size:60px;"">+</div>","null","html-keyboard-response","59","120123","0.0-6.0-0.24","fixation","","","","",""
"5443.624999956228","Stimuli/Hangul_M17.bmp","190","image-keyboard-response","60","125567","0.0-6.0-1.24","test",",","",".","",""
"null","<div style=""color:white; font-size:60px;"">+</div>","null","html-keyboard-response","61","126569","0.0-6.0-0.25","fixation","","","","",""
"4524.22000002116","Stimuli/Hangul_M19.bmp","190","image-keyboard-response","62","131096","0.0-6.0-1.25","test",",","",".","",""
"null","<div style=""color:white; font-size:60px;"">+</div>","null","html-keyboard-response","63","132098","0.0-6.0-0.26","fixation","","","","",""
"2001.9399999873713","Stimuli/Hangul_F20.bmp","188","image-keyboard-response","64","134101","0.0-6.0-1.26","test",".","",",","",""
"null","<div style=""color:white; font-size:60px;"">+</div>","null","html-keyboard-response","65","135103","0.0-6.0-0.27","fixation","","","","",""
"4486.305000027642","Stimuli/Hangul_F24.bmp","188","image-keyboard-response","66","139592","0.0-6.0-1.27","test",".","",",","",""
"null","<div style=""color:white; font-size:60px;"">+</div>","null","html-keyboard-response","67","140594","0.0-6.0-0.28","fixation","","","","",""
"2291.0850000334904","Stimuli/Hangul_F15.bmp","188","image-keyboard-response","68","142887","0.0-6.0-1.28","test",".","",",","",""
"null","<div style=""color:white; font-size:60px;"">+</div>","null","html-keyboard-response","69","143890","0.0-6.0-0.29","fixation","","","","",""
"1637.1950000175275","Stimuli/Hangul_F4.bmp","190","image-keyboard-response","70","145528","0.0-6.0-1.29","test",".","",".","",""
"null","<div style=""color:white; font-size:60px;"">+</div>","null","html-keyboard-response","71","146530","0.0-6.0-0.30","fixation","","","","",""
"5245.905000017956","Stimuli/Hangul_F7.bmp","188","image-keyboard-response","72","151777","0.0-6.0-1.30","test",".","",",","",""
"null","<div style=""color:white; font-size:60px;"">+</div>","null","html-keyboard-response","73","152781","0.0-6.0-0.31","fixation","","","","",""
"1687.145000032615","Stimuli/Hangul_F21.bmp","190","image-keyboard-response","74","154471","0.0-6.0-1.31","test",".","",".","",""
"null","<div style=""color:white; font-size:60px;"">+</div>","null","html-keyboard-response","75","155473","0.0-6.0-0.32","fixation","","","","",""
"1118.4150000335649","Stimuli/Hangul_F10.bmp","190","image-keyboard-response","76","156592","0.0-6.0-1.32","test",".","",".","",""
"null","<div style=""color:white; font-size:60px;"">+</div>","null","html-keyboard-response","77","157595","0.0-6.0-0.33","fixation","","","","",""
"1452.0299999858253","Stimuli/Hangul_M11.bmp","188","image-keyboard-response","78","159048","0.0-6.0-1.33","test",",","",",","",""
"null","<div style=""color:white; font-size:60px;"">+</div>","null","html-keyboard-response","79","160052","0.0-6.0-0.34","fixation","","","","",""
"4242.67000000691","Stimuli/Hangul_F19.bmp","190","image-keyboard-response","80","164295","0.0-6.0-1.34","test",".","",".","",""
"null","<div style=""color:white; font-size:60px;"">+</div>","null","html-keyboard-response","81","165297","0.0-6.0-0.35","fixation","","","","",""
"1180.0849999999627","Stimuli/Hangul_M14.bmp","188","image-keyboard-response","82","166479","0.0-6.0-1.35","test",",","",",","",""
"null","<div style=""color:white; font-size:60px;"">+</div>","null","html-keyboard-response","83","167482","0.0-6.0-0.36","fixation","","","","",""
"3803.9499999722466","Stimuli/Hangul_M1.bmp","188","image-keyboard-response","84","171287","0.0-6.0-1.36","test",",","",",","",""
"null","<div style=""color:white; font-size:60px;"">+</div>","null","html-keyboard-response","85","172289","0.0-6.0-0.37","fixation","","","","",""
"3492.87000001641","Stimuli/Hangul_M16.bmp","188","image-keyboard-response","86","175785","0.0-6.0-1.37","test",",","",",","",""
"null","<div style=""color:white; font-size:60px;"">+</div>","null","html-keyboard-response","87","176788","0.0-6.0-0.38","fixation","","","","",""
"1274.5050000376068","Stimuli/Hangul_M21.bmp","188","image-keyboard-response","88","178063","0.0-6.0-1.38","test",",","",",","",""
"null","<div style=""color:white; font-size:60px;"">+</div>","null","html-keyboard-response","89","179064","0.0-6.0-0.39","fixation","","","","",""
"3046.879999979865","Stimuli/Hangul_F12.bmp","188","image-keyboard-response","90","182112","0.0-6.0-1.39","test",".","",",","",""
"null","<div style=""color:white; font-size:60px;"">+</div>","null","html-keyboard-response","91","183116","0.0-6.0-0.40","fixation","","","","",""
"1698.0949999997392","Stimuli/Hangul_M4.bmp","188","image-keyboard-response","92","184815","0.0-6.0-1.40","test",",","",",","",""
"null","<div style=""color:white; font-size:60px;"">+</div>","null","html-keyboard-response","93","185816","0.0-6.0-0.41","fixation","","","","",""
"2469.4649999728426","Stimuli/Hangul_M12.bmp","188","image-keyboard-response","94","188287","0.0-6.0-1.41","test",",","",",","",""
"null","<div style=""color:white; font-size:60px;"">+</div>","null","html-keyboard-response","95","189291","0.0-6.0-0.42","fixation","","","","",""
"3980.3700000047684","Stimuli/Hangul_M2.bmp","188","image-keyboard-response","96","193272","0.0-6.0-1.42","test",",","",",","",""
"null","<div style=""color:white; font-size:60px;"">+</div>","null","html-keyboard-response","97","194276","0.0-6.0-0.43","fixation","","","","",""
"4090.0499999988824","Stimuli/Hangul_M18.bmp","188","image-keyboard-response","98","198368","0.0-6.0-1.43","test",",","",",","",""
"null","<div style=""color:white; font-size:60px;"">+</div>","null","html-keyboard-response","99","199372","0.0-6.0-0.44","fixation","","","","",""
"1474.3400000152178","Stimuli/Hangul_M13.bmp","188","image-keyboard-response","100","200847","0.0-6.0-1.44","test",",","",",","",""
"null","<div style=""color:white; font-size:60px;"">+</div>","null","html-keyboard-response","101","201848","0.0-6.0-0.45","fixation","","","","",""
"1494.5849999785423","Stimuli/Hangul_F3.bmp","188","image-keyboard-response","102","203343","0.0-6.0-1.45","test",".","",",","",""
"null","<div style=""color:white; font-size:60px;"">+</div>","null","html-keyboard-response","103","204346","0.0-6.0-0.46","fixation","","","","",""
"1340.8049999852665","Stimuli/Hangul_F5.bmp","188","image-keyboard-response","104","205688","0.0-6.0-1.46","test",".","",",","",""
"null","<div style=""color:white; font-size:60px;"">+</div>","null","html-keyboard-response","105","206690","0.0-6.0-0.47","fixation","","","","",""
"1179.625000047963","Stimuli/Hangul_M24.bmp","188","image-keyboard-response","106","207871","0.0-6.0-1.47","test",",","",",","",""
"null","<div style=""color:white; font-size:60px;"">+</div>","null","html-keyboard-response","107","208874","0.0-6.0-0.48","fixation","","","","",""
"6676.724999968428","Stimuli/Hangul_F17.bmp","188","image-keyboard-response","108","215551","0.0-6.0-1.48","test",".","",",","",""
"null","<div style=""color:white; font-size:60px;"">+</div>","null","html-keyboard-response","109","216554","0.0-6.0-0.49","fixation","","","","",""
"2516.3750000065193","Stimuli/Hangul_F9.bmp","188","image-keyboard-response","110","219072","0.0-6.0-1.49","test",".","",",","",""
"3220.499999995809","<p style=""color:white;"">Good job, block 1 complete! Please take a moment to rest.</p> <p style=""color:white;"">When you are ready to continue with block 2 of 4, press the space bar.</p> ","32","html-keyboard-response","111","222295","0.0-7.0","","","","","",""
"null","<div style=""color:white; font-size:60px;"">+</div>","null","html-keyboard-response","112","225298","0.0-8.0-0.0","fixation","","","","",""
"1228.7650000071153","Stimuli/Hangul_F37.bmp","190","image-keyboard-response","113","226528","0.0-8.0-1.0","test",".","",".","",""
"null","<div style=""color:white; font-size:60px;"">+</div>","null","html-keyboard-response","114","227529","0.0-8.0-0.1","fixation","","","","",""
"6341.75999998115","Stimuli/Hangul_F40.bmp","190","image-keyboard-response","115","233873","0.0-8.0-1.1","test",".","",".","",""
"null","<div style=""color:white; font-size:60px;"">+</div>","null","html-keyboard-response","116","234875","0.0-8.0-0.2","fixation","","","","",""
"4347.415000025649","Stimuli/Hangul_F39.bmp","190","image-keyboard-response","117","239225","0.0-8.0-1.2","test",".","",".","",""
"null","<div style=""color:white; font-size:60px;"">+</div>","null","html-keyboard-response","118","240228","0.0-8.0-0.3","fixation","","","","",""
"2227.0750000025146","Stimuli/Hangul_F47.bmp","188","image-keyboard-response","119","242457","0.0-8.0-1.3","test",".","",",","",""
"null","<div style=""color:white; font-size:60px;"">+</div>","null","html-keyboard-response","120","243460","0.0-8.0-0.4","fixation","","","","",""
"1449.7200000332668","Stimuli/Hangul_M42.bmp","188","image-keyboard-response","121","244914","0.0-8.0-1.4","test",",","",",","",""
"null","<div style=""color:white; font-size:60px;"">+</div>","null","html-keyboard-response","122","245918","0.0-8.0-0.5","fixation","","","","",""
"1473.1850000098348","Stimuli/Hangul_F42.bmp","190","image-keyboard-response","123","247392","0.0-8.0-1.5","test",".","",".","",""
"null","<div style=""color:white; font-size:60px;"">+</div>","null","html-keyboard-response","124","248394","0.0-8.0-0.6","fixation","","","","",""
"1446.4649999863468","Stimuli/Hangul_M35.bmp","188","image-keyboard-response","125","249841","0.0-8.0-1.6","test",",","",",","",""
"null","<div style=""color:white; font-size:60px;"">+</div>","null","html-keyboard-response","126","250845","0.0-8.0-0.7","fixation","","","","",""
"4514.094999991357","Stimuli/Hangul_M37.bmp","188","image-keyboard-response","127","255360","0.0-8.0-1.7","test",",","",",","",""
"null","<div style=""color:white; font-size:60px;"">+</div>","null","html-keyboard-response","128","256362","0.0-8.0-0.8","fixation","","","","",""
"1548.685000045225","Stimuli/Hangul_F35.bmp","188","image-keyboard-response","129","257912","0.0-8.0-1.8","test",".","",",","",""
"null","<div style=""color:white; font-size:60px;"">+</div>","null","html-keyboard-response","130","258915","0.0-8.0-0.9","fixation","","","","",""
"1916.0150000243448","Stimuli/Hangul_M32.bmp","188","image-keyboard-response","131","260832","0.0-8.0-1.9","test",",","",",","",""
"null","<div style=""color:white; font-size:60px;"">+</div>","null","html-keyboard-response","132","261835","0.0-8.0-0.10","fixation","","","","",""
"2797.179999994114","Stimuli/Hangul_F41.bmp","188","image-keyboard-response","133","264633","0.0-8.0-1.10","test",".","",",","",""
"null","<div style=""color:white; font-size:60px;"">+</div>","null","html-keyboard-response","134","265636","0.0-8.0-0.11","fixation","","","","",""
"1699.704999977257","Stimuli/Hangul_M31.bmp","190","image-keyboard-response","135","267337","0.0-8.0-1.11","test",",","",".","",""
"null","<div style=""color:white; font-size:60px;"">+</div>","null","html-keyboard-response","136","268340","0.0-8.0-0.12","fixation","","","","",""
"2116.3800000213087","Stimuli/Hangul_M48.bmp","188","image-keyboard-response","137","270457","0.0-8.0-1.12","test",",","",",","",""
"null","<div style=""color:white; font-size:60px;"">+</div>","null","html-keyboard-response","138","271459","0.0-8.0-0.13","fixation","","","","",""
"2451.7399999895133","Stimuli/Hangul_F48.bmp","188","image-keyboard-response","139","273912","0.0-8.0-1.13","test",".","",",","",""
"null","<div style=""color:white; font-size:60px;"">+</div>","null","html-keyboard-response","140","274913","0.0-8.0-0.14","fixation","","","","",""
"3093.5150000150315","Stimuli/Hangul_F34.bmp","190","image-keyboard-response","141","278008","0.0-8.0-1.14","test",".","",".","",""
"null","<div style=""color:white; font-size:60px;"">+</div>","null","html-keyboard-response","142","279010","0.0-8.0-0.15","fixation","","","","",""
"1299.4499999913387","Stimuli/Hangul_F25.bmp","188","image-keyboard-response","143","280312","0.0-8.0-1.15","test",".","",",","",""
"null","<div style=""color:white; font-size:60px;"">+</div>","null","html-keyboard-response","144","281315","0.0-8.0-0.16","fixation","","","","",""
"1158.670000033453","Stimuli/Hangul_M44.bmp","190","image-keyboard-response","145","282474","0.0-8.0-1.16","test",",","",".","",""
"null","<div style=""color:white; font-size:60px;"">+</div>","null","html-keyboard-response","146","283477","0.0-8.0-0.17","fixation","","","","",""
"1146.9200000283308","Stimuli/Hangul_F29.bmp","188","image-keyboard-response","147","284625","0.0-8.0-1.17","test",".","",",","",""
"null","<div style=""color:white; font-size:60px;"">+</div>","null","html-keyboard-response","148","285628","0.0-8.0-0.18","fixation","","","","",""
"900.0249999808148","Stimuli/Hangul_F28.bmp","188","image-keyboard-response","149","286528","0.0-8.0-1.18","test",".","",",","",""
"null","<div style=""color:white; font-size:60px;"">+</div>","null","html-keyboard-response","150","287530","0.0-8.0-0.19","fixation","","","","",""
"1140.369999979157","Stimuli/Hangul_M47.bmp","188","image-keyboard-response","151","288671","0.0-8.0-1.19","test",",","",",","",""
"null","<div style=""color:white; font-size:60px;"">+</div>","null","html-keyboard-response","152","289673","0.0-8.0-0.20","fixation","","","","",""
"1686.1200000275858","Stimuli/Hangul_M45.bmp","188","image-keyboard-response","153","291360","0.0-8.0-1.20","test",",","",",","",""
"null","<div style=""color:white; font-size:60px;"">+</div>","null","html-keyboard-response","154","292362","0.0-8.0-0.21","fixation","","","","",""
"2421.710000024177","Stimuli/Hangul_F31.bmp","190","image-keyboard-response","155","294784","0.0-8.0-1.21","test",".","",".","",""
"null","<div style=""color:white; font-size:60px;"">+</div>","null","html-keyboard-response","156","295786","0.0-8.0-0.22","fixation","","","","",""
"2980.03500001505","Stimuli/Hangul_F26.bmp","188","image-keyboard-response","157","298769","0.0-8.0-1.22","test",".","",",","",""
"null","<div style=""color:white; font-size:60px;"">+</div>","null","html-keyboard-response","158","299774","0.0-8.0-0.23","fixation","","","","",""
"1169.095000019297","Stimuli/Hangul_M41.bmp","188","image-keyboard-response","159","300945","0.0-8.0-1.23","test",",","",",","",""
"null","<div style=""color:white; font-size:60px;"">+</div>","null","html-keyboard-response","160","301948","0.0-8.0-0.24","fixation","","","","",""
"1370.8800000022165","Stimuli/Hangul_M39.bmp","188","image-keyboard-response","161","303321","0.0-8.0-1.24","test",",","",",","",""
"null","<div style=""color:white; font-size:60px;"">+</div>","null","html-keyboard-response","162","304323","0.0-8.0-0.25","fixation","","","","",""
"1365.1250000111759","Stimuli/Hangul_F43.bmp","188","image-keyboard-response","163","305689","0.0-8.0-1.25","test",".","",",","",""
"null","<div style=""color:white; font-size:60px;"">+</div>","null","html-keyboard-response","164","306690","0.0-8.0-0.26","fixation","","","","",""
"949.6799999615178","Stimuli/Hangul_M27.bmp","188","image-keyboard-response","165","307641","0.0-8.0-1.26","test",",","",",","",""
"null","<div style=""color:white; font-size:60px;"">+</div>","null","html-keyboard-response","166","308645","0.0-8.0-0.27","fixation","","","","",""
"1291.1350000067614","Stimuli/Hangul_F36.bmp","188","image-keyboard-response","167","309937","0.0-8.0-1.27","test",".","",",","",""
"null","<div style=""color:white; font-size:60px;"">+</div>","null","html-keyboard-response","168","310940","0.0-8.0-0.28","fixation","","","","",""
"1315.2899999986403","Stimuli/Hangul_F32.bmp","188","image-keyboard-response","169","312257","0.0-8.0-1.28","test",".","",",","",""
"null","<div style=""color:white; font-size:60px;"">+</div>","null","html-keyboard-response","170","313259","0.0-8.0-0.29","fixation","","","","",""
"1100.42999999132","Stimuli/Hangul_F49.bmp","188","image-keyboard-response","171","314360","0.0-8.0-1.29","test",".","",",","",""
"null","<div style=""color:white; font-size:60px;"">+</div>","null","html-keyboard-response","172","315362","0.0-8.0-0.30","fixation","","","","",""
"1661.9249999639578","Stimuli/Hangul_F44.bmp","188","image-keyboard-response","173","317025","0.0-8.0-1.30","test",".","",",","",""
"null","<div style=""color:white; font-size:60px;"">+</div>","null","html-keyboard-response","174","318028","0.0-8.0-0.31","fixation","","","","",""
"1764.7349999751896","Stimuli/Hangul_M34.bmp","188","image-keyboard-response","175","319794","0.0-8.0-1.31","test",",","",",","",""
"null","<div style=""color:white; font-size:60px;"">+</div>","null","html-keyboard-response","176","320796","0.0-8.0-0.32","fixation","","","","",""
"3194.8449999908917","Stimuli/Hangul_M49.bmp","190","image-keyboard-response","177","323993","0.0-8.0-1.32","test",",","",".","",""
"null","<div style=""color:white; font-size:60px;"">+</div>","null","html-keyboard-response","178","324995","0.0-8.0-0.33","fixation","","","","",""
"5500.37500000326","Stimuli/Hangul_F30.bmp","188","image-keyboard-response","179","330496","0.0-8.0-1.33","test",".","",",","",""
"null","<div style=""color:white; font-size:60px;"">+</div>","null","html-keyboard-response","180","331497","0.0-8.0-0.34","fixation","","","","",""
"6261.48500002455","Stimuli/Hangul_F46.bmp","188","image-keyboard-response","181","337760","0.0-8.0-1.34","test",".","",",","",""
"null","<div style=""color:white; font-size:60px;"">+</div>","null","html-keyboard-response","182","338764","0.0-8.0-0.35","fixation","","","","",""
"2827.8799999970943","Stimuli/Hangul_M28.bmp","188","image-keyboard-response","183","341593","0.0-8.0-1.35","test",",","",",","",""
"null","<div style=""color:white; font-size:60px;"">+</div>","null","html-keyboard-response","184","342595","0.0-8.0-0.36","fixation","","","","",""
"1388.6550000170246","Stimuli/Hangul_M38.bmp","188","image-keyboard-response","185","343985","0.0-8.0-1.36","test",",","",",","",""
"null","<div style=""color:white; font-size:60px;"">+</div>","null","html-keyboard-response","186","344988","0.0-8.0-0.37","fixation","","","","",""
"921.5449999901466","Stimuli/Hangul_M46.bmp","188","image-keyboard-response","187","345911","0.0-8.0-1.37","test",",","",",","",""
"null","<div style=""color:white; font-size:60px;"">+</div>","null","html-keyboard-response","188","346912","0.0-8.0-0.38","fixation","","","","",""
"398.38999998755753","Stimuli/Hangul_M36.bmp","188","image-keyboard-response","189","347312","0.0-8.0-1.38","test",",","",",","",""
"null","<div style=""color:white; font-size:60px;"">+</div>","null","html-keyboard-response","190","348314","0.0-8.0-0.39","fixation","","","","",""
"429.9700000556186","Stimuli/Hangul_F27.bmp","188","image-keyboard-response","191","348745","0.0-8.0-1.39","test",".","",",","",""
"null","<div style=""color:white; font-size:60px;"">+</div>","null","html-keyboard-response","192","349753","0.0-8.0-0.40","fixation","","","","",""
"318.3650000137277","Stimuli/Hangul_M40.bmp","188","image-keyboard-response","193","350073","0.0-8.0-1.40","test",",","",",","",""
"null","<div style=""color:white; font-size:60px;"">+</div>","null","html-keyboard-response","194","351075","0.0-8.0-0.41","fixation","","","","",""
"332.494999980554","Stimuli/Hangul_F45.bmp","188","image-keyboard-response","195","351408","0.0-8.0-1.41","test",".","",",","",""
"null","<div style=""color:white; font-size:60px;"">+</div>","null","html-keyboard-response","196","352410","0.0-8.0-0.42","fixation","","","","",""
"157.98000001814216","Stimuli/Hangul_F38.bmp","188","image-keyboard-response","197","352570","0.0-8.0-1.42","test",".","",",","",""
"null","<div style=""color:white; font-size:60px;"">+</div>","null","html-keyboard-response","198","353571","0.0-8.0-0.43","fixation","","","","",""
"260.0449999445118","Stimuli/Hangul_M33.bmp","188","image-keyboard-response","199","353833","0.0-8.0-1.43","test",",","",",","",""
"null","<div style=""color:white; font-size:60px;"">+</div>","null","html-keyboard-response","200","354835","0.0-8.0-0.44","fixation","","","","",""
"491.0950000048615","Stimuli/Hangul_M26.bmp","188","image-keyboard-response","201","355328","0.0-8.0-1.44","test",",","",",","",""
"null","<div style=""color:white; font-size:60px;"">+</div>","null","html-keyboard-response","202","356329","0.0-8.0-0.45","fixation","","","","",""
"839.6450000000186","Stimuli/Hangul_M43.bmp","188","image-keyboard-response","203","357170","0.0-8.0-1.45","test",",","",",","",""
"null","<div style=""color:white; font-size:60px;"">+</div>","null","html-keyboard-response","204","358173","0.0-8.0-0.46","fixation","","","","",""
"113.49499999778345","Stimuli/Hangul_M25.bmp","188","image-keyboard-response","205","358287","0.0-8.0-1.46","test",",","",",","",""
"null","<div style=""color:white; font-size:60px;"">+</div>","null","html-keyboard-response","206","359289","0.0-8.0-0.47","fixation","","","","",""
"70.9900000365451","Stimuli/Hangul_M29.bmp","188","image-keyboard-response","207","359361","0.0-8.0-1.47","test",",","",",","",""
"null","<div style=""color:white; font-size:60px;"">+</div>","null","html-keyboard-response","208","360362","0.0-8.0-0.48","fixation","","","","",""
"236.71999998623505","Stimuli/Hangul_M30.bmp","190","image-keyboard-response","209","360600","0.0-8.0-1.48","test",",","",".","",""
"null","<div style=""color:white; font-size:60px;"">+</div>","null","html-keyboard-response","210","361602","0.0-8.0-0.49","fixation","","","","",""
"229.51500001363456","Stimuli/Hangul_F33.bmp","188","image-keyboard-response","211","361832","0.0-8.0-1.49","test",".","",",","",""
"6903.0849999981","<p style=""color:white;"">Half way there! Please take a moment to rest.</p> <p style=""color:white;"">When you are ready to continue with block 3 of 4, press the space bar.</p> ","32","html-keyboard-response","212","368736","0.0-9.0","","","","","",""
"null","<div style=""color:white; font-size:60px;"">+</div>","null","html-keyboard-response","213","371740","0.0-10.0-0.0","fixation","","","","",""
"4339.210000005551","Stimuli/Hangul_M71.bmp","188","image-keyboard-response","214","376082","0.0-10.0-1.0","test",",","",",","",""
"null","<div style=""color:white; font-size:60px;"">+</div>","null","html-keyboard-response","215","377084","0.0-10.0-0.1","fixation","","","","",""
"2538.025000016205","Stimuli/Hangul_M60.bmp","188","image-keyboard-response","216","379624","0.0-10.0-1.1","test",",","",",","",""
"null","<div style=""color:white; font-size:60px;"">+</div>","null","html-keyboard-response","217","380627","0.0-10.0-0.2","fixation","","","","",""
"594.6450000046752","Stimuli/Hangul_M56.bmp","190","image-keyboard-response","218","381224","0.0-10.0-1.2","test",",","",".","",""
"null","<div style=""color:white; font-size:60px;"">+</div>","null","html-keyboard-response","219","382225","0.0-10.0-0.3","fixation","","","","",""
"558.1799999927171","Stimuli/Hangul_F72.bmp","190","image-keyboard-response","220","382784","0.0-10.0-1.3","test",".","",".","",""
"null","<div style=""color:white; font-size:60px;"">+</div>","null","html-keyboard-response","221","383789","0.0-10.0-0.4","fixation","","","","",""
"649.9150000163354","Stimuli/Hangul_F63.bmp","190","image-keyboard-response","222","384440","0.0-10.0-1.4","test",".","",".","",""
"null","<div style=""color:white; font-size:60px;"">+</div>","null","html-keyboard-response","223","385441","0.0-10.0-0.5","fixation","","","","",""
"77829.78999998886","Stimuli/Hangul_M67.bmp","190","image-keyboard-response","224","463273","0.0-10.0-1.5","test",",","",".","",""
"null","<div style=""color:white; font-size:60px;"">+</div>","null","html-keyboard-response","225","464274","0.0-10.0-0.6","fixation","","","","",""
"3892.9149999748915","Stimuli/Hangul_F74.bmp","188","image-keyboard-response","226","468168","0.0-10.0-1.6","test",".","",",","",""
"null","<div style=""color:white; font-size:60px;"">+</div>","null","html-keyboard-response","227","469171","0.0-10.0-0.7","fixation","","","","",""
"10300.779999990482","Stimuli/Hangul_M69.bmp","188","image-keyboard-response","228","479474","0.0-10.0-1.7","test",",","",",","",""
"null","<div style=""color:white; font-size:60px;"">+</div>","null","html-keyboard-response","229","480476","0.0-10.0-0.8","fixation","","","","",""
"1250.4750000080094","Stimuli/Hangul_F68.bmp","188","image-keyboard-response","230","481728","0.0-10.0-1.8","test",".","",",","",""
"null","<div style=""color:white; font-size:60px;"">+</div>","null","html-keyboard-response","231","482730","0.0-10.0-0.9","fixation","","","","",""
"645.6449999823235","Stimuli/Hangul_F70.bmp","188","image-keyboard-response","232","483376","0.0-10.0-1.9","test",".","",",","",""
"null","<div style=""color:white; font-size:60px;"">+</div>","null","html-keyboard-response","233","484378","0.0-10.0-0.10","fixation","","","","",""
"542.2399999806657","Stimuli/Hangul_M66.bmp","188","image-keyboard-response","234","484921","0.0-10.0-1.10","test",",","",",","",""
"null","<div style=""color:white; font-size:60px;"">+</div>","null","html-keyboard-response","235","485924","0.0-10.0-0.11","fixation","","","","",""
"428.49500000011176","Stimuli/Hangul_F69.bmp","188","image-keyboard-response","236","486353","0.0-10.0-1.11","test",".","",",","",""
"null","<div style=""color:white; font-size:60px;"">+</div>","null","html-keyboard-response","237","487355","0.0-10.0-0.12","fixation","","","","",""
"4453.669999958947","Stimuli/Hangul_F54.bmp","188","image-keyboard-response","238","491809","0.0-10.0-1.12","test",".","",",","",""
"null","<div style=""color:white; font-size:60px;"">+</div>","null","html-keyboard-response","239","492811","0.0-10.0-0.13","fixation","","","","",""
"147.51999999862164","Stimuli/Hangul_M72.bmp","188","image-keyboard-response","240","492960","0.0-10.0-1.13","test",",","",",","",""
"null","<div style=""color:white; font-size:60px;"">+</div>","null","html-keyboard-response","241","493962","0.0-10.0-0.14","fixation","","","","",""
"30.685000005178154","Stimuli/Hangul_M65.bmp","188","image-keyboard-response","242","493994","0.0-10.0-1.14","test",",","",",","",""
"null","<div style=""color:white; font-size:60px;"">+</div>","null","html-keyboard-response","243","494996","0.0-10.0-0.15","fixation","","","","",""
"100.52499995799735","Stimuli/Hangul_M61.bmp","188","image-keyboard-response","244","495098","0.0-10.0-1.15","test",",","",",","",""
"null","<div style=""color:white; font-size:60px;"">+</div>","null","html-keyboard-response","245","496101","0.0-10.0-0.16","fixation","","","","",""
"115.74999999720603","Stimuli/Hangul_M50.bmp","188","image-keyboard-response","246","496217","0.0-10.0-1.16","test",",","",",","",""
"null","<div style=""color:white; font-size:60px;"">+</div>","null","html-keyboard-response","247","497219","0.0-10.0-0.17","fixation","","","","",""
"147.77999999932945","Stimuli/Hangul_F66.bmp","188","image-keyboard-response","248","497368","0.0-10.0-1.17","test",".","",",","",""
"null","<div style=""color:white; font-size:60px;"">+</div>","null","html-keyboard-response","249","498369","0.0-10.0-0.18","fixation","","","","",""
"85.07500000996515","Stimuli/Hangul_F59.bmp","188","image-keyboard-response","250","498456","0.0-10.0-1.18","test",".","",",","",""
"null","<div style=""color:white; font-size:60px;"">+</div>","null","html-keyboard-response","251","499459","0.0-10.0-0.19","fixation","","","","",""
"3092.9550000000745","Stimuli/Hangul_M51.bmp","188","image-keyboard-response","252","502553","0.0-10.0-1.19","test",",","",",","",""
"null","<div style=""color:white; font-size:60px;"">+</div>","null","html-keyboard-response","253","503554","0.0-10.0-0.20","fixation","","","","",""
"9588.924999989104","Stimuli/Hangul_M70.bmp","190","image-keyboard-response","254","513146","0.0-10.0-1.20","test",",","",".","",""
"null","<div style=""color:white; font-size:60px;"">+</div>","null","html-keyboard-response","255","514150","0.0-10.0-0.21","fixation","","","","",""
"513.5049999807961","Stimuli/Hangul_M55.bmp","190","image-keyboard-response","256","514665","0.0-10.0-1.21","test",",","",".","",""
"null","<div style=""color:white; font-size:60px;"">+</div>","null","html-keyboard-response","257","515667","0.0-10.0-0.22","fixation","","","","",""
"115.6599999521859","Stimuli/Hangul_F60.bmp","188","image-keyboard-response","258","515784","0.0-10.0-1.22","test",".","",",","",""
"null","<div style=""color:white; font-size:60px;"">+</div>","null","html-keyboard-response","259","516786","0.0-10.0-0.23","fixation","","","","",""
"149.36499996110797","Stimuli/Hangul_M63.bmp","190","image-keyboard-response","260","516936","0.0-10.0-1.23","test",",","",".","",""
"null","<div style=""color:white; font-size:60px;"">+</div>","null","html-keyboard-response","261","517938","0.0-10.0-0.24","fixation","","","","",""
"69.38000000081956","Stimuli/Hangul_M54.bmp","188","image-keyboard-response","262","518008","0.0-10.0-1.24","test",",","",",","",""
"null","<div style=""color:white; font-size:60px;"">+</div>","null","html-keyboard-response","263","519010","0.0-10.0-0.25","fixation","","","","",""
"13.694999972358346","Stimuli/Hangul_F52.bmp","190","image-keyboard-response","264","519025","0.0-10.0-1.25","test",".","",".","",""
"null","<div style=""color:white; font-size:60px;"">+</div>","null","html-keyboard-response","265","520027","0.0-10.0-0.26","fixation","","","","",""
"189.90499997744337","Stimuli/Hangul_M73.bmp","188","image-keyboard-response","266","520218","0.0-10.0-1.26","test",",","",",","",""
"null","<div style=""color:white; font-size:60px;"">+</div>","null","html-keyboard-response","267","521220","0.0-10.0-0.27","fixation","","","","",""
"963.8050000066869","Stimuli/Hangul_M68.bmp","190","image-keyboard-response","268","522185","0.0-10.0-1.27","test",",","",".","",""
"null","<div style=""color:white; font-size:60px;"">+</div>","null","html-keyboard-response","269","523187","0.0-10.0-0.28","fixation","","","","",""
"958.295000018552","Stimuli/Hangul_F64.bmp","188","image-keyboard-response","270","524147","0.0-10.0-1.28","test",".","",",","",""
"null","<div style=""color:white; font-size:60px;"">+</div>","null","html-keyboard-response","271","525149","0.0-10.0-0.29","fixation","","","","",""
"404.36500002397224","Stimuli/Hangul_F50.bmp","188","image-keyboard-response","272","525554","0.0-10.0-1.29","test",".","",",","",""
"null","<div style=""color:white; font-size:60px;"">+</div>","null","html-keyboard-response","273","526555","0.0-10.0-0.30","fixation","","","","",""
"286.919999984093","Stimuli/Hangul_F73.bmp","188","image-keyboard-response","274","526843","0.0-10.0-1.30","test",".","",",","",""
"null","<div style=""color:white; font-size:60px;"">+</div>","null","html-keyboard-response","275","527845","0.0-10.0-0.31","fixation","","","","",""
"96.71500005060807","Stimuli/Hangul_F55.bmp","188","image-keyboard-response","276","527943","0.0-10.0-1.31","test",".","",",","",""
"null","<div style=""color:white; font-size:60px;"">+</div>","null","html-keyboard-response","277","528946","0.0-10.0-0.32","fixation","","","","",""
"157.28499996475875","Stimuli/Hangul_M57.bmp","188","image-keyboard-response","278","529104","0.0-10.0-1.32","test",",","",",","",""
"null","<div style=""color:white; font-size:60px;"">+</div>","null","html-keyboard-response","279","530105","0.0-10.0-0.33","fixation","","","","",""
"165.68999999435619","Stimuli/Hangul_F61.bmp","188","image-keyboard-response","280","530272","0.0-10.0-1.33","test",".","",",","",""
"null","<div style=""color:white; font-size:60px;"">+</div>","null","html-keyboard-response","281","531275","0.0-10.0-0.34","fixation","","","","",""
"660.6900000479072","Stimuli/Hangul_F51.bmp","190","image-keyboard-response","282","531936","0.0-10.0-1.34","test",".","",".","",""
"null","<div style=""color:white; font-size:60px;"">+</div>","null","html-keyboard-response","283","532939","0.0-10.0-0.35","fixation","","","","",""
"1150.9599999990314","Stimuli/Hangul_M53.bmp","188","image-keyboard-response","284","534091","0.0-10.0-1.35","test",",","",",","",""
"null","<div style=""color:white; font-size:60px;"">+</div>","null","html-keyboard-response","285","535094","0.0-10.0-0.36","fixation","","","","",""
"201.6650000005029","Stimuli/Hangul_F67.bmp","188","image-keyboard-response","286","535296","0.0-10.0-1.36","test",".","",",","",""
"null","<div style=""color:white; font-size:60px;"">+</div>","null","html-keyboard-response","287","536298","0.0-10.0-0.37","fixation","","","","",""
"821.3049999903888","Stimuli/Hangul_M62.bmp","188","image-keyboard-response","288","537120","0.0-10.0-1.37","test",",","",",","",""
"null","<div style=""color:white; font-size:60px;"">+</div>","null","html-keyboard-response","289","538123","0.0-10.0-0.38","fixation","","","","",""
"60.87499996647239","Stimuli/Hangul_M59.bmp","188","image-keyboard-response","290","538184","0.0-10.0-1.38","test",",","",",","",""
"null","<div style=""color:white; font-size:60px;"">+</div>","null","html-keyboard-response","291","539186","0.0-10.0-0.39","fixation","","","","",""
"197.90999998804182","Stimuli/Hangul_F65.bmp","188","image-keyboard-response","292","539385","0.0-10.0-1.39","test",".","",",","",""
"null","<div style=""color:white; font-size:60px;"">+</div>","null","html-keyboard-response","293","540388","0.0-10.0-0.40","fixation","","","","",""
"210.78999998280779","Stimuli/Hangul_F56.bmp","190","image-keyboard-response","294","540601","0.0-10.0-1.40","test",".","",".","",""
"null","<div style=""color:white; font-size:60px;"">+</div>","null","html-keyboard-response","295","541603","0.0-10.0-0.41","fixation","","","","",""
"173.1949999812059","Stimuli/Hangul_F62.bmp","188","image-keyboard-response","296","541777","0.0-10.0-1.41","test",".","",",","",""
"null","<div style=""color:white; font-size:60px;"">+</div>","null","html-keyboard-response","297","542780","0.0-10.0-0.42","fixation","","","","",""
"10.899999993853271","Stimuli/Hangul_M74.bmp","188","image-keyboard-response","298","542793","0.0-10.0-1.42","test",",","",",","",""
"null","<div style=""color:white; font-size:60px;"">+</div>","null","html-keyboard-response","299","543796","0.0-10.0-0.43","fixation","","","","",""
"225.25499999755993","Stimuli/Hangul_F53.bmp","188","image-keyboard-response","300","544025","0.0-10.0-1.43","test",".","",",","",""
"null","<div style=""color:white; font-size:60px;"">+</div>","null","html-keyboard-response","301","545029","0.0-10.0-0.44","fixation","","","","",""
"242.33999999705702","Stimuli/Hangul_F57.bmp","188","image-keyboard-response","302","545273","0.0-10.0-1.44","test",".","",",","",""
"null","<div style=""color:white; font-size:60px;"">+</div>","null","html-keyboard-response","303","546275","0.0-10.0-0.45","fixation","","","","",""
"211.98500000173226","Stimuli/Hangul_F58.bmp","188","image-keyboard-response","304","546488","0.0-10.0-1.45","test",".","",",","",""
"null","<div style=""color:white; font-size:60px;"">+</div>","null","html-keyboard-response","305","547490","0.0-10.0-0.46","fixation","","","","",""
"230.53499998059124","Stimuli/Hangul_M58.bmp","188","image-keyboard-response","306","547722","0.0-10.0-1.46","test",",","",",","",""
"null","<div style=""color:white; font-size:60px;"">+</div>","null","html-keyboard-response","307","548724","0.0-10.0-0.47","fixation","","","","",""
"251.50499999290332","Stimuli/Hangul_M64.bmp","190","image-keyboard-response","308","548976","0.0-10.0-1.47","test",",","",".","",""
"null","<div style=""color:white; font-size:60px;"">+</div>","null","html-keyboard-response","309","549978","0.0-10.0-0.48","fixation","","","","",""
"205.4950000019744","Stimuli/Hangul_F71.bmp","190","image-keyboard-response","310","550185","0.0-10.0-1.48","test",".","",".","",""
"null","<div style=""color:white; font-size:60px;"">+</div>","null","html-keyboard-response","311","551187","0.0-10.0-0.49","fixation","","","","",""
"2333.3049999782816","Stimuli/Hangul_M52.bmp","188","image-keyboard-response","312","553521","0.0-10.0-1.49","test",",","",",","",""
"1487.1450000209734","<p style=""color:white;"">One more block to go! Please take a moment to rest.</p> <p style=""color:white;"">When you are ready to continue with block 4 of 4, press the space bar.</p> ","32","html-keyboard-response","313","555009","0.0-11.0","","","","","",""
"null","<div style=""color:white; font-size:60px;"">+</div>","null","html-keyboard-response","314","558013","0.0-12.0-0.0","fixation","","","","",""
"427.03000002074987","Stimuli/Hangul_M85.bmp","188","image-keyboard-response","315","558441","0.0-12.0-1.0","test",",","",",","",""
"null","<div style=""color:white; font-size:60px;"">+</div>","null","html-keyboard-response","316","559442","0.0-12.0-0.1","fixation","","","","",""
"13.46500002546236","Stimuli/Hangul_F78.bmp","188","image-keyboard-response","317","559456","0.0-12.0-1.1","test",".","",",","",""
"null","<div style=""color:white; font-size:60px;"">+</div>","null","html-keyboard-response","318","560458","0.0-12.0-0.2","fixation","","","","",""
"773.8450000179","Stimuli/Hangul_M91.bmp","188","image-keyboard-response","319","561233","0.0-12.0-1.2","test",",","",",","",""
"null","<div style=""color:white; font-size:60px;"">+</div>","null","html-keyboard-response","320","562236","0.0-12.0-0.3","fixation","","","","",""
"428.4400000469759","Stimuli/Hangul_M80.bmp","188","image-keyboard-response","321","562666","0.0-12.0-1.3","test",",","",",","",""
"null","<div style=""color:white; font-size:60px;"">+</div>","null","html-keyboard-response","322","563669","0.0-12.0-0.4","fixation","","","","",""
"482.10500000277534","Stimuli/Hangul_F83.bmp","188","image-keyboard-response","323","564152","0.0-12.0-1.4","test",".","",",","",""
"null","<div style=""color:white; font-size:60px;"">+</div>","null","html-keyboard-response","324","565154","0.0-12.0-0.5","fixation","","","","",""
"102.1900000050664","Stimuli/Hangul_M96.bmp","190","image-keyboard-response","325","565257","0.0-12.0-1.5","test",",","",".","",""
"null","<div style=""color:white; font-size:60px;"">+</div>","null","html-keyboard-response","326","566259","0.0-12.0-0.6","fixation","","","","",""
"28.014999988954514","Stimuli/Hangul_F89.bmp","190","image-keyboard-response","327","566288","0.0-12.0-1.6","test",".","",".","",""
"null","<div style=""color:white; font-size:60px;"">+</div>","null","html-keyboard-response","328","567289","0.0-12.0-0.7","fixation","","","","",""
"30.55500000482425","Stimuli/Hangul_F79.bmp","190","image-keyboard-response","329","567321","0.0-12.0-1.7","test",".","",".","",""
"null","<div style=""color:white; font-size:60px;"">+</div>","null","html-keyboard-response","330","568324","0.0-12.0-0.8","fixation","","","","",""
"12.014999985694885","Stimuli/Hangul_F94.bmp","190","image-keyboard-response","331","568336","0.0-12.0-1.8","test",".","",".","",""
"null","<div style=""color:white; font-size:60px;"">+</div>","null","html-keyboard-response","332","569338","0.0-12.0-0.9","fixation","","","","",""
"203.13999999780208","Stimuli/Hangul_F86.bmp","190","image-keyboard-response","333","569544","0.0-12.0-1.9","test",".","",".","",""
"null","<div style=""color:white; font-size:60px;"">+</div>","null","html-keyboard-response","334","570546","0.0-12.0-0.10","fixation","","","","",""
"5.879999953322113","Stimuli/Hangul_M99.bmp","188","image-keyboard-response","335","570554","0.0-12.0-1.10","test",",","",",","",""
"null","<div style=""color:white; font-size:60px;"">+</div>","null","html-keyboard-response","336","571556","0.0-12.0-0.11","fixation","","","","",""
"564.0150000108406","Stimuli/Hangul_F92.bmp","188","image-keyboard-response","337","572122","0.0-12.0-1.11","test",".","",",","",""
"null","<div style=""color:white; font-size:60px;"">+</div>","null","html-keyboard-response","338","573124","0.0-12.0-0.12","fixation","","","","",""
"235.8900000108406","Stimuli/Hangul_F82.bmp","188","image-keyboard-response","339","573361","0.0-12.0-1.12","test",".","",",","",""
"null","<div style=""color:white; font-size:60px;"">+</div>","null","html-keyboard-response","340","574363","0.0-12.0-0.13","fixation","","","","",""
"68.57000000309199","Stimuli/Hangul_M89.bmp","188","image-keyboard-response","341","574432","0.0-12.0-1.13","test",",","",",","",""
"null","<div style=""color:white; font-size:60px;"">+</div>","null","html-keyboard-response","342","575435","0.0-12.0-0.14","fixation","","","","",""
"253.25000000884756","Stimuli/Hangul_M88.bmp","188","image-keyboard-response","343","575689","0.0-12.0-1.14","test",",","",",","",""
"null","<div style=""color:white; font-size:60px;"">+</div>","null","html-keyboard-response","344","576691","0.0-12.0-0.15","fixation","","","","",""
"2668.2849999633618","Stimuli/Hangul_F99.bmp","188","image-keyboard-response","345","579360","0.0-12.0-1.15","test",".","",",","",""
"null","<div style=""color:white; font-size:60px;"">+</div>","null","html-keyboard-response","346","580362","0.0-12.0-0.16","fixation","","","","",""
"21.364999993238598","Stimuli/Hangul_M82.bmp","188","image-keyboard-response","347","580385","0.0-12.0-1.16","test",",","",",","",""
"null","<div style=""color:white; font-size:60px;"">+</div>","null","html-keyboard-response","348","581387","0.0-12.0-0.17","fixation","","","","",""
"259.6899999771267","Stimuli/Hangul_M75.bmp","188","image-keyboard-response","349","581648","0.0-12.0-1.17","test",",","",",","",""
"null","<div style=""color:white; font-size:60px;"">+</div>","null","html-keyboard-response","350","582651","0.0-12.0-0.18","fixation","","","","",""
"349.8050000052899","Stimuli/Hangul_M87.bmp","188","image-keyboard-response","351","583002","0.0-12.0-1.18","test",",","",",","",""
"null","<div style=""color:white; font-size:60px;"">+</div>","null","html-keyboard-response","352","584004","0.0-12.0-0.19","fixation","","","","",""
"90.81000002333894","Stimuli/Hangul_F97.bmp","190","image-keyboard-response","353","584096","0.0-12.0-1.19","test",".","",".","",""
"null","<div style=""color:white; font-size:60px;"">+</div>","null","html-keyboard-response","354","585097","0.0-12.0-0.20","fixation","","","","",""
"117.96499998308718","Stimuli/Hangul_M76.bmp","188","image-keyboard-response","355","585216","0.0-12.0-1.20","test",",","",",","",""
"null","<div style=""color:white; font-size:60px;"">+</div>","null","html-keyboard-response","356","586218","0.0-12.0-0.21","fixation","","","","",""
"941.7900000116788","Stimuli/Hangul_M78.bmp","188","image-keyboard-response","357","587161","0.0-12.0-1.21","test",",","",",","",""
"null","<div style=""color:white; font-size:60px;"">+</div>","null","html-keyboard-response","358","588164","0.0-12.0-0.22","fixation","","","","",""
"715.0000000256114","Stimuli/Hangul_M79.bmp","188","image-keyboard-response","359","588880","0.0-12.0-1.22","test",",","",",","",""
"null","<div style=""color:white; font-size:60px;"">+</div>","null","html-keyboard-response","360","589883","0.0-12.0-0.23","fixation","","","","",""
"147.18000002903864","Stimuli/Hangul_F76.bmp","188","image-keyboard-response","361","590032","0.0-12.0-1.23","test",".","",",","",""
"null","<div style=""color:white; font-size:60px;"">+</div>","null","html-keyboard-response","362","591034","0.0-12.0-0.24","fixation","","","","",""
"110.58500001672655","Stimuli/Hangul_M84.bmp","188","image-keyboard-response","363","591146","0.0-12.0-1.24","test",",","",",","",""
"null","<div style=""color:white; font-size:60px;"">+</div>","null","html-keyboard-response","364","592149","0.0-12.0-0.25","fixation","","","","",""
"699.9400000204332","Stimuli/Hangul_M93.bmp","188","image-keyboard-response","365","592849","0.0-12.0-1.25","test",",","",",","",""
"null","<div style=""color:white; font-size:60px;"">+</div>","null","html-keyboard-response","366","593851","0.0-12.0-0.26","fixation","","","","",""
"348.33999996772036","Stimuli/Hangul_F93.bmp","188","image-keyboard-response","367","594200","0.0-12.0-1.26","test",".","",",","",""
"null","<div style=""color:white; font-size:60px;"">+</div>","null","html-keyboard-response","368","595203","0.0-12.0-0.27","fixation","","","","",""
"285.5499999714084","Stimuli/Hangul_F88.bmp","190","image-keyboard-response","369","595490","0.0-12.0-1.27","test",".","",".","",""
"null","<div style=""color:white; font-size:60px;"">+</div>","null","html-keyboard-response","370","596492","0.0-12.0-0.28","fixation","","","","",""
"123.554999998305","Stimuli/Hangul_F96.bmp","188","image-keyboard-response","371","596617","0.0-12.0-1.28","test",".","",",","",""
"null","<div style=""color:white; font-size:60px;"">+</div>","null","html-keyboard-response","372","597619","0.0-12.0-0.29","fixation","","","","",""
"5.635000008624047","Stimuli/Hangul_F90.bmp","188","image-keyboard-response","373","597625","0.0-12.0-1.29","test",".","",",","",""
"null","<div style=""color:white; font-size:60px;"">+</div>","null","html-keyboard-response","374","598628","0.0-12.0-0.30","fixation","","","","",""
"219.17499997653067","Stimuli/Hangul_M98.bmp","188","image-keyboard-response","375","598849","0.0-12.0-1.30","test",",","",",","",""
"null","<div style=""color:white; font-size:60px;"">+</div>","null","html-keyboard-response","376","599851","0.0-12.0-0.31","fixation","","","","",""
"12.780000048223883","Stimuli/Hangul_F75.bmp","188","image-keyboard-response","377","599865","0.0-12.0-1.31","test",".","",",","",""
"null","<div style=""color:white; font-size:60px;"">+</div>","null","html-keyboard-response","378","600868","0.0-12.0-0.32","fixation","","","","",""
"179.7050000168383","Stimuli/Hangul_M81.bmp","188","image-keyboard-response","379","601049","0.0-12.0-1.32","test",",","",",","",""
"null","<div style=""color:white; font-size:60px;"">+</div>","null","html-keyboard-response","380","602051","0.0-12.0-0.33","fixation","","","","",""
"309.76500001270324","Stimuli/Hangul_F95.bmp","188","image-keyboard-response","381","602362","0.0-12.0-1.33","test",".","",",","",""
"null","<div style=""color:white; font-size:60px;"">+</div>","null","html-keyboard-response","382","603363","0.0-12.0-0.34","fixation","","","","",""
"92.40999998291954","Stimuli/Hangul_M86.bmp","188","image-keyboard-response","383","603457","0.0-12.0-1.34","test",",","",",","",""
"null","<div style=""color:white; font-size:60px;"">+</div>","null","html-keyboard-response","384","604459","0.0-12.0-0.35","fixation","","","","",""
"44.56499998923391","Stimuli/Hangul_M77.bmp","190","image-keyboard-response","385","604505","0.0-12.0-1.35","test",",","",".","",""
"null","<div style=""color:white; font-size:60px;"">+</div>","null","html-keyboard-response","386","605507","0.0-12.0-0.36","fixation","","","","",""
"116.18999997153878","Stimuli/Hangul_F98.bmp","188","image-keyboard-response","387","605625","0.0-12.0-1.36","test",".","",",","",""
"null","<div style=""color:white; font-size:60px;"">+</div>","null","html-keyboard-response","388","606627","0.0-12.0-0.37","fixation","","","","",""
"229.73500000080094","Stimuli/Hangul_F87.bmp","188","image-keyboard-response","389","606858","0.0-12.0-1.37","test",".","",",","",""
"null","<div style=""color:white; font-size:60px;"">+</div>","null","html-keyboard-response","390","607861","0.0-12.0-0.38","fixation","","","","",""
"66.86999998055398","Stimuli/Hangul_M97.bmp","188","image-keyboard-response","391","607929","0.0-12.0-1.38","test",",","",",","",""
"null","<div style=""color:white; font-size:60px;"">+</div>","null","html-keyboard-response","392","608931","0.0-12.0-0.39","fixation","","","","",""
"108.59999997774139","Stimuli/Hangul_M95.bmp","190","image-keyboard-response","393","609041","0.0-12.0-1.39","test",",","",".","",""
"null","<div style=""color:white; font-size:60px;"">+</div>","null","html-keyboard-response","394","610044","0.0-12.0-0.40","fixation","","","","",""
"292.40500001469627","Stimuli/Hangul_F80.bmp","188","image-keyboard-response","395","610338","0.0-12.0-1.40","test",".","",",","",""
"null","<div style=""color:white; font-size:60px;"">+</div>","null","html-keyboard-response","396","611340","0.0-12.0-0.41","fixation","","","","",""
"43.800000043120235","Stimuli/Hangul_M83.bmp","190","image-keyboard-response","397","611385","0.0-12.0-1.41","test",",","",".","",""
"null","<div style=""color:white; font-size:60px;"">+</div>","null","html-keyboard-response","398","612387","0.0-12.0-0.42","fixation","","","","",""
"149.0600000252016","Stimuli/Hangul_F77.bmp","188","image-keyboard-response","399","612538","0.0-12.0-1.42","test",".","",",","",""
"null","<div style=""color:white; font-size:60px;"">+</div>","null","html-keyboard-response","400","613541","0.0-12.0-0.43","fixation","","","","",""
"18.715000012889504","Stimuli/Hangul_F81.bmp","190","image-keyboard-response","401","613561","0.0-12.0-1.43","test",".","",".","",""
"null","<div style=""color:white; font-size:60px;"">+</div>","null","html-keyboard-response","402","614564","0.0-12.0-0.44","fixation","","","","",""
"252.4950000224635","Stimuli/Hangul_F84.bmp","188","image-keyboard-response","403","614817","0.0-12.0-1.44","test",".","",",","",""
"null","<div style=""color:white; font-size:60px;"">+</div>","null","html-keyboard-response","404","615819","0.0-12.0-0.45","fixation","","","","",""
"4556.3250000122935","Stimuli/Hangul_M90.bmp","190","image-keyboard-response","405","620376","0.0-12.0-1.45","test",",","",".","",""
"null","<div style=""color:white; font-size:60px;"">+</div>","null","html-keyboard-response","406","621377","0.0-12.0-0.46","fixation","","","","",""
"1046.3599999784492","Stimuli/Hangul_M92.bmp","188","image-keyboard-response","407","622425","0.0-12.0-1.46","test",",","",",","",""
"null","<div style=""color:white; font-size:60px;"">+</div>","null","html-keyboard-response","408","623427","0.0-12.0-0.47","fixation","","","","",""
"1188.1249999860302","Stimuli/Hangul_F91.bmp","190","image-keyboard-response","409","624616","0.0-12.0-1.47","test",".","",".","",""
"null","<div style=""color:white; font-size:60px;"">+</div>","null","html-keyboard-response","410","625619","0.0-12.0-0.48","fixation","","","","",""
"797.095000045374","Stimuli/Hangul_F85.bmp","190","image-keyboard-response","411","626418","0.0-12.0-1.48","test",".","",".","",""
"null","<div style=""color:white; font-size:60px;"">+</div>","null","html-keyboard-response","412","627420","0.0-12.0-0.49","fixation","","","","",""
"1196.2749999947846","Stimuli/Hangul_M94.bmp","188","image-keyboard-response","413","628617","0.0-12.0-1.49","test",",","",",","",""
"2654.305000032764","<p style=""color:white;"">Phase I of the experiment is complete.</p> <p style=""color:white;"">Press the space bar to proceed to Phase II of the experiment.</p> ","32","html-keyboard-response","414","631273","0.0-13.0","","","","","",""
"2341.2700000335462","<p style=""color:white;"">Now we are interested in how well you can predict patterns in the series of figures. You will be asked to predict whether the next figure in the series is more male-like or female-like. When you see the <q>Next Figure</q> prompt, press the corresponding response keys to indicate your prediction: </p><p style=""color:white;""> Male &#8594 <q>,</q> (comma)</p><p style=""color:white;""> Female &#8594 <q>.</q> (period)</p><p style=""color:white;"">The actual figure will then appear on the screen. After you see the figure, please guess the assigned gender with response keys. </p><p style=""color:white;"">As before, you will receive 2 cents for correctly classifying each figure.</p><p style=""color:white;"">Press either response keys to continue.</p>","190","html-keyboard-response","415","635617","0.0-14.0","","","","","",""
"2278.2700000097975","<p style=""color:white;"">PREDICTION BONUS</p> <p style=""color:white;"">Your prediction accuracy is the total number of correct predictions you make over the 200 trials.</p> <p style=""color:white;"">In addition to the 2 cents per correct figure classification, you have the chance to receive a bonus of 40 dollars IF your accuracy is above average relative to previous participants.</p><p style=""color:white;"">If your accuracy is below average relative to previous participants, then you will not receive the 40 dollar bonus.</p><p style=""color:white;"">Press the space bar to continue.</p>","32","html-keyboard-response","416","637896","0.0-15.0","","","","","",""
"671.9950000406243","<p style=""color:white;"">Here are some examples.</p> <p style=""color:white;"">For each, predict whether the next figure looks more male-like or female-like. Then, when the figure appears, guess whether it looks more male-like or female-like and indicate your choice.</p> <p style=""color:white;"">Press the space bar to continue.</p>","32","html-keyboard-response","417","638569","0.0-16.0","","","","","",""
"2813.5450000409037","<p style=""color:white;""> Next Figure: Male or Female? </p>","188","html-keyboard-response","418","643385","0.0-17.0-0.0","prediction_train","","","",",",""
"null","<div style=""color:white; font-size:60px;"">+</div>","null","html-keyboard-response","419","644388","0.0-17.0-1.0","fixation","","","","",""
"2930.045000044629","Stimuli/Hangul_E2.bmp","190","image-keyboard-response","420","647321","0.0-17.0-2.0","c2_train",".","","","","."
"854.010000010021","<p style=""color:white;""> Next Figure: Male or Female? </p>","188","html-keyboard-response","421","648176","0.0-17.0-0.1","prediction_train","","","",",",""
"null","<div style=""color:white; font-size:60px;"">+</div>","null","html-keyboard-response","422","649178","0.0-17.0-1.1","fixation","","","","",""
"181.89999996684492","Stimuli/Hangul_E0.bmp","190","image-keyboard-response","423","649361","0.0-17.0-2.1","c2_train",",","","","","."
"118.08500002371147","<p style=""color:white;""> Next Figure: Male or Female? </p>","188","html-keyboard-response","424","649481","0.0-17.0-0.2","prediction_train","","","",",",""
"null","<div style=""color:white; font-size:60px;"">+</div>","null","html-keyboard-response","425","650482","0.0-17.0-1.2","fixation","","","","",""
"61.76499999128282","Stimuli/Hangul_E1.bmp","188","image-keyboard-response","426","650544","0.0-17.0-2.2","c2_train",",","","","",","
"1271.390000008978","<p style=""color:white;"">Let us begin! Press the space bar when you are ready to start block 1 of 4.</p> ","32","html-keyboard-response","427","651817","0.0-18.0","","","","","",""
"758.9649999863468","<p style=""color:white;""> Next Figure: Male or Female? </p>","188","html-keyboard-response","428","654577","0.0-19.0-0.0","prediction","","","",",",""
"null","<div style=""color:white; font-size:60px;"">+</div>","null","html-keyboard-response","429","655579","0.0-19.0-1.0","fixation","","","","",""
"1275.9400000213645","Stimuli/Hangul_F12.bmp","188","image-keyboard-response","430","656857","0.0-19.0-2.0","c2_test",".","","","",","
"78.41499999631196","<p style=""color:white;""> Next Figure: Male or Female? </p>","190","html-keyboard-response","431","656937","0.0-19.0-0.1","prediction","","","",".",""
"null","<div style=""color:white; font-size:60px;"">+</div>","null","html-keyboard-response","432","657938","0.0-19.0-1.1","fixation","","","","",""
"260.6550000491552","Stimuli/Hangul_F0.bmp","190","image-keyboard-response","433","658200","0.0-19.0-2.1","c2_test",".","","","","."
"23.155000002589077","<p style=""color:white;""> Next Figure: Male or Female? </p>","188","html-keyboard-response","434","658225","0.0-19.0-0.2","prediction","","","",",",""
"null","<div style=""color:white; font-size:60px;"">+</div>","null","html-keyboard-response","435","659227","0.0-19.0-1.2","fixation","","","","",""
"84.73999996203929","Stimuli/Hangul_F11.bmp","188","image-keyboard-response","436","659313","0.0-19.0-2.2","c2_test",".","","","",","
"87.11500000208616","<p style=""color:white;""> Next Figure: Male or Female? </p>","190","html-keyboard-response","437","659401","0.0-19.0-0.3","prediction","","","",".",""
"null","<div style=""color:white; font-size:60px;"">+</div>","null","html-keyboard-response","438","660403","0.0-19.0-1.3","fixation","","","","",""
"36.66500002145767","Stimuli/Hangul_F15.bmp","188","image-keyboard-response","439","660441","0.0-19.0-2.3","c2_test",".","","","",","
"54.61499997181818","<p style=""color:white;""> Next Figure: Male or Female? </p>","190","html-keyboard-response","440","660497","0.0-19.0-0.4","prediction","","","",".",""
"null","<div style=""color:white; font-size:60px;"">+</div>","null","html-keyboard-response","441","661500","0.0-19.0-1.4","fixation","","","","",""
"395.94499999657273","Stimuli/Hangul_M2.bmp","188","image-keyboard-response","442","661898","0.0-19.0-2.4","c2_test",",","","","",","
"52.49500001082197","<p style=""color:white;""> Next Figure: Male or Female? </p>","190","html-keyboard-response","443","661952","0.0-19.0-0.5","prediction","","","",".",""
"null","<div style=""color:white; font-size:60px;"">+</div>","null","html-keyboard-response","444","662953","0.0-19.0-1.5","fixation","","","","",""
"73.8499999861233","Stimuli/Hangul_F14.bmp","188","image-keyboard-response","445","663028","0.0-19.0-2.5","c2_test",".","","","",","
"0.3850000211969018","<p style=""color:white;""> Next Figure: Male or Female? </p>","190","html-keyboard-response","446","663030","0.0-19.0-0.6","prediction","","","",".",""
"null","<div style=""color:white; font-size:60px;"">+</div>","null","html-keyboard-response","447","664033","0.0-19.0-1.6","fixation","","","","",""
"46.199999982491136","Stimuli/Hangul_M24.bmp","190","image-keyboard-response","448","664080","0.0-19.0-2.6","c2_test",",","","","","."
"180.14499999117106","<p style=""color:white;""> Next Figure: Male or Female? </p>","188","html-keyboard-response","449","664261","0.0-19.0-0.7","prediction","","","",",",""
"null","<div style=""color:white; font-size:60px;"">+</div>","null","html-keyboard-response","450","665263","0.0-19.0-1.7","fixation","","","","",""
"488.6049999622628","Stimuli/Hangul_F13.bmp","188","image-keyboard-response","451","665753","0.0-19.0-2.7","c2_test",".","","","",","
"0.23499998496845365","<p style=""color:white;""> Next Figure: Male or Female? </p>","190","html-keyboard-response","452","665754","0.0-19.0-0.8","prediction","","","",".",""
"null","<div style=""color:white; font-size:60px;"">+</div>","null","html-keyboard-response","453","666756","0.0-19.0-1.8","fixation","","","","",""
"44.67500001192093","Stimuli/Hangul_M1.bmp","188","image-keyboard-response","454","666801","0.0-19.0-2.8","c2_test",",","","","",","
"0.21999998716637492","<p style=""color:white;""> Next Figure: Male or Female? </p>","190","html-keyboard-response","455","666803","0.0-19.0-0.9","prediction","","","",".",""
"null","<div style=""color:white; font-size:60px;"">+</div>","null","html-keyboard-response","456","667805","0.0-19.0-1.9","fixation","","","","",""
"169.919999956619","Stimuli/Hangul_F19.bmp","190","image-keyboard-response","457","667976","0.0-19.0-2.9","c2_test",".","","","","."
"22.85499998833984","<p style=""color:white;""> Next Figure: Male or Female? </p>","188","html-keyboard-response","458","668000","0.0-19.0-0.10","prediction","","","",",",""
"null","<div style=""color:white; font-size:60px;"">+</div>","null","html-keyboard-response","459","669002","0.0-19.0-1.10","fixation","","","","",""
"198.54999997187406","Stimuli/Hangul_F7.bmp","188","image-keyboard-response","460","669202","0.0-19.0-2.10","c2_test",".","","","",","
"0.26000000070780516","<p style=""color:white;""> Next Figure: Male or Female? </p>","190","html-keyboard-response","461","669203","0.0-19.0-0.11","prediction","","","",".",""
"null","<div style=""color:white; font-size:60px;"">+</div>","null","html-keyboard-response","462","670205","0.0-19.0-1.11","fixation","","","","",""
"90.56500002043322","Stimuli/Hangul_F24.bmp","188","image-keyboard-response","463","670297","0.0-19.0-2.11","c2_test",".","","","",","
"0.2649999805726111","<p style=""color:white;""> Next Figure: Male or Female? </p>","190","html-keyboard-response","464","670299","0.0-19.0-0.12","prediction","","","",".",""
"null","<div style=""color:white; font-size:60px;"">+</div>","null","html-keyboard-response","465","671301","0.0-19.0-1.12","fixation","","","","",""
"17.61500001884997","Stimuli/Hangul_M15.bmp","188","image-keyboard-response","466","671320","0.0-19.0-2.12","c2_test",",","","","",","
"0.08999998681247234","<p style=""color:white;""> Next Figure: Male or Female? </p>","190","html-keyboard-response","467","671321","0.0-19.0-0.13","prediction","","","",".",""
"null","<div style=""color:white; font-size:60px;"">+</div>","null","html-keyboard-response","468","672323","0.0-19.0-1.13","fixation","","","","",""
"196.3349999859929","Stimuli/Hangul_M10.bmp","190","image-keyboard-response","469","672521","0.0-19.0-2.13","c2_test",",","","","","."
"412.8250000067055","<p style=""color:white;""> Next Figure: Male or Female? </p>","190","html-keyboard-response","470","672937","0.0-19.0-0.14","prediction","","","",".",""
"null","<div style=""color:white; font-size:60px;"">+</div>","null","html-keyboard-response","471","673938","0.0-19.0-1.14","fixation","","","","",""
"133.49499995820224","Stimuli/Hangul_M16.bmp","190","image-keyboard-response","472","674073","0.0-19.0-2.14","c2_test",",","","","","."
"110.21499999333173","<p style=""color:white;""> Next Figure: Male or Female? </p>","188","html-keyboard-response","473","674185","0.0-19.0-0.15","prediction","","","",",",""
"null","<div style=""color:white; font-size:60px;"">+</div>","null","html-keyboard-response","474","675188","0.0-19.0-1.15","fixation","","","","",""
"76.24999998370185","Stimuli/Hangul_M0.bmp","188","image-keyboard-response","475","675265","0.0-19.0-2.15","c2_test",",","","","",","
"0.18500001169741154","<p style=""color:white;""> Next Figure: Male or Female? </p>","190","html-keyboard-response","476","675266","0.0-19.0-0.16","prediction","","","",".",""
"null","<div style=""color:white; font-size:60px;"">+</div>","null","html-keyboard-response","477","676269","0.0-19.0-1.16","fixation","","","","",""
"131.35500001953915","Stimuli/Hangul_M22.bmp","188","image-keyboard-response","478","676401","0.0-19.0-2.16","c2_test",",","","","",","
"0.265000038780272","<p style=""color:white;""> Next Figure: Male or Female? </p>","190","html-keyboard-response","479","676404","0.0-19.0-0.17","prediction","","","",".",""
"null","<div style=""color:white; font-size:60px;"">+</div>","null","html-keyboard-response","480","677405","0.0-19.0-1.17","fixation","","","","",""
"18.749999988358468","Stimuli/Hangul_M4.bmp","190","image-keyboard-response","481","677425","0.0-19.0-2.17","c2_test",",","","","","."
"71.41500001307577","<p style=""color:white;""> Next Figure: Male or Female? </p>","188","html-keyboard-response","482","677498","0.0-19.0-0.18","prediction","","","",",",""
"null","<div style=""color:white; font-size:60px;"">+</div>","null","html-keyboard-response","483","678499","0.0-19.0-1.18","fixation","","","","",""
"20.224999985657632","Stimuli/Hangul_M19.bmp","188","image-keyboard-response","484","678520","0.0-19.0-2.18","c2_test",",","","","",","
"592.2199999913573","<p style=""color:white;""> Next Figure: Male or Female? </p>","188","html-keyboard-response","485","679113","0.0-19.0-0.19","prediction","","","",",",""
"null","<div style=""color:white; font-size:60px;"">+</div>","null","html-keyboard-response","486","680116","0.0-19.0-1.19","fixation","","","","",""
"124.06499998178333","Stimuli/Hangul_M6.bmp","188","image-keyboard-response","487","680241","0.0-19.0-2.19","c2_test",",","","","",","
"0.09999994654208422","<p style=""color:white;""> Next Figure: Male or Female? </p>","190","html-keyboard-response","488","680242","0.0-19.0-0.20","prediction","","","",".",""
"null","<div style=""color:white; font-size:60px;"">+</div>","null","html-keyboard-response","489","681243","0.0-19.0-1.20","fixation","","","","",""
"301.19500000728294","Stimuli/Hangul_F18.bmp","188","image-keyboard-response","490","681545","0.0-19.0-2.20","c2_test",".","","","",","
"0.27000001864507794","<p style=""color:white;""> Next Figure: Male or Female? </p>","190","html-keyboard-response","491","681550","0.0-19.0-0.21","prediction","","","",".",""
"null","<div style=""color:white; font-size:60px;"">+</div>","null","html-keyboard-response","492","682552","0.0-19.0-1.21","fixation","","","","",""
"7.7049999963492155","Stimuli/Hangul_M14.bmp","190","image-keyboard-response","493","682561","0.0-19.0-2.21","c2_test",",","","","","."
"590.3549999929965","<p style=""color:white;""> Next Figure: Male or Female? </p>","188","html-keyboard-response","494","683153","0.0-19.0-0.22","prediction","","","",",",""
"null","<div style=""color:white; font-size:60px;"">+</div>","null","html-keyboard-response","495","684156","0.0-19.0-1.22","fixation","","","","",""
"35.30999994836748","Stimuli/Hangul_F3.bmp","188","image-keyboard-response","496","684192","0.0-19.0-2.22","c2_test",".","","","",","
"232.0049999980256","<p style=""color:white;""> Next Figure: Male or Female? </p>","188","html-keyboard-response","497","684425","0.0-19.0-0.23","prediction","","","",",",""
"null","<div style=""color:white; font-size:60px;"">+</div>","null","html-keyboard-response","498","685427","0.0-19.0-1.23","fixation","","","","",""
"502.6499999803491","Stimuli/Hangul_M5.bmp","188","image-keyboard-response","499","685930","0.0-19.0-2.23","c2_test",",","","","",","
"1.9000000320374966","<p style=""color:white;""> Next Figure: Male or Female? </p>","190","html-keyboard-response","500","685934","0.0-19.0-0.24","prediction","","","",".",""
"null","<div style=""color:white; font-size:60px;"">+</div>","null","html-keyboard-response","501","686936","0.0-19.0-1.24","fixation","","","","",""
"279.82500003417954","Stimuli/Hangul_F8.bmp","190","image-keyboard-response","502","687217","0.0-19.0-2.24","c2_test",".","","","","."
"21.8299999833107","<p style=""color:white;""> Next Figure: Male or Female? </p>","188","html-keyboard-response","503","687241","0.0-19.0-0.25","prediction","","","",",",""
"null","<div style=""color:white; font-size:60px;"">+</div>","null","html-keyboard-response","504","688243","0.0-19.0-1.25","fixation","","","","",""
"44.880000001285225","Stimuli/Hangul_M20.bmp","188","image-keyboard-response","505","688288","0.0-19.0-2.25","c2_test",",","","","",","
"0.0950000248849392","<p style=""color:white;""> Next Figure: Male or Female? </p>","190","html-keyboard-response","506","688289","0.0-19.0-0.26","prediction","","","",".",""
"null","<div style=""color:white; font-size:60px;"">+</div>","null","html-keyboard-response","507","689290","0.0-19.0-1.26","fixation","","","","",""
"141.78000000538304","Stimuli/Hangul_M18.bmp","188","image-keyboard-response","508","689432","0.0-19.0-2.26","c2_test",",","","","",","
"0.08000002708286047","<p style=""color:white;""> Next Figure: Male or Female? </p>","190","html-keyboard-response","509","689433","0.0-19.0-0.27","prediction","","","",".",""
"null","<div style=""color:white; font-size:60px;"">+</div>","null","html-keyboard-response","510","690435","0.0-19.0-1.27","fixation","","","","",""
"13.46500002546236","Stimuli/Hangul_M23.bmp","188","image-keyboard-response","511","690449","0.0-19.0-2.27","c2_test",",","","","",","
"478.33499999251217","<p style=""color:white;""> Next Figure: Male or Female? </p>","188","html-keyboard-response","512","690929","0.0-19.0-0.28","prediction","","","",",",""
"null","<div style=""color:white; font-size:60px;"">+</div>","null","html-keyboard-response","513","691931","0.0-19.0-1.28","fixation","","","","",""
"124.11999999312684","Stimuli/Hangul_M9.bmp","190","image-keyboard-response","514","692056","0.0-19.0-2.28","c2_test",",","","","","."
"54.95000001974404","<p style=""color:white;""> Next Figure: Male or Female? </p>","188","html-keyboard-response","515","692112","0.0-19.0-0.29","prediction","","","",",",""
"null","<div style=""color:white; font-size:60px;"">+</div>","null","html-keyboard-response","516","693114","0.0-19.0-1.29","fixation","","","","",""
"645.3199999523349","Stimuli/Hangul_F9.bmp","190","image-keyboard-response","517","693760","0.0-19.0-2.29","c2_test",".","","","","."
"23.410000023432076","<p style=""color:white;""> Next Figure: Male or Female? </p>","188","html-keyboard-response","518","693784","0.0-19.0-0.30","prediction","","","",",",""
"null","<div style=""color:white; font-size:60px;"">+</div>","null","html-keyboard-response","519","694785","0.0-19.0-1.30","fixation","","","","",""
"38.24500000337139","Stimuli/Hangul_F1.bmp","188","image-keyboard-response","520","694825","0.0-19.0-2.30","c2_test",".","","","",","
"0.08000002708286047","<p style=""color:white;""> Next Figure: Male or Female? </p>","190","html-keyboard-response","521","694825","0.0-19.0-0.31","prediction","","","",".",""
"null","<div style=""color:white; font-size:60px;"">+</div>","null","html-keyboard-response","522","695828","0.0-19.0-1.31","fixation","","","","",""
"203.93999997759238","Stimuli/Hangul_F2.bmp","190","image-keyboard-response","523","696033","0.0-19.0-2.31","c2_test",".","","","","."
"445.89999999152496","<p style=""color:white;""> Next Figure: Male or Female? </p>","190","html-keyboard-response","524","696481","0.0-19.0-0.32","prediction","","","",".",""
"null","<div style=""color:white; font-size:60px;"">+</div>","null","html-keyboard-response","525","697483","0.0-19.0-1.32","fixation","","","","",""
"525.3049999591894","Stimuli/Hangul_F23.bmp","190","image-keyboard-response","526","698010","0.0-19.0-2.32","c2_test",".","","","","."
"21.460000018123537","<p style=""color:white;""> Next Figure: Male or Female? </p>","188","html-keyboard-response","527","698033","0.0-19.0-0.33","prediction","","","",",",""
"null","<div style=""color:white; font-size:60px;"">+</div>","null","html-keyboard-response","528","699035","0.0-19.0-1.33","fixation","","","","",""
"316.3899999926798","Stimuli/Hangul_M11.bmp","188","image-keyboard-response","529","699353","0.0-19.0-2.33","c2_test",",","","","",","
"14.219999953638762","<p style=""color:white;""> Next Figure: Male or Female? </p>","190","html-keyboard-response","530","699369","0.0-19.0-0.34","prediction","","","",".",""
"null","<div style=""color:white; font-size:60px;"">+</div>","null","html-keyboard-response","531","700372","0.0-19.0-1.34","fixation","","","","",""
"379.91000001784414","Stimuli/Hangul_F6.bmp","188","image-keyboard-response","532","700753","0.0-19.0-2.34","c2_test",".","","","",","
"30.75499995611608","<p style=""color:white;""> Next Figure: Male or Female? </p>","190","html-keyboard-response","533","700785","0.0-19.0-0.35","prediction","","","",".",""
"null","<div style=""color:white; font-size:60px;"">+</div>","null","html-keyboard-response","534","701787","0.0-19.0-1.35","fixation","","","","",""
"332.3050000471994","Stimuli/Hangul_M21.bmp","188","image-keyboard-response","535","702121","0.0-19.0-2.35","c2_test",",","","","",","
"22.875000024214387","<p style=""color:white;""> Next Figure: Male or Female? </p>","190","html-keyboard-response","536","702145","0.0-19.0-0.36","prediction","","","",".",""
"null","<div style=""color:white; font-size:60px;"">+</div>","null","html-keyboard-response","537","703147","0.0-19.0-1.36","fixation","","","","",""
"44.65499997604638","Stimuli/Hangul_M12.bmp","190","image-keyboard-response","538","703192","0.0-19.0-2.36","c2_test",",","","","","."
"360.10000004898757","<p style=""color:white;""> Next Figure: Male or Female? </p>","188","html-keyboard-response","539","703553","0.0-19.0-0.37","prediction","","","",",",""
"null","<div style=""color:white; font-size:60px;"">+</div>","null","html-keyboard-response","540","704554","0.0-19.0-1.37","fixation","","","","",""
"455.87499998509884","Stimuli/Hangul_F20.bmp","188","image-keyboard-response","541","705011","0.0-19.0-2.37","c2_test",".","","","",","
"20.170000032521784","<p style=""color:white;""> Next Figure: Male or Female? </p>","190","html-keyboard-response","542","705033","0.0-19.0-0.38","prediction","","","",".",""
"null","<div style=""color:white; font-size:60px;"">+</div>","null","html-keyboard-response","543","706036","0.0-19.0-1.38","fixation","","","","",""
"395.99500002805144","Stimuli/Hangul_M8.bmp","188","image-keyboard-response","544","706433","0.0-19.0-2.38","c2_test",",","","","",","
"134.45499999215826","<p style=""color:white;""> Next Figure: Male or Female? </p>","190","html-keyboard-response","545","706569","0.0-19.0-0.39","prediction","","","",".",""
"null","<div style=""color:white; font-size:60px;"">+</div>","null","html-keyboard-response","546","707573","0.0-19.0-1.39","fixation","","","","",""
"2.4899999843910336","Stimuli/Hangul_F17.bmp","190","image-keyboard-response","547","707577","0.0-19.0-2.39","c2_test",".","","","","."
"350.6650000344962","<p style=""color:white;""> Next Figure: Male or Female? </p>","188","html-keyboard-response","548","707929","0.0-19.0-0.40","prediction","","","",",",""
"null","<div style=""color:white; font-size:60px;"">+</div>","null","html-keyboard-response","549","708931","0.0-19.0-1.40","fixation","","","","",""
"20.865000027697533","Stimuli/Hangul_F10.bmp","190","image-keyboard-response","550","708953","0.0-19.0-2.40","c2_test",".","","","","."
"430.8599999640137","<p style=""color:white;""> Next Figure: Male or Female? </p>","188","html-keyboard-response","551","709385","0.0-19.0-0.41","prediction","","","",",",""
"null","<div style=""color:white; font-size:60px;"">+</div>","null","html-keyboard-response","552","710387","0.0-19.0-1.41","fixation","","","","",""
"245.75000000186265","Stimuli/Hangul_M7.bmp","188","image-keyboard-response","553","710634","0.0-19.0-2.41","c2_test",",","","","",","
"13.124999997671694","<p style=""color:white;""> Next Figure: Male or Female? </p>","190","html-keyboard-response","554","710648","0.0-19.0-0.42","prediction","","","",".",""
"null","<div style=""color:white; font-size:60px;"">+</div>","null","html-keyboard-response","555","711650","0.0-19.0-1.42","fixation","","","","",""
"350.47500004293397","Stimuli/Hangul_M17.bmp","188","image-keyboard-response","556","712002","0.0-19.0-2.42","c2_test",",","","","",","
"13.854999968316406","<p style=""color:white;""> Next Figure: Male or Female? </p>","190","html-keyboard-response","557","712017","0.0-19.0-0.43","prediction","","","",".",""
"null","<div style=""color:white; font-size:60px;"">+</div>","null","html-keyboard-response","558","713018","0.0-19.0-1.43","fixation","","","","",""
"55.21500000031665","Stimuli/Hangul_M3.bmp","188","image-keyboard-response","559","713074","0.0-19.0-2.43","c2_test",",","","","",","
"93.01999997114763","<p style=""color:white;""> Next Figure: Male or Female? </p>","190","html-keyboard-response","560","713168","0.0-19.0-0.44","prediction","","","",".",""
"null","<div style=""color:white; font-size:60px;"">+</div>","null","html-keyboard-response","561","714169","0.0-19.0-1.44","fixation","","","","",""
"438.0800000508316","Stimuli/Hangul_F16.bmp","188","image-keyboard-response","562","714609","0.0-19.0-2.44","c2_test",".","","","",","
"23.824999982025474","<p style=""color:white;""> Next Figure: Male or Female? </p>","190","html-keyboard-response","563","714633","0.0-19.0-0.45","prediction","","","",".",""
"null","<div style=""color:white; font-size:60px;"">+</div>","null","html-keyboard-response","564","715636","0.0-19.0-1.45","fixation","","","","",""
"51.91500001819804","Stimuli/Hangul_F21.bmp","188","image-keyboard-response","565","715691","0.0-19.0-2.45","c2_test",".","","","",","
"20.940000016707927","<p style=""color:white;""> Next Figure: Male or Female? </p>","190","html-keyboard-response","566","715714","0.0-19.0-0.46","prediction","","","",".",""
"null","<div style=""color:white; font-size:60px;"">+</div>","null","html-keyboard-response","567","716716","0.0-19.0-1.46","fixation","","","","",""
"523.8449999596924","Stimuli/Hangul_M13.bmp","188","image-keyboard-response","568","717241","0.0-19.0-2.46","c2_test",",","","","",","
"23.175000038463622","<p style=""color:white;""> Next Figure: Male or Female? </p>","190","html-keyboard-response","569","717267","0.0-19.0-0.47","prediction","","","",".",""
"null","<div style=""color:white; font-size:60px;"">+</div>","null","html-keyboard-response","570","718269","0.0-19.0-1.47","fixation","","","","",""
"34.13500002352521","Stimuli/Hangul_F4.bmp","188","image-keyboard-response","571","718305","0.0-19.0-2.47","c2_test",".","","","",","
"20.220000005792826","<p style=""color:white;""> Next Figure: Male or Female? </p>","190","html-keyboard-response","572","718330","0.0-19.0-0.48","prediction","","","",".",""
"null","<div style=""color:white; font-size:60px;"">+</div>","null","html-keyboard-response","573","719332","0.0-19.0-1.48","fixation","","","","",""
"52.1049999515526","Stimuli/Hangul_F5.bmp","188","image-keyboard-response","574","719385","0.0-19.0-2.48","c2_test",".","","","",","
"47.47499997029081","<p style=""color:white;""> Next Figure: Male or Female? </p>","190","html-keyboard-response","575","719435","0.0-19.0-0.49","prediction","","","",".",""
"null","<div style=""color:white; font-size:60px;"">+</div>","null","html-keyboard-response","576","720437","0.0-19.0-1.49","fixation","","","","",""
"51.57000001054257","Stimuli/Hangul_F22.bmp","188","image-keyboard-response","577","720490","0.0-19.0-2.49","c2_test",".","","","",","
"517.1100000152364","<p style=""color:white;"">Good job, block 1 complete! Please take a moment to rest.</p> <p style=""color:white;"">When you are ready to continue with block 2 of 4, press the space bar.</p> ","32","html-keyboard-response","578","721010","0.0-20.0","","","","","",""
"466.8850000016391","<p style=""color:white;""> Next Figure: Male or Female? </p>","188","html-keyboard-response","579","723482","0.0-21.0-0.0","prediction","","","",",",""
"null","<div style=""color:white; font-size:60px;"">+</div>","null","html-keyboard-response","580","724483","0.0-21.0-1.0","fixation","","","","",""
"467.97500003594905","Stimuli/Hangul_F25.bmp","188","image-keyboard-response","581","724953","0.0-21.0-2.0","c2_test",".","","","",","
"0.13499998021870852","<p style=""color:white;""> Next Figure: Male or Female? </p>","190","html-keyboard-response","582","724954","0.0-21.0-0.1","prediction","","","",".",""
"null","<div style=""color:white; font-size:60px;"">+</div>","null","html-keyboard-response","583","725955","0.0-21.0-1.1","fixation","","","","",""
"572.1900000353344","Stimuli/Hangul_M36.bmp","188","image-keyboard-response","584","726528","0.0-21.0-2.1","c2_test",",","","","",","
"23.79000000655651","<p style=""color:white;""> Next Figure: Male or Female? </p>","190","html-keyboard-response","585","726553","0.0-21.0-0.2","prediction","","","",".",""
"null","<div style=""color:white; font-size:60px;"">+</div>","null","html-keyboard-response","586","727555","0.0-21.0-1.2","fixation","","","","",""
"45.73999997228384","Stimuli/Hangul_M30.bmp","188","image-keyboard-response","587","727602","0.0-21.0-2.2","c2_test",",","","","",","
"6.070000003091991","<p style=""color:white;""> Next Figure: Male or Female? </p>","190","html-keyboard-response","588","727609","0.0-21.0-0.3","prediction","","","",".",""
"null","<div style=""color:white; font-size:60px;"">+</div>","null","html-keyboard-response","589","728612","0.0-21.0-1.3","fixation","","","","",""
"44.68499997165054","Stimuli/Hangul_M46.bmp","188","image-keyboard-response","590","728658","0.0-21.0-2.3","c2_test",",","","","",","
"0.15999999595806003","<p style=""color:white;""> Next Figure: Male or Female? </p>","190","html-keyboard-response","591","728659","0.0-21.0-0.4","prediction","","","",".",""
"null","<div style=""color:white; font-size:60px;"">+</div>","null","html-keyboard-response","592","729661","0.0-21.0-1.4","fixation","","","","",""
"123.97499999497086","Stimuli/Hangul_M25.bmp","188","image-keyboard-response","593","729786","0.0-21.0-2.4","c2_test",",","","","",","
"0.26000000070780516","<p style=""color:white;""> Next Figure: Male or Female? </p>","190","html-keyboard-response","594","729788","0.0-21.0-0.5","prediction","","","",".",""
"null","<div style=""color:white; font-size:60px;"">+</div>","null","html-keyboard-response","595","730789","0.0-21.0-1.5","fixation","","","","",""
"74.93499998236075","Stimuli/Hangul_F32.bmp","188","image-keyboard-response","596","730865","0.0-21.0-2.5","c2_test",".","","","",","
"23.344999994151294","<p style=""color:white;""> Next Figure: Male or Female? </p>","190","html-keyboard-response","597","730889","0.0-21.0-0.6","prediction","","","",".",""
"null","<div style=""color:white; font-size:60px;"">+</div>","null","html-keyboard-response","598","731891","0.0-21.0-1.6","fixation","","","","",""
"143.5250000213273","Stimuli/Hangul_F39.bmp","188","image-keyboard-response","599","732035","0.0-21.0-2.6","c2_test",".","","","",","
"0.3600000054575503","<p style=""color:white;""> Next Figure: Male or Female? </p>","190","html-keyboard-response","600","732038","0.0-21.0-0.7","prediction","","","",".",""
"null","<div style=""color:white; font-size:60px;"">+</div>","null","html-keyboard-response","601","733039","0.0-21.0-1.7","fixation","","","","",""
"97.72499999962747","Stimuli/Hangul_M49.bmp","188","image-keyboard-response","602","733137","0.0-21.0-2.7","c2_test",",","","","",","
"0.07499998901039362","<p style=""color:white;""> Next Figure: Male or Female? </p>","190","html-keyboard-response","603","733138","0.0-21.0-0.8","prediction","","","",".",""
"null","<div style=""color:white; font-size:60px;"">+</div>","null","html-keyboard-response","604","734140","0.0-21.0-1.8","fixation","","","","",""
"84.93499999167398","Stimuli/Hangul_F30.bmp","188","image-keyboard-response","605","734226","0.0-21.0-2.8","c2_test",".","","","",","
"0.22000004537403584","<p style=""color:white;""> Next Figure: Male or Female? </p>","190","html-keyboard-response","606","734227","0.0-21.0-0.9","prediction","","","",".",""
"null","<div style=""color:white; font-size:60px;"">+</div>","null","html-keyboard-response","607","735229","0.0-21.0-1.9","fixation","","","","",""
"50.404999987222254","Stimuli/Hangul_M43.bmp","188","image-keyboard-response","608","735280","0.0-21.0-2.9","c2_test",",","","","",","
"0.1200000406242907","<p style=""color:white;""> Next Figure: Male or Female? </p>","190","html-keyboard-response","609","735281","0.0-21.0-0.10","prediction","","","",".",""
"null","<div style=""color:white; font-size:60px;"">+</div>","null","html-keyboard-response","610","736283","0.0-21.0-1.10","fixation","","","","",""
"20.380000001750886","Stimuli/Hangul_M45.bmp","188","image-keyboard-response","611","736304","0.0-21.0-2.10","c2_test",",","","","",","
"472.490000014659","<p style=""color:white;""> Next Figure: Male or Female? </p>","188","html-keyboard-response","612","736778","0.0-21.0-0.11","prediction","","","",",",""
"null","<div style=""color:white; font-size:60px;"">+</div>","null","html-keyboard-response","613","737780","0.0-21.0-1.11","fixation","","","","",""
"843.7550000380725","Stimuli/Hangul_M34.bmp","188","image-keyboard-response","614","738625","0.0-21.0-2.11","c2_test",",","","","",","
"422.2050000098534","<p style=""color:white;""> Next Figure: Male or Female? </p>","188","html-keyboard-response","615","739049","0.0-21.0-0.12","prediction","","","",",",""
"null","<div style=""color:white; font-size:60px;"">+</div>","null","html-keyboard-response","616","740051","0.0-21.0-1.12","fixation","","","","",""
"1004.700000048615","Stimuli/Hangul_M38.bmp","188","image-keyboard-response","617","741057","0.0-21.0-2.12","c2_test",",","","","",","
"686.6850000224076","<p style=""color:white;""> Next Figure: Male or Female? </p>","190","html-keyboard-response","618","741745","0.0-21.0-0.13","prediction","","","",".",""
"null","<div style=""color:white; font-size:60px;"">+</div>","null","html-keyboard-response","619","742749","0.0-21.0-1.13","fixation","","","","",""
"538.6449999641627","Stimuli/Hangul_M40.bmp","190","image-keyboard-response","620","743289","0.0-21.0-2.13","c2_test",",","","","","."
"502.65500001842156","<p style=""color:white;""> Next Figure: Male or Female? </p>","188","html-keyboard-response","621","743793","0.0-21.0-0.14","prediction","","","",",",""
"null","<div style=""color:white; font-size:60px;"">+</div>","null","html-keyboard-response","622","744795","0.0-21.0-1.14","fixation","","","","",""
"164.8799999966286","Stimuli/Hangul_F28.bmp","188","image-keyboard-response","623","744962","0.0-21.0-2.14","c2_test",".","","","",","
"0.18999999156221747","<p style=""color:white;""> Next Figure: Male or Female? </p>","190","html-keyboard-response","624","744963","0.0-21.0-0.15","prediction","","","",".",""
"null","<div style=""color:white; font-size:60px;"">+</div>","null","html-keyboard-response","625","745964","0.0-21.0-1.15","fixation","","","","",""
"509.50500002363697","Stimuli/Hangul_M47.bmp","188","image-keyboard-response","626","746474","0.0-21.0-2.15","c2_test",",","","","",","
"0.26000000070780516","<p style=""color:white;""> Next Figure: Male or Female? </p>","190","html-keyboard-response","627","746476","0.0-21.0-0.16","prediction","","","",".",""
"null","<div style=""color:white; font-size:60px;"">+</div>","null","html-keyboard-response","628","747478","0.0-21.0-1.16","fixation","","","","",""
"384.46500001009554","Stimuli/Hangul_M29.bmp","188","image-keyboard-response","629","747866","0.0-21.0-2.16","c2_test",",","","","",","
"0.2300000051036477","<p style=""color:white;""> Next Figure: Male or Female? </p>","190","html-keyboard-response","630","747867","0.0-21.0-0.17","prediction","","","",".",""
"null","<div style=""color:white; font-size:60px;"">+</div>","null","html-keyboard-response","631","748869","0.0-21.0-1.17","fixation","","","","",""
"306.06000003172085","Stimuli/Hangul_F35.bmp","188","image-keyboard-response","632","749177","0.0-21.0-2.17","c2_test",".","","","",","
"694.7849999996834","<p style=""color:white;""> Next Figure: Male or Female? </p>","188","html-keyboard-response","633","749873","0.0-21.0-0.18","prediction","","","",",",""
"null","<div style=""color:white; font-size:60px;"">+</div>","null","html-keyboard-response","634","750874","0.0-21.0-1.18","fixation","","","","",""
"37.46999998111278","Stimuli/Hangul_F38.bmp","188","image-keyboard-response","635","750913","0.0-21.0-2.18","c2_test",".","","","",","
"0.09499996667727828","<p style=""color:white;""> Next Figure: Male or Female? </p>","190","html-keyboard-response","636","750913","0.0-21.0-0.19","prediction","","","",".",""
"null","<div style=""color:white; font-size:60px;"">+</div>","null","html-keyboard-response","637","751914","0.0-21.0-1.19","fixation","","","","",""
"518.4700000099838","Stimuli/Hangul_M48.bmp","188","image-keyboard-response","638","752433","0.0-21.0-2.19","c2_test",",","","","",","
"0.09000004502013326","<p style=""color:white;""> Next Figure: Male or Female? </p>","190","html-keyboard-response","639","752434","0.0-21.0-0.20","prediction","","","",".",""
"null","<div style=""color:white; font-size:60px;"">+</div>","null","html-keyboard-response","640","753436","0.0-21.0-1.20","fixation","","","","",""
"1827.7600000146776","Stimuli/Hangul_F29.bmp","190","image-keyboard-response","641","755265","0.0-21.0-2.20","c2_test",".","","","","."
"422.5399999995716","<p style=""color:white;""> Next Figure: Male or Female? </p>","188","html-keyboard-response","642","755689","0.0-21.0-0.21","prediction","","","",",",""
"null","<div style=""color:white; font-size:60px;"">+</div>","null","html-keyboard-response","643","756691","0.0-21.0-1.21","fixation","","","","",""
"357.63499996392056","Stimuli/Hangul_M41.bmp","188","image-keyboard-response","644","757051","0.0-21.0-2.21","c2_test",",","","","",","
"0.2550000208429992","<p style=""color:white;""> Next Figure: Male or Female? </p>","190","html-keyboard-response","645","757052","0.0-21.0-0.22","prediction","","","",".",""
"null","<div style=""color:white; font-size:60px;"">+</div>","null","html-keyboard-response","646","758053","0.0-21.0-1.22","fixation","","","","",""
"86.27500000875443","Stimuli/Hangul_F33.bmp","188","image-keyboard-response","647","758140","0.0-21.0-2.22","c2_test",".","","","",","
"0.09499996667727828","<p style=""color:white;""> Next Figure: Male or Female? </p>","190","html-keyboard-response","648","758141","0.0-21.0-0.23","prediction","","","",".",""
"null","<div style=""color:white; font-size:60px;"">+</div>","null","html-keyboard-response","649","759142","0.0-21.0-1.23","fixation","","","","",""
"25.199999974574894","Stimuli/Hangul_M27.bmp","188","image-keyboard-response","650","759168","0.0-21.0-2.23","c2_test",",","","","",","
"456.5650000004098","<p style=""color:white;""> Next Figure: Male or Female? </p>","190","html-keyboard-response","651","759626","0.0-21.0-0.24","prediction","","","",".",""
"null","<div style=""color:white; font-size:60px;"">+</div>","null","html-keyboard-response","652","760629","0.0-21.0-1.24","fixation","","","","",""
"448.9750000066124","Stimuli/Hangul_F34.bmp","190","image-keyboard-response","653","761080","0.0-21.0-2.24","c2_test",".","","","","."
"440.02500001806766","<p style=""color:white;""> Next Figure: Male or Female? </p>","188","html-keyboard-response","654","761521","0.0-21.0-0.25","prediction","","","",",",""
"null","<div style=""color:white; font-size:60px;"">+</div>","null","html-keyboard-response","655","762524","0.0-21.0-1.25","fixation","","","","",""
"68.54000000748783","Stimuli/Hangul_F36.bmp","188","image-keyboard-response","656","762593","0.0-21.0-2.25","c2_test",".","","","",","
