"rt","stimulus","key_press","trial_type","trial_index","time_elapsed","internal_node_id","test_part","correct_response","C1_train","C1","A","C2"
"2777.1150000044145","<p style=""color:white;"">Welcome to the experiment! Press any key to begin.</p>","190","html-keyboard-response","0","2788","0.0-0.0","","","","","",""
"1566.034999996191","<p style=""color:white;"">You will see a series of abstract figures. They are adaptations of signs in the Korean alphabet, but that is not important for this study. </p><p style=""color:white;"">Abstract figures sometimes have a more masculine or feminine shape. Here, each figure has already been assigned a gender as <q>Male</q> or <q>Female</q> by a panel of respondents in a pilot study. The respondents were not given specific instructions on how to do this, but were only told to use their intuition and to take into account the entire configuration of the stimulus. </p><p style=""color:white;"">Your task now is to guess the assigned gender of each figure. Please press the corresponding response keys to indicate your choice: </p><p style=""color:white;""> Male &#8594 <q>,</q> (comma)</p><p style=""color:white;""> Female &#8594 <q>.</q> (period)</p><p style=""color:white;"">Press either response keys to continue.</p>","190","html-keyboard-response","1","4356","0.0-1.0","","","","","",""
"13042.385000007926","<p style=""color:white;"">Your choice is correct if it matches the gender assigned by the majority of respondents in the pilot study.</p> <p style=""color:white;"">For each correct choice you will receive 2 cents. There will be 200 trials divided into 4 blocks of 50 trials. You will be able to take a break after every 50 trials.</p> <p style=""color:white;"">Press the space bar to continue.</p>","32","html-keyboard-response","2","17399","0.0-2.0","","","","","",""
"6769.440000003669","<p style=""color:white;"">Here are some examples.</p> <p style=""color:white;"">For each, guess whether the assigned figure is male-like or female-like and indicate your choice by pressing either response keys.</p> <p style=""color:white;"">Press the space bar to continue.</p>","32","html-keyboard-response","3","24170","0.0-3.0","","","","","",""
"null","<div style=""color:white; font-size:60px;"">+</div>","null","html-keyboard-response","4","27173","0.0-4.0-0.0","fixation","","","","",""
"2100.754999992205","Stimuli/Hangul_E1.bmp","190","image-keyboard-response","5","29276","0.0-4.0-1.0","c1_train",",",".","","",""
"null","<div style=""color:white; font-size:60px;"">+</div>","null","html-keyboard-response","6","30277","0.0-4.0-0.1","fixation","","","","",""
"1993.7000000209082","Stimuli/Hangul_E0.bmp","188","image-keyboard-response","7","32271","0.0-4.0-1.1","c1_train",",",",","","",""
"null","<div style=""color:white; font-size:60px;"">+</div>","null","html-keyboard-response","8","33274","0.0-4.0-0.2","fixation","","","","",""
"2515.704999997979","Stimuli/Hangul_E2.bmp","190","image-keyboard-response","9","35791","0.0-4.0-1.2","c1_train",".",".","","",""
"2554.115000006277","<p style=""color:white;"">Let us begin! Press the space bar when you are ready to start block 1 of 4.</p> ","32","html-keyboard-response","10","38346","0.0-5.0","","","","","",""
"null","<div style=""color:white; font-size:60px;"">+</div>","null","html-keyboard-response","11","41350","0.0-6.0-0.0","fixation","","","","",""
"1726.4700000232551","Stimuli/Hangul_M23.bmp","190","image-keyboard-response","12","43080","0.0-6.0-1.0","test",",","",".","",""
"null","<div style=""color:white; font-size:60px;"">+</div>","null","html-keyboard-response","13","44082","0.0-6.0-0.1","fixation","","","","",""
"1268.6849999881815","Stimuli/Hangul_F22.bmp","188","image-keyboard-response","14","45351","0.0-6.0-1.1","test",".","",",","",""
"null","<div style=""color:white; font-size:60px;"">+</div>","null","html-keyboard-response","15","46354","0.0-6.0-0.2","fixation","","","","",""
"1330.5299999774434","Stimuli/Hangul_F10.bmp","190","image-keyboard-response","16","47685","0.0-6.0-1.2","test",".","",".","",""
"null","<div style=""color:white; font-size:60px;"">+</div>","null","html-keyboard-response","17","48688","0.0-6.0-0.3","fixation","","","","",""
"2084.4799999904353","Stimuli/Hangul_M7.bmp","188","image-keyboard-response","18","50773","0.0-6.0-1.3","test",",","",",","",""
"null","<div style=""color:white; font-size:60px;"">+</div>","null","html-keyboard-response","19","51775","0.0-6.0-0.4","fixation","","","","",""
"1561.5499999839813","Stimuli/Hangul_M16.bmp","188","image-keyboard-response","20","53338","0.0-6.0-1.4","test",",","",",","",""
"null","<div style=""color:white; font-size:60px;"">+</div>","null","html-keyboard-response","21","54341","0.0-6.0-0.5","fixation","","","","",""
"1302.7000000001863","Stimuli/Hangul_F1.bmp","190","image-keyboard-response","22","55644","0.0-6.0-1.5","test",".","",".","",""
"null","<div style=""color:white; font-size:60px;"">+</div>","null","html-keyboard-response","23","56646","0.0-6.0-0.6","fixation","","","","",""
"1363.0800000100862","Stimuli/Hangul_M2.bmp","188","image-keyboard-response","24","58009","0.0-6.0-1.6","test",",","",",","",""
"null","<div style=""color:white; font-size:60px;"">+</div>","null","html-keyboard-response","25","59012","0.0-6.0-0.7","fixation","","","","",""
"1376.8350000027567","Stimuli/Hangul_M14.bmp","188","image-keyboard-response","26","60389","0.0-6.0-1.7","test",",","",",","",""
"null","<div style=""color:white; font-size:60px;"">+</div>","null","html-keyboard-response","27","61392","0.0-6.0-0.8","fixation","","","","",""
"1456.6449999983888","Stimuli/Hangul_F6.bmp","188","image-keyboard-response","28","62849","0.0-6.0-1.8","test",".","",",","",""
"null","<div style=""color:white; font-size:60px;"">+</div>","null","html-keyboard-response","29","63850","0.0-6.0-0.9","fixation","","","","",""
"1550.5300000077114","Stimuli/Hangul_F17.bmp","190","image-keyboard-response","30","65402","0.0-6.0-1.9","test",".","",".","",""
"null","<div style=""color:white; font-size:60px;"">+</div>","null","html-keyboard-response","31","66404","0.0-6.0-0.10","fixation","","","","",""
"1484.9199999880511","Stimuli/Hangul_M11.bmp","188","image-keyboard-response","32","67889","0.0-6.0-1.10","test",",","",",","",""
"null","<div style=""color:white; font-size:60px;"">+</div>","null","html-keyboard-response","33","68892","0.0-6.0-0.11","fixation","","","","",""
"1629.4149999739602","Stimuli/Hangul_F19.bmp","188","image-keyboard-response","34","70522","0.0-6.0-1.11","test",".","",",","",""
"null","<div style=""color:white; font-size:60px;"">+</div>","null","html-keyboard-response","35","71523","0.0-6.0-0.12","fixation","","","","",""
"1272.224999993341","Stimuli/Hangul_F18.bmp","190","image-keyboard-response","36","72796","0.0-6.0-1.12","test",".","",".","",""
"null","<div style=""color:white; font-size:60px;"">+</div>","null","html-keyboard-response","37","73798","0.0-6.0-0.13","fixation","","","","",""
"1378.7000000011176","Stimuli/Hangul_M3.bmp","188","image-keyboard-response","38","75177","0.0-6.0-1.13","test",",","",",","",""
"null","<div style=""color:white; font-size:60px;"">+</div>","null","html-keyboard-response","39","76180","0.0-6.0-0.14","fixation","","","","",""
"1280.9699999925215","Stimuli/Hangul_M6.bmp","188","image-keyboard-response","40","77461","0.0-6.0-1.14","test",",","",",","",""
"null","<div style=""color:white; font-size:60px;"">+</div>","null","html-keyboard-response","41","78464","0.0-6.0-0.15","fixation","","","","",""
"1499.5449999987613","Stimuli/Hangul_F15.bmp","188","image-keyboard-response","42","79964","0.0-6.0-1.15","test",".","",",","",""
"null","<div style=""color:white; font-size:60px;"">+</div>","null","html-keyboard-response","43","80966","0.0-6.0-0.16","fixation","","","","",""
"1532.9250000067987","Stimuli/Hangul_M17.bmp","190","image-keyboard-response","44","82500","0.0-6.0-1.16","test",",","",".","",""
"null","<div style=""color:white; font-size:60px;"">+</div>","null","html-keyboard-response","45","83503","0.0-6.0-0.17","fixation","","","","",""
"1386.96499998332","Stimuli/Hangul_F2.bmp","188","image-keyboard-response","46","84891","0.0-6.0-1.17","test",".","",",","",""
"null","<div style=""color:white; font-size:60px;"">+</div>","null","html-keyboard-response","47","85893","0.0-6.0-0.18","fixation","","","","",""
"2018.5749999945983","Stimuli/Hangul_M19.bmp","188","image-keyboard-response","48","87912","0.0-6.0-1.18","test",",","",",","",""
"null","<div style=""color:white; font-size:60px;"">+</div>","null","html-keyboard-response","49","88913","0.0-6.0-0.19","fixation","","","","",""
"1306.6600000020117","Stimuli/Hangul_F14.bmp","190","image-keyboard-response","50","90221","0.0-6.0-1.19","test",".","",".","",""
"null","<div style=""color:white; font-size:60px;"">+</div>","null","html-keyboard-response","51","91224","0.0-6.0-0.20","fixation","","","","",""
"1210.930000001099","Stimuli/Hangul_F3.bmp","188","image-keyboard-response","52","92436","0.0-6.0-1.20","test",".","",",","",""
"null","<div style=""color:white; font-size:60px;"">+</div>","null","html-keyboard-response","53","93438","0.0-6.0-0.21","fixation","","","","",""
"1227.8499999956694","Stimuli/Hangul_M15.bmp","188","image-keyboard-response","54","94667","0.0-6.0-1.21","test",",","",",","",""
"null","<div style=""color:white; font-size:60px;"">+</div>","null","html-keyboard-response","55","95669","0.0-6.0-0.22","fixation","","","","",""
"1303.2550000061747","Stimuli/Hangul_M24.bmp","188","image-keyboard-response","56","96973","0.0-6.0-1.22","test",",","",",","",""
"null","<div style=""color:white; font-size:60px;"">+</div>","null","html-keyboard-response","57","97975","0.0-6.0-0.23","fixation","","","","",""
"1411.2000000022817","Stimuli/Hangul_F7.bmp","188","image-keyboard-response","58","99387","0.0-6.0-1.23","test",".","",",","",""
"null","<div style=""color:white; font-size:60px;"">+</div>","null","html-keyboard-response","59","100389","0.0-6.0-0.24","fixation","","","","",""
"1257.5900000229012","Stimuli/Hangul_M10.bmp","188","image-keyboard-response","60","101647","0.0-6.0-1.24","test",",","",",","",""
"null","<div style=""color:white; font-size:60px;"">+</div>","null","html-keyboard-response","61","102650","0.0-6.0-0.25","fixation","","","","",""
"1205.420000012964","Stimuli/Hangul_F8.bmp","190","image-keyboard-response","62","103856","0.0-6.0-1.25","test",".","",".","",""
"null","<div style=""color:white; font-size:60px;"">+</div>","null","html-keyboard-response","63","104858","0.0-6.0-0.26","fixation","","","","",""
"1605.085000017425","Stimuli/Hangul_M8.bmp","188","image-keyboard-response","64","106464","0.0-6.0-1.26","test",",","",",","",""
"null","<div style=""color:white; font-size:60px;"">+</div>","null","html-keyboard-response","65","107466","0.0-6.0-0.27","fixation","","","","",""
"1311.9799999985844","Stimuli/Hangul_M9.bmp","188","image-keyboard-response","66","108780","0.0-6.0-1.27","test",",","",",","",""
"null","<div style=""color:white; font-size:60px;"">+</div>","null","html-keyboard-response","67","109783","0.0-6.0-0.28","fixation","","","","",""
"1577.5299999804702","Stimuli/Hangul_F12.bmp","188","image-keyboard-response","68","111361","0.0-6.0-1.28","test",".","",",","",""
"null","<div style=""color:white; font-size:60px;"">+</div>","null","html-keyboard-response","69","112363","0.0-6.0-0.29","fixation","","","","",""
"1510.4350000037812","Stimuli/Hangul_F20.bmp","190","image-keyboard-response","70","113874","0.0-6.0-1.29","test",".","",".","",""
"null","<div style=""color:white; font-size:60px;"">+</div>","null","html-keyboard-response","71","114876","0.0-6.0-0.30","fixation","","","","",""
"1274.345000012545","Stimuli/Hangul_F5.bmp","188","image-keyboard-response","72","116151","0.0-6.0-1.30","test",".","",",","",""
"null","<div style=""color:white; font-size:60px;"">+</div>","null","html-keyboard-response","73","117152","0.0-6.0-0.31","fixation","","","","",""
"1434.0599999995902","Stimuli/Hangul_F13.bmp","188","image-keyboard-response","74","118586","0.0-6.0-1.31","test",".","",",","",""
"null","<div style=""color:white; font-size:60px;"">+</div>","null","html-keyboard-response","75","119589","0.0-6.0-0.32","fixation","","","","",""
"1901.4200000092387","Stimuli/Hangul_F16.bmp","188","image-keyboard-response","76","121491","0.0-6.0-1.32","test",".","",",","",""
"null","<div style=""color:white; font-size:60px;"">+</div>","null","html-keyboard-response","77","122494","0.0-6.0-0.33","fixation","","","","",""
"2279.205000028014","Stimuli/Hangul_F24.bmp","188","image-keyboard-response","78","124774","0.0-6.0-1.33","test",".","",",","",""
"null","<div style=""color:white; font-size:60px;"">+</div>","null","html-keyboard-response","79","125775","0.0-6.0-0.34","fixation","","","","",""
"2886.884999985341","Stimuli/Hangul_F11.bmp","188","image-keyboard-response","80","128663","0.0-6.0-1.34","test",".","",",","",""
"null","<div style=""color:white; font-size:60px;"">+</div>","null","html-keyboard-response","81","129665","0.0-6.0-0.35","fixation","","","","",""
"1667.7900000067893","Stimuli/Hangul_F21.bmp","190","image-keyboard-response","82","131334","0.0-6.0-1.35","test",".","",".","",""
"null","<div style=""color:white; font-size:60px;"">+</div>","null","html-keyboard-response","83","132336","0.0-6.0-0.36","fixation","","","","",""
"1529.3850000016391","Stimuli/Hangul_M4.bmp","188","image-keyboard-response","84","133867","0.0-6.0-1.36","test",",","",",","",""
"null","<div style=""color:white; font-size:60px;"">+</div>","null","html-keyboard-response","85","134869","0.0-6.0-0.37","fixation","","","","",""
"1616.7750000022352","Stimuli/Hangul_M5.bmp","188","image-keyboard-response","86","136486","0.0-6.0-1.37","test",",","",",","",""
"null","<div style=""color:white; font-size:60px;"">+</div>","null","html-keyboard-response","87","137489","0.0-6.0-0.38","fixation","","","","",""
"1224.015000014333","Stimuli/Hangul_F4.bmp","190","image-keyboard-response","88","138714","0.0-6.0-1.38","test",".","",".","",""
"null","<div style=""color:white; font-size:60px;"">+</div>","null","html-keyboard-response","89","139716","0.0-6.0-0.39","fixation","","","","",""
"1237.3399999924004","Stimuli/Hangul_M18.bmp","188","image-keyboard-response","90","140954","0.0-6.0-1.39","test",",","",",","",""
"null","<div style=""color:white; font-size:60px;"">+</div>","null","html-keyboard-response","91","141956","0.0-6.0-0.40","fixation","","","","",""
"1636.320000019623","Stimuli/Hangul_F23.bmp","188","image-keyboard-response","92","143594","0.0-6.0-1.40","test",".","",",","",""
"null","<div style=""color:white; font-size:60px;"">+</div>","null","html-keyboard-response","93","144596","0.0-6.0-0.41","fixation","","","","",""
"1383.3549999981187","Stimuli/Hangul_M21.bmp","188","image-keyboard-response","94","145980","0.0-6.0-1.41","test",",","",",","",""
"null","<div style=""color:white; font-size:60px;"">+</div>","null","html-keyboard-response","95","146983","0.0-6.0-0.42","fixation","","","","",""
"1229.1200000036042","Stimuli/Hangul_M22.bmp","188","image-keyboard-response","96","148213","0.0-6.0-1.42","test",",","",",","",""
"null","<div style=""color:white; font-size:60px;"">+</div>","null","html-keyboard-response","97","149214","0.0-6.0-0.43","fixation","","","","",""
"1746.4050000126008","Stimuli/Hangul_M0.bmp","190","image-keyboard-response","98","150962","0.0-6.0-1.43","test",",","",".","",""
"null","<div style=""color:white; font-size:60px;"">+</div>","null","html-keyboard-response","99","151963","0.0-6.0-0.44","fixation","","","","",""
"1268.549999978859","Stimuli/Hangul_M20.bmp","188","image-keyboard-response","100","153233","0.0-6.0-1.44","test",",","",",","",""
"null","<div style=""color:white; font-size:60px;"">+</div>","null","html-keyboard-response","101","154235","0.0-6.0-0.45","fixation","","","","",""
"1701.8150000076275","Stimuli/Hangul_F0.bmp","190","image-keyboard-response","102","155938","0.0-6.0-1.45","test",".","",".","",""
"null","<div style=""color:white; font-size:60px;"">+</div>","null","html-keyboard-response","103","156939","0.0-6.0-0.46","fixation","","","","",""
"1361.5200000058394","Stimuli/Hangul_F9.bmp","188","image-keyboard-response","104","158302","0.0-6.0-1.46","test",".","",",","",""
"null","<div style=""color:white; font-size:60px;"">+</div>","null","html-keyboard-response","105","159304","0.0-6.0-0.47","fixation","","","","",""
"1380.509999988135","Stimuli/Hangul_M12.bmp","188","image-keyboard-response","106","160685","0.0-6.0-1.47","test",",","",",","",""
"null","<div style=""color:white; font-size:60px;"">+</div>","null","html-keyboard-response","107","161687","0.0-6.0-0.48","fixation","","","","",""
"1806.2299999874085","Stimuli/Hangul_M13.bmp","188","image-keyboard-response","108","163494","0.0-6.0-1.48","test",",","",",","",""
"null","<div style=""color:white; font-size:60px;"">+</div>","null","html-keyboard-response","109","164496","0.0-6.0-0.49","fixation","","","","",""
"2527.3250000027474","Stimuli/Hangul_M1.bmp","188","image-keyboard-response","110","167024","0.0-6.0-1.49","test",",","",",","",""
"13459.490000008373","<p style=""color:white;"">Good job, block 1 complete! Please take a moment to rest.</p> <p style=""color:white;"">When you are ready to continue with block 2 of 4, press the space bar.</p> ","32","html-keyboard-response","111","180485","0.0-7.0","","","","","",""
"null","<div style=""color:white; font-size:60px;"">+</div>","null","html-keyboard-response","112","183487","0.0-8.0-0.0","fixation","","","","",""
"1988.2499999948777","Stimuli/Hangul_F35.bmp","190","image-keyboard-response","113","185477","0.0-8.0-1.0","test",".","",".","",""
"null","<div style=""color:white; font-size:60px;"">+</div>","null","html-keyboard-response","114","186479","0.0-8.0-0.1","fixation","","","","",""
"1356.1599999957252","Stimuli/Hangul_M41.bmp","188","image-keyboard-response","115","187836","0.0-8.0-1.1","test",",","",",","",""
"null","<div style=""color:white; font-size:60px;"">+</div>","null","html-keyboard-response","116","188837","0.0-8.0-0.2","fixation","","","","",""
"1281.5450000052806","Stimuli/Hangul_M42.bmp","188","image-keyboard-response","117","190120","0.0-8.0-1.2","test",",","",",","",""
"null","<div style=""color:white; font-size:60px;"">+</div>","null","html-keyboard-response","118","191123","0.0-8.0-0.3","fixation","","","","",""
"1308.2400000130292","Stimuli/Hangul_F41.bmp","190","image-keyboard-response","119","192432","0.0-8.0-1.3","test",".","",".","",""
"null","<div style=""color:white; font-size:60px;"">+</div>","null","html-keyboard-response","120","193434","0.0-8.0-0.4","fixation","","","","",""
"1310.7700000109617","Stimuli/Hangul_M37.bmp","188","image-keyboard-response","121","194746","0.0-8.0-1.4","test",",","",",","",""
"null","<div style=""color:white; font-size:60px;"">+</div>","null","html-keyboard-response","122","195749","0.0-8.0-0.5","fixation","","","","",""
"1328.8699999975506","Stimuli/Hangul_F25.bmp","188","image-keyboard-response","123","197079","0.0-8.0-1.5","test",".","",",","",""
"null","<div style=""color:white; font-size:60px;"">+</div>","null","html-keyboard-response","124","198081","0.0-8.0-0.6","fixation","","","","",""
"1328.8199999951757","Stimuli/Hangul_F40.bmp","190","image-keyboard-response","125","199411","0.0-8.0-1.6","test",".","",".","",""
"null","<div style=""color:white; font-size:60px;"">+</div>","null","html-keyboard-response","126","200412","0.0-8.0-0.7","fixation","","","","",""
"1470.2450000040699","Stimuli/Hangul_M25.bmp","188","image-keyboard-response","127","201883","0.0-8.0-1.7","test",",","",",","",""
"null","<div style=""color:white; font-size:60px;"">+</div>","null","html-keyboard-response","128","202884","0.0-8.0-0.8","fixation","","","","",""
"1442.8250000055414","Stimuli/Hangul_M36.bmp","188","image-keyboard-response","129","204328","0.0-8.0-1.8","test",",","",",","",""
"null","<div style=""color:white; font-size:60px;"">+</div>","null","html-keyboard-response","130","205330","0.0-8.0-0.9","fixation","","","","",""
"1457.6899999810848","Stimuli/Hangul_M28.bmp","188","image-keyboard-response","131","206789","0.0-8.0-1.9","test",",","",",","",""
"null","<div style=""color:white; font-size:60px;"">+</div>","null","html-keyboard-response","132","207790","0.0-8.0-0.10","fixation","","","","",""
"1248.344999999972","Stimuli/Hangul_F29.bmp","190","image-keyboard-response","133","209040","0.0-8.0-1.10","test",".","",".","",""
"null","<div style=""color:white; font-size:60px;"">+</div>","null","html-keyboard-response","134","210042","0.0-8.0-0.11","fixation","","","","",""
"1292.8050000045914","Stimuli/Hangul_F30.bmp","190","image-keyboard-response","135","211336","0.0-8.0-1.11","test",".","",".","",""
"null","<div style=""color:white; font-size:60px;"">+</div>","null","html-keyboard-response","136","212337","0.0-8.0-0.12","fixation","","","","",""
"1996.7849999957252","Stimuli/Hangul_M48.bmp","188","image-keyboard-response","137","214335","0.0-8.0-1.12","test",",","",",","",""
"null","<div style=""color:white; font-size:60px;"">+</div>","null","html-keyboard-response","138","215337","0.0-8.0-0.13","fixation","","","","",""
"1288.5050000040792","Stimuli/Hangul_F32.bmp","190","image-keyboard-response","139","216626","0.0-8.0-1.13","test",".","",".","",""
"null","<div style=""color:white; font-size:60px;"">+</div>","null","html-keyboard-response","140","217627","0.0-8.0-0.14","fixation","","","","",""
"1388.425000011921","Stimuli/Hangul_M32.bmp","188","image-keyboard-response","141","219018","0.0-8.0-1.14","test",",","",",","",""
"null","<div style=""color:white; font-size:60px;"">+</div>","null","html-keyboard-response","142","220020","0.0-8.0-0.15","fixation","","","","",""
"1401.270000002114","Stimuli/Hangul_F38.bmp","190","image-keyboard-response","143","221422","0.0-8.0-1.15","test",".","",".","",""
"null","<div style=""color:white; font-size:60px;"">+</div>","null","html-keyboard-response","144","222424","0.0-8.0-0.16","fixation","","","","",""
"1425.5549999943469","Stimuli/Hangul_M33.bmp","190","image-keyboard-response","145","223851","0.0-8.0-1.16","test",",","",".","",""
"null","<div style=""color:white; font-size:60px;"">+</div>","null","html-keyboard-response","146","224852","0.0-8.0-0.17","fixation","","","","",""
"1510.4999999748543","Stimuli/Hangul_F46.bmp","188","image-keyboard-response","147","226364","0.0-8.0-1.17","test",".","",",","",""
"null","<div style=""color:white; font-size:60px;"">+</div>","null","html-keyboard-response","148","227366","0.0-8.0-0.18","fixation","","","","",""
"1717.5749999878462","Stimuli/Hangul_M49.bmp","190","image-keyboard-response","149","229085","0.0-8.0-1.18","test",",","",".","",""
"null","<div style=""color:white; font-size:60px;"">+</div>","null","html-keyboard-response","150","230086","0.0-8.0-0.19","fixation","","","","",""
"1595.6500000029337","Stimuli/Hangul_F26.bmp","188","image-keyboard-response","151","231683","0.0-8.0-1.19","test",".","",",","",""
"null","<div style=""color:white; font-size:60px;"">+</div>","null","html-keyboard-response","152","232684","0.0-8.0-0.20","fixation","","","","",""
"1327.835000003688","Stimuli/Hangul_F31.bmp","190","image-keyboard-response","153","234013","0.0-8.0-1.20","test",".","",".","",""
"null","<div style=""color:white; font-size:60px;"">+</div>","null","html-keyboard-response","154","235014","0.0-8.0-0.21","fixation","","","","",""
"1620.3249999962281","Stimuli/Hangul_M34.bmp","188","image-keyboard-response","155","236635","0.0-8.0-1.21","test",",","",",","",""
"null","<div style=""color:white; font-size:60px;"">+</div>","null","html-keyboard-response","156","237636","0.0-8.0-0.22","fixation","","","","",""
"1262.829999992391","Stimuli/Hangul_F37.bmp","190","image-keyboard-response","157","238903","0.0-8.0-1.22","test",".","",".","",""
"null","<div style=""color:white; font-size:60px;"">+</div>","null","html-keyboard-response","158","239905","0.0-8.0-0.23","fixation","","","","",""
"1419.8099999921396","Stimuli/Hangul_M43.bmp","188","image-keyboard-response","159","241326","0.0-8.0-1.23","test",",","",",","",""
"null","<div style=""color:white; font-size:60px;"">+</div>","null","html-keyboard-response","160","242329","0.0-8.0-0.24","fixation","","","","",""
"1649.6249999909196","Stimuli/Hangul_M29.bmp","188","image-keyboard-response","161","243979","0.0-8.0-1.24","test",",","",",","",""
"null","<div style=""color:white; font-size:60px;"">+</div>","null","html-keyboard-response","162","244981","0.0-8.0-0.25","fixation","","","","",""
"1672.549999988405","Stimuli/Hangul_M26.bmp","188","image-keyboard-response","163","246654","0.0-8.0-1.25","test",",","",",","",""
"null","<div style=""color:white; font-size:60px;"">+</div>","null","html-keyboard-response","164","247657","0.0-8.0-0.26","fixation","","","","",""
"1331.2100000039209","Stimuli/Hangul_M27.bmp","188","image-keyboard-response","165","248990","0.0-8.0-1.26","test",",","",",","",""
"null","<div style=""color:white; font-size:60px;"">+</div>","null","html-keyboard-response","166","249991","0.0-8.0-0.27","fixation","","","","",""
"1209.549999999581","Stimuli/Hangul_F39.bmp","190","image-keyboard-response","167","251202","0.0-8.0-1.27","test",".","",".","",""
"null","<div style=""color:white; font-size:60px;"">+</div>","null","html-keyboard-response","168","252203","0.0-8.0-0.28","fixation","","","","",""
"1297.0099999802187","Stimuli/Hangul_F36.bmp","188","image-keyboard-response","169","253501","0.0-8.0-1.28","test",".","",",","",""
"null","<div style=""color:white; font-size:60px;"">+</div>","null","html-keyboard-response","170","254502","0.0-8.0-0.29","fixation","","","","",""
"1358.6050000158139","Stimuli/Hangul_M46.bmp","188","image-keyboard-response","171","255862","0.0-8.0-1.29","test",",","",",","",""
"null","<div style=""color:white; font-size:60px;"">+</div>","null","html-keyboard-response","172","256864","0.0-8.0-0.30","fixation","","","","",""
"1756.9899999944028","Stimuli/Hangul_F48.bmp","190","image-keyboard-response","173","258622","0.0-8.0-1.30","test",".","",".","",""
"null","<div style=""color:white; font-size:60px;"">+</div>","null","html-keyboard-response","174","259623","0.0-8.0-0.31","fixation","","","","",""
"1653.9300000004005","Stimuli/Hangul_F28.bmp","190","image-keyboard-response","175","261278","0.0-8.0-1.31","test",".","",".","",""
"null","<div style=""color:white; font-size:60px;"">+</div>","null","html-keyboard-response","176","262280","0.0-8.0-0.32","fixation","","","","",""
"1245.599999994738","Stimuli/Hangul_F42.bmp","190","image-keyboard-response","177","263526","0.0-8.0-1.32","test",".","",".","",""
"null","<div style=""color:white; font-size:60px;"">+</div>","null","html-keyboard-response","178","264529","0.0-8.0-0.33","fixation","","","","",""
"1283.5750000085682","Stimuli/Hangul_F43.bmp","188","image-keyboard-response","179","265813","0.0-8.0-1.33","test",".","",",","",""
"null","<div style=""color:white; font-size:60px;"">+</div>","null","html-keyboard-response","180","266815","0.0-8.0-0.34","fixation","","","","",""
"1316.4350000151899","Stimuli/Hangul_M39.bmp","188","image-keyboard-response","181","268133","0.0-8.0-1.34","test",",","",",","",""
"null","<div style=""color:white; font-size:60px;"">+</div>","null","html-keyboard-response","182","269135","0.0-8.0-0.35","fixation","","","","",""
"1346.609999978682","Stimuli/Hangul_F44.bmp","190","image-keyboard-response","183","270482","0.0-8.0-1.35","test",".","",".","",""
"null","<div style=""color:white; font-size:60px;"">+</div>","null","html-keyboard-response","184","271485","0.0-8.0-0.36","fixation","","","","",""
"1319.935000006808","Stimuli/Hangul_M47.bmp","188","image-keyboard-response","185","272806","0.0-8.0-1.36","test",",","",",","",""
"null","<div style=""color:white; font-size:60px;"">+</div>","null","html-keyboard-response","186","273807","0.0-8.0-0.37","fixation","","","","",""
"1311.2600000167731","Stimuli/Hangul_F45.bmp","190","image-keyboard-response","187","275120","0.0-8.0-1.37","test",".","",".","",""
"null","<div style=""color:white; font-size:60px;"">+</div>","null","html-keyboard-response","188","276122","0.0-8.0-0.38","fixation","","","","",""
"1399.5350000041071","Stimuli/Hangul_M44.bmp","188","image-keyboard-response","189","277522","0.0-8.0-1.38","test",",","",",","",""
"null","<div style=""color:white; font-size:60px;"">+</div>","null","html-keyboard-response","190","278524","0.0-8.0-0.39","fixation","","","","",""
"1326.8849999876693","Stimuli/Hangul_F27.bmp","188","image-keyboard-response","191","279852","0.0-8.0-1.39","test",".","",",","",""
"null","<div style=""color:white; font-size:60px;"">+</div>","null","html-keyboard-response","192","280853","0.0-8.0-0.40","fixation","","","","",""
"1307.4049999995623","Stimuli/Hangul_F34.bmp","190","image-keyboard-response","193","282162","0.0-8.0-1.40","test",".","",".","",""
"null","<div style=""color:white; font-size:60px;"">+</div>","null","html-keyboard-response","194","283164","0.0-8.0-0.41","fixation","","","","",""
"1351.6549999767449","Stimuli/Hangul_M45.bmp","188","image-keyboard-response","195","284517","0.0-8.0-1.41","test",",","",",","",""
"null","<div style=""color:white; font-size:60px;"">+</div>","null","html-keyboard-response","196","285519","0.0-8.0-0.42","fixation","","","","",""
"1351.7849999770988","Stimuli/Hangul_F33.bmp","190","image-keyboard-response","197","286872","0.0-8.0-1.42","test",".","",".","",""
"null","<div style=""color:white; font-size:60px;"">+</div>","null","html-keyboard-response","198","287873","0.0-8.0-0.43","fixation","","","","",""
"1425.3199999802746","Stimuli/Hangul_M38.bmp","188","image-keyboard-response","199","289300","0.0-8.0-1.43","test",",","",",","",""
"null","<div style=""color:white; font-size:60px;"">+</div>","null","html-keyboard-response","200","290302","0.0-8.0-0.44","fixation","","","","",""
"1414.0150000166614","Stimuli/Hangul_F49.bmp","188","image-keyboard-response","201","291717","0.0-8.0-1.44","test",".","",",","",""
"null","<div style=""color:white; font-size:60px;"">+</div>","null","html-keyboard-response","202","292719","0.0-8.0-0.45","fixation","","","","",""
"1316.7499999981374","Stimuli/Hangul_M35.bmp","188","image-keyboard-response","203","294037","0.0-8.0-1.45","test",",","",",","",""
"null","<div style=""color:white; font-size:60px;"">+</div>","null","html-keyboard-response","204","295037","0.0-8.0-0.46","fixation","","","","",""
"1697.310000017751","Stimuli/Hangul_M30.bmp","190","image-keyboard-response","205","296735","0.0-8.0-1.46","test",",","",".","",""
"null","<div style=""color:white; font-size:60px;"">+</div>","null","html-keyboard-response","206","297736","0.0-8.0-0.47","fixation","","","","",""
"1774.810000002617","Stimuli/Hangul_F47.bmp","190","image-keyboard-response","207","299512","0.0-8.0-1.47","test",".","",".","",""
"null","<div style=""color:white; font-size:60px;"">+</div>","null","html-keyboard-response","208","300514","0.0-8.0-0.48","fixation","","","","",""
"1524.1099999984726","Stimuli/Hangul_M40.bmp","188","image-keyboard-response","209","302039","0.0-8.0-1.48","test",",","",",","",""
"null","<div style=""color:white; font-size:60px;"">+</div>","null","html-keyboard-response","210","303040","0.0-8.0-0.49","fixation","","","","",""
"1486.8900000001304","Stimuli/Hangul_M31.bmp","188","image-keyboard-response","211","304527","0.0-8.0-1.49","test",",","",",","",""
"22491.64500000188","<p style=""color:white;"">Half way there! Please take a moment to rest.</p> <p style=""color:white;"">When you are ready to continue with block 3 of 4, press the space bar.</p> ","32","html-keyboard-response","212","327020","0.0-9.0","","","","","",""
"null","<div style=""color:white; font-size:60px;"">+</div>","null","html-keyboard-response","213","330022","0.0-10.0-0.0","fixation","","","","",""
"1556.89499998698","Stimuli/Hangul_M63.bmp","188","image-keyboard-response","214","331581","0.0-10.0-1.0","test",",","",",","",""
"null","<div style=""color:white; font-size:60px;"">+</div>","null","html-keyboard-response","215","332582","0.0-10.0-0.1","fixation","","","","",""
"1359.599999996135","Stimuli/Hangul_F72.bmp","188","image-keyboard-response","216","333942","0.0-10.0-1.1","test",".","",",","",""
"null","<div style=""color:white; font-size:60px;"">+</div>","null","html-keyboard-response","217","334944","0.0-10.0-0.2","fixation","","","","",""
"1374.6099999989383","Stimuli/Hangul_M58.bmp","188","image-keyboard-response","218","336319","0.0-10.0-1.2","test",",","",",","",""
"null","<div style=""color:white; font-size:60px;"">+</div>","null","html-keyboard-response","219","337321","0.0-10.0-0.3","fixation","","","","",""
"1198.0200000107288","Stimuli/Hangul_F71.bmp","190","image-keyboard-response","220","338520","0.0-10.0-1.3","test",".","",".","",""
"null","<div style=""color:white; font-size:60px;"">+</div>","null","html-keyboard-response","221","339522","0.0-10.0-0.4","fixation","","","","",""
"1267.310000024736","Stimuli/Hangul_F57.bmp","190","image-keyboard-response","222","340790","0.0-10.0-1.4","test",".","",".","",""
"null","<div style=""color:white; font-size:60px;"">+</div>","null","html-keyboard-response","223","341792","0.0-10.0-0.5","fixation","","","","",""
"1357.8200000047218","Stimuli/Hangul_M50.bmp","188","image-keyboard-response","224","343150","0.0-10.0-1.5","test",",","",",","",""
"null","<div style=""color:white; font-size:60px;"">+</div>","null","html-keyboard-response","225","344152","0.0-10.0-0.6","fixation","","","","",""
"1513.969999999972","Stimuli/Hangul_M72.bmp","188","image-keyboard-response","226","345667","0.0-10.0-1.6","test",",","",",","",""
"null","<div style=""color:white; font-size:60px;"">+</div>","null","html-keyboard-response","227","346668","0.0-10.0-0.7","fixation","","","","",""
"1332.6950000191573","Stimuli/Hangul_F59.bmp","190","image-keyboard-response","228","348001","0.0-10.0-1.7","test",".","",".","",""
"null","<div style=""color:white; font-size:60px;"">+</div>","null","html-keyboard-response","229","349004","0.0-10.0-0.8","fixation","","","","",""
"1637.9600000218488","Stimuli/Hangul_F54.bmp","188","image-keyboard-response","230","350643","0.0-10.0-1.8","test",".","",",","",""
"null","<div style=""color:white; font-size:60px;"">+</div>","null","html-keyboard-response","231","351645","0.0-10.0-0.9","fixation","","","","",""
"1401.5800000051968","Stimuli/Hangul_M74.bmp","188","image-keyboard-response","232","353047","0.0-10.0-1.9","test",",","",",","",""
"null","<div style=""color:white; font-size:60px;"">+</div>","null","html-keyboard-response","233","354050","0.0-10.0-0.10","fixation","","","","",""
"1499.55000000773","Stimuli/Hangul_F51.bmp","190","image-keyboard-response","234","355551","0.0-10.0-1.10","test",".","",".","",""
"null","<div style=""color:white; font-size:60px;"">+</div>","null","html-keyboard-response","235","356552","0.0-10.0-0.11","fixation","","","","",""
"1607.640000001993","Stimuli/Hangul_M66.bmp","188","image-keyboard-response","236","358161","0.0-10.0-1.11","test",",","",",","",""
"null","<div style=""color:white; font-size:60px;"">+</div>","null","html-keyboard-response","237","359163","0.0-10.0-0.12","fixation","","","","",""
"1307.3549999971874","Stimuli/Hangul_F60.bmp","190","image-keyboard-response","238","360472","0.0-10.0-1.12","test",".","",".","",""
"null","<div style=""color:white; font-size:60px;"">+</div>","null","html-keyboard-response","239","361475","0.0-10.0-0.13","fixation","","","","",""
"1527.234999986831","Stimuli/Hangul_F61.bmp","188","image-keyboard-response","240","363003","0.0-10.0-1.13","test",".","",",","",""
"null","<div style=""color:white; font-size:60px;"">+</div>","null","html-keyboard-response","241","364004","0.0-10.0-0.14","fixation","","","","",""
"2029.8650000186171","Stimuli/Hangul_M59.bmp","190","image-keyboard-response","242","366034","0.0-10.0-1.14","test",",","",".","",""
"null","<div style=""color:white; font-size:60px;"">+</div>","null","html-keyboard-response","243","367037","0.0-10.0-0.15","fixation","","","","",""
"1671.9800000137184","Stimuli/Hangul_M70.bmp","190","image-keyboard-response","244","368710","0.0-10.0-1.15","test",",","",".","",""
"null","<div style=""color:white; font-size:60px;"">+</div>","null","html-keyboard-response","245","369712","0.0-10.0-0.16","fixation","","","","",""
"1826.100000005681","Stimuli/Hangul_F56.bmp","190","image-keyboard-response","246","371539","0.0-10.0-1.16","test",".","",".","",""
"null","<div style=""color:white; font-size:60px;"">+</div>","null","html-keyboard-response","247","372541","0.0-10.0-0.17","fixation","","","","",""
"1328.5450000257697","Stimuli/Hangul_F66.bmp","190","image-keyboard-response","248","373870","0.0-10.0-1.17","test",".","",".","",""
"null","<div style=""color:white; font-size:60px;"">+</div>","null","html-keyboard-response","249","374873","0.0-10.0-0.18","fixation","","","","",""
"2068.2949999754783","Stimuli/Hangul_M56.bmp","190","image-keyboard-response","250","376941","0.0-10.0-1.18","test",",","",".","",""
"null","<div style=""color:white; font-size:60px;"">+</div>","null","html-keyboard-response","251","377942","0.0-10.0-0.19","fixation","","","","",""
"1827.7150000212714","Stimuli/Hangul_M68.bmp","188","image-keyboard-response","252","379771","0.0-10.0-1.19","test",",","",",","",""
"null","<div style=""color:white; font-size:60px;"">+</div>","null","html-keyboard-response","253","380772","0.0-10.0-0.20","fixation","","","","",""
"1890.625","Stimuli/Hangul_F50.bmp","190","image-keyboard-response","254","382664","0.0-10.0-1.20","test",".","",".","",""
"null","<div style=""color:white; font-size:60px;"">+</div>","null","html-keyboard-response","255","383667","0.0-10.0-0.21","fixation","","","","",""
"1534.2250000103377","Stimuli/Hangul_M60.bmp","188","image-keyboard-response","256","385202","0.0-10.0-1.21","test",",","",",","",""
"null","<div style=""color:white; font-size:60px;"">+</div>","null","html-keyboard-response","257","386204","0.0-10.0-0.22","fixation","","","","",""
"1195.479999994859","Stimuli/Hangul_F64.bmp","190","image-keyboard-response","258","387401","0.0-10.0-1.22","test",".","",".","",""
"null","<div style=""color:white; font-size:60px;"">+</div>","null","html-keyboard-response","259","388403","0.0-10.0-0.23","fixation","","","","",""
"1688.6200000008103","Stimuli/Hangul_M55.bmp","188","image-keyboard-response","260","390092","0.0-10.0-1.23","test",",","",",","",""
"null","<div style=""color:white; font-size:60px;"">+</div>","null","html-keyboard-response","261","391094","0.0-10.0-0.24","fixation","","","","",""
"1491.6099999973085","Stimuli/Hangul_M51.bmp","188","image-keyboard-response","262","392586","0.0-10.0-1.24","test",",","",",","",""
"null","<div style=""color:white; font-size:60px;"">+</div>","null","html-keyboard-response","263","393589","0.0-10.0-0.25","fixation","","","","",""
"1218.9150000049267","Stimuli/Hangul_F69.bmp","190","image-keyboard-response","264","394808","0.0-10.0-1.25","test",".","",".","",""
"null","<div style=""color:white; font-size:60px;"">+</div>","null","html-keyboard-response","265","395811","0.0-10.0-0.26","fixation","","","","",""
"1439.075000002049","Stimuli/Hangul_M64.bmp","188","image-keyboard-response","266","397250","0.0-10.0-1.26","test",",","",",","",""
"null","<div style=""color:white; font-size:60px;"">+</div>","null","html-keyboard-response","267","398253","0.0-10.0-0.27","fixation","","","","",""
"1315.085000009276","Stimuli/Hangul_F65.bmp","190","image-keyboard-response","268","399569","0.0-10.0-1.27","test",".","",".","",""
"null","<div style=""color:white; font-size:60px;"">+</div>","null","html-keyboard-response","269","400571","0.0-10.0-0.28","fixation","","","","",""
"1450.2450000145473","Stimuli/Hangul_F55.bmp","188","image-keyboard-response","270","402022","0.0-10.0-1.28","test",".","",",","",""
"null","<div style=""color:white; font-size:60px;"">+</div>","null","html-keyboard-response","271","403024","0.0-10.0-0.29","fixation","","","","",""
"1313.5099999781232","Stimuli/Hangul_M52.bmp","188","image-keyboard-response","272","404338","0.0-10.0-1.29","test",",","",",","",""
"null","<div style=""color:white; font-size:60px;"">+</div>","null","html-keyboard-response","273","405340","0.0-10.0-0.30","fixation","","","","",""
"2228.0350000073668","Stimuli/Hangul_F62.bmp","190","image-keyboard-response","274","407568","0.0-10.0-1.30","test",".","",".","",""
"null","<div style=""color:white; font-size:60px;"">+</div>","null","html-keyboard-response","275","408570","0.0-10.0-0.31","fixation","","","","",""
"1466.0250000015367","Stimuli/Hangul_F68.bmp","190","image-keyboard-response","276","410037","0.0-10.0-1.31","test",".","",".","",""
"null","<div style=""color:white; font-size:60px;"">+</div>","null","html-keyboard-response","277","411039","0.0-10.0-0.32","fixation","","","","",""
"1632.2199999995064","Stimuli/Hangul_F70.bmp","190","image-keyboard-response","278","412672","0.0-10.0-1.32","test",".","",".","",""
"null","<div style=""color:white; font-size:60px;"">+</div>","null","html-keyboard-response","279","413675","0.0-10.0-0.33","fixation","","","","",""
"1396.3649999932386","Stimuli/Hangul_M71.bmp","190","image-keyboard-response","280","415072","0.0-10.0-1.33","test",",","",".","",""
"null","<div style=""color:white; font-size:60px;"">+</div>","null","html-keyboard-response","281","416073","0.0-10.0-0.34","fixation","","","","",""
"1502.8099999763072","Stimuli/Hangul_F63.bmp","188","image-keyboard-response","282","417577","0.0-10.0-1.34","test",".","",",","",""
"null","<div style=""color:white; font-size:60px;"">+</div>","null","html-keyboard-response","283","418580","0.0-10.0-0.35","fixation","","","","",""
"1459.7000000067055","Stimuli/Hangul_M67.bmp","190","image-keyboard-response","284","420040","0.0-10.0-1.35","test",",","",".","",""
"null","<div style=""color:white; font-size:60px;"">+</div>","null","html-keyboard-response","285","421042","0.0-10.0-0.36","fixation","","","","",""
"1729.4549999933224","Stimuli/Hangul_M53.bmp","190","image-keyboard-response","286","422773","0.0-10.0-1.36","test",",","",".","",""
"null","<div style=""color:white; font-size:60px;"">+</div>","null","html-keyboard-response","287","423775","0.0-10.0-0.37","fixation","","","","",""
"1731.6649999993388","Stimuli/Hangul_F58.bmp","188","image-keyboard-response","288","425507","0.0-10.0-1.37","test",".","",",","",""
"null","<div style=""color:white; font-size:60px;"">+</div>","null","html-keyboard-response","289","426509","0.0-10.0-0.38","fixation","","","","",""
"1929.7549999901094","Stimuli/Hangul_F52.bmp","190","image-keyboard-response","290","428440","0.0-10.0-1.38","test",".","",".","",""
"null","<div style=""color:white; font-size:60px;"">+</div>","null","html-keyboard-response","291","429443","0.0-10.0-0.39","fixation","","","","",""
"1699.7749999864027","Stimuli/Hangul_M57.bmp","188","image-keyboard-response","292","431143","0.0-10.0-1.39","test",",","",",","",""
"null","<div style=""color:white; font-size:60px;"">+</div>","null","html-keyboard-response","293","432145","0.0-10.0-0.40","fixation","","","","",""
"1364.7449999989476","Stimuli/Hangul_F73.bmp","190","image-keyboard-response","294","433511","0.0-10.0-1.40","test",".","",".","",""
"null","<div style=""color:white; font-size:60px;"">+</div>","null","html-keyboard-response","295","434513","0.0-10.0-0.41","fixation","","","","",""
"1390.610000002198","Stimuli/Hangul_M54.bmp","188","image-keyboard-response","296","435904","0.0-10.0-1.41","test",",","",",","",""
"null","<div style=""color:white; font-size:60px;"">+</div>","null","html-keyboard-response","297","436906","0.0-10.0-0.42","fixation","","","","",""
"1409.3599999905564","Stimuli/Hangul_F74.bmp","190","image-keyboard-response","298","438316","0.0-10.0-1.42","test",".","",".","",""
"null","<div style=""color:white; font-size:60px;"">+</div>","null","html-keyboard-response","299","439317","0.0-10.0-0.43","fixation","","","","",""
"1376.7400000069756","Stimuli/Hangul_M61.bmp","188","image-keyboard-response","300","440694","0.0-10.0-1.43","test",",","",",","",""
"null","<div style=""color:white; font-size:60px;"">+</div>","null","html-keyboard-response","301","441698","0.0-10.0-0.44","fixation","","","","",""
"1625.2199999871664","Stimuli/Hangul_M62.bmp","188","image-keyboard-response","302","443323","0.0-10.0-1.44","test",",","",",","",""
"null","<div style=""color:white; font-size:60px;"">+</div>","null","html-keyboard-response","303","444325","0.0-10.0-0.45","fixation","","","","",""
"1424.6099999872968","Stimuli/Hangul_F67.bmp","188","image-keyboard-response","304","445751","0.0-10.0-1.45","test",".","",",","",""
"null","<div style=""color:white; font-size:60px;"">+</div>","null","html-keyboard-response","305","446754","0.0-10.0-0.46","fixation","","","","",""
"1421.0949999978766","Stimuli/Hangul_F53.bmp","190","image-keyboard-response","306","448175","0.0-10.0-1.46","test",".","",".","",""
"null","<div style=""color:white; font-size:60px;"">+</div>","null","html-keyboard-response","307","449177","0.0-10.0-0.47","fixation","","","","",""
"1635.855000000447","Stimuli/Hangul_M73.bmp","188","image-keyboard-response","308","450813","0.0-10.0-1.47","test",",","",",","",""
"null","<div style=""color:white; font-size:60px;"">+</div>","null","html-keyboard-response","309","451815","0.0-10.0-0.48","fixation","","","","",""
"1290.4100000159815","Stimuli/Hangul_M65.bmp","188","image-keyboard-response","310","453107","0.0-10.0-1.48","test",",","",",","",""
"null","<div style=""color:white; font-size:60px;"">+</div>","null","html-keyboard-response","311","454108","0.0-10.0-0.49","fixation","","","","",""
"2010.16500001424","Stimuli/Hangul_M69.bmp","188","image-keyboard-response","312","456120","0.0-10.0-1.49","test",",","",",","",""
"23389.349999983096","<p style=""color:white;"">One more block to go! Please take a moment to rest.</p> <p style=""color:white;"">When you are ready to continue with block 4 of 4, press the space bar.</p> ","32","html-keyboard-response","313","479510","0.0-11.0","","","","","",""
"null","<div style=""color:white; font-size:60px;"">+</div>","null","html-keyboard-response","314","482513","0.0-12.0-0.0","fixation","","","","",""
"1555.675000010524","Stimuli/Hangul_F92.bmp","190","image-keyboard-response","315","484070","0.0-12.0-1.0","test",".","",".","",""
"null","<div style=""color:white; font-size:60px;"">+</div>","null","html-keyboard-response","316","485071","0.0-12.0-0.1","fixation","","","","",""
"2309.739999996964","Stimuli/Hangul_F78.bmp","190","image-keyboard-response","317","487382","0.0-12.0-1.1","test",".","",".","",""
"null","<div style=""color:white; font-size:60px;"">+</div>","null","html-keyboard-response","318","488385","0.0-12.0-0.2","fixation","","","","",""
"1592.594999994617","Stimuli/Hangul_M85.bmp","188","image-keyboard-response","319","489978","0.0-12.0-1.2","test",",","",",","",""
"null","<div style=""color:white; font-size:60px;"">+</div>","null","html-keyboard-response","320","490980","0.0-12.0-0.3","fixation","","","","",""
"1495.454999996582","Stimuli/Hangul_M90.bmp","188","image-keyboard-response","321","492477","0.0-12.0-1.3","test",",","",",","",""
"null","<div style=""color:white; font-size:60px;"">+</div>","null","html-keyboard-response","322","493479","0.0-12.0-0.4","fixation","","","","",""
"1339.045000000624","Stimuli/Hangul_F86.bmp","190","image-keyboard-response","323","494819","0.0-12.0-1.4","test",".","",".","",""
"null","<div style=""color:white; font-size:60px;"">+</div>","null","html-keyboard-response","324","495820","0.0-12.0-0.5","fixation","","","","",""
"1183.4399999934249","Stimuli/Hangul_F80.bmp","190","image-keyboard-response","325","497005","0.0-12.0-1.5","test",".","",".","",""
"null","<div style=""color:white; font-size:60px;"">+</div>","null","html-keyboard-response","326","498006","0.0-12.0-0.6","fixation","","","","",""
"1226.3350000139326","Stimuli/Hangul_F84.bmp","190","image-keyboard-response","327","499233","0.0-12.0-1.6","test",".","",".","",""
"null","<div style=""color:white; font-size:60px;"">+</div>","null","html-keyboard-response","328","500236","0.0-12.0-0.7","fixation","","","","",""
"1486.7050000175368","Stimuli/Hangul_M91.bmp","188","image-keyboard-response","329","501723","0.0-12.0-1.7","test",",","",",","",""
"null","<div style=""color:white; font-size:60px;"">+</div>","null","html-keyboard-response","330","502725","0.0-12.0-0.8","fixation","","","","",""
"2370.1250000158325","Stimuli/Hangul_M82.bmp","188","image-keyboard-response","331","505097","0.0-12.0-1.8","test",",","",",","",""
"null","<div style=""color:white; font-size:60px;"">+</div>","null","html-keyboard-response","332","506100","0.0-12.0-0.9","fixation","","","","",""
"1572.0750000036787","Stimuli/Hangul_M76.bmp","188","image-keyboard-response","333","507673","0.0-12.0-1.9","test",",","",",","",""
"null","<div style=""color:white; font-size:60px;"">+</div>","null","html-keyboard-response","334","508675","0.0-12.0-0.10","fixation","","","","",""
"1333.1649999890942","Stimuli/Hangul_M94.bmp","188","image-keyboard-response","335","510010","0.0-12.0-1.10","test",",","",",","",""
"null","<div style=""color:white; font-size:60px;"">+</div>","null","html-keyboard-response","336","511011","0.0-12.0-0.11","fixation","","","","",""
"1392.6400000054855","Stimuli/Hangul_F94.bmp","190","image-keyboard-response","337","512405","0.0-12.0-1.11","test",".","",".","",""
"null","<div style=""color:white; font-size:60px;"">+</div>","null","html-keyboard-response","338","513408","0.0-12.0-0.12","fixation","","","","",""
"1231.6350000037346","Stimuli/Hangul_F98.bmp","190","image-keyboard-response","339","514640","0.0-12.0-1.12","test",".","",".","",""
"null","<div style=""color:white; font-size:60px;"">+</div>","null","html-keyboard-response","340","515642","0.0-12.0-0.13","fixation","","","","",""
"1199.7949999931734","Stimuli/Hangul_F79.bmp","190","image-keyboard-response","341","516842","0.0-12.0-1.13","test",".","",".","",""
"null","<div style=""color:white; font-size:60px;"">+</div>","null","html-keyboard-response","342","517845","0.0-12.0-0.14","fixation","","","","",""
"1395.1949999900535","Stimuli/Hangul_F97.bmp","190","image-keyboard-response","343","519241","0.0-12.0-1.14","test",".","",".","",""
"null","<div style=""color:white; font-size:60px;"">+</div>","null","html-keyboard-response","344","520243","0.0-12.0-0.15","fixation","","","","",""
"1357.0750000071712","Stimuli/Hangul_F77.bmp","190","image-keyboard-response","345","521600","0.0-12.0-1.15","test",".","",".","",""
"null","<div style=""color:white; font-size:60px;"">+</div>","null","html-keyboard-response","346","522602","0.0-12.0-0.16","fixation","","","","",""
"1242.9300000076182","Stimuli/Hangul_F93.bmp","190","image-keyboard-response","347","523846","0.0-12.0-1.16","test",".","",".","",""
"null","<div style=""color:white; font-size:60px;"">+</div>","null","html-keyboard-response","348","524848","0.0-12.0-0.17","fixation","","","","",""
"1395.8550000097603","Stimuli/Hangul_F91.bmp","188","image-keyboard-response","349","526244","0.0-12.0-1.17","test",".","",",","",""
"null","<div style=""color:white; font-size:60px;"">+</div>","null","html-keyboard-response","350","527247","0.0-12.0-0.18","fixation","","","","",""
"1397.6399999810383","Stimuli/Hangul_M92.bmp","188","image-keyboard-response","351","528645","0.0-12.0-1.18","test",",","",",","",""
"null","<div style=""color:white; font-size:60px;"">+</div>","null","html-keyboard-response","352","529648","0.0-12.0-0.19","fixation","","","","",""
"1299.589999980526","Stimuli/Hangul_F82.bmp","190","image-keyboard-response","353","530949","0.0-12.0-1.19","test",".","",".","",""
"null","<div style=""color:white; font-size:60px;"">+</div>","null","html-keyboard-response","354","531954","0.0-12.0-0.20","fixation","","","","",""
"1297.6699999999255","Stimuli/Hangul_F87.bmp","190","image-keyboard-response","355","533253","0.0-12.0-1.20","test",".","",".","",""
"null","<div style=""color:white; font-size:60px;"">+</div>","null","html-keyboard-response","356","534256","0.0-12.0-0.21","fixation","","","","",""
"1308.2200000062585","Stimuli/Hangul_M77.bmp","188","image-keyboard-response","357","535565","0.0-12.0-1.21","test",",","",",","",""
"null","<div style=""color:white; font-size:60px;"">+</div>","null","html-keyboard-response","358","536567","0.0-12.0-0.22","fixation","","","","",""
"1584.3199999944773","Stimuli/Hangul_M86.bmp","188","image-keyboard-response","359","538152","0.0-12.0-1.22","test",",","",",","",""
"null","<div style=""color:white; font-size:60px;"">+</div>","null","html-keyboard-response","360","539153","0.0-12.0-0.23","fixation","","","","",""
"1205.1299999875482","Stimuli/Hangul_F85.bmp","190","image-keyboard-response","361","540359","0.0-12.0-1.23","test",".","",".","",""
"null","<div style=""color:white; font-size:60px;"">+</div>","null","html-keyboard-response","362","541362","0.0-12.0-0.24","fixation","","","","",""
"1289.8600000189617","Stimuli/Hangul_M97.bmp","188","image-keyboard-response","363","542652","0.0-12.0-1.24","test",",","",",","",""
"null","<div style=""color:white; font-size:60px;"">+</div>","null","html-keyboard-response","364","543654","0.0-12.0-0.25","fixation","","","","",""
"1479.6499999938533","Stimuli/Hangul_M87.bmp","190","image-keyboard-response","365","545135","0.0-12.0-1.25","test",",","",".","",""
"null","<div style=""color:white; font-size:60px;"">+</div>","null","html-keyboard-response","366","546136","0.0-12.0-0.26","fixation","","","","",""
"1370.7149999972899","Stimuli/Hangul_M79.bmp","188","image-keyboard-response","367","547508","0.0-12.0-1.26","test",",","",",","",""
"null","<div style=""color:white; font-size:60px;"">+</div>","null","html-keyboard-response","368","548509","0.0-12.0-0.27","fixation","","","","",""
"1365.1149999932386","Stimuli/Hangul_M89.bmp","188","image-keyboard-response","369","549875","0.0-12.0-1.27","test",",","",",","",""
"null","<div style=""color:white; font-size:60px;"">+</div>","null","html-keyboard-response","370","550877","0.0-12.0-0.28","fixation","","","","",""
"1355.6849999877159","Stimuli/Hangul_M93.bmp","188","image-keyboard-response","371","552234","0.0-12.0-1.28","test",",","",",","",""
"null","<div style=""color:white; font-size:60px;"">+</div>","null","html-keyboard-response","372","553235","0.0-12.0-0.29","fixation","","","","",""
"2126.974999991944","Stimuli/Hangul_F90.bmp","190","image-keyboard-response","373","555363","0.0-12.0-1.29","test",".","",".","",""
"null","<div style=""color:white; font-size:60px;"">+</div>","null","html-keyboard-response","374","556364","0.0-12.0-0.30","fixation","","","","",""
"1442.9400000080932","Stimuli/Hangul_F89.bmp","190","image-keyboard-response","375","557808","0.0-12.0-1.30","test",".","",".","",""
"null","<div style=""color:white; font-size:60px;"">+</div>","null","html-keyboard-response","376","558810","0.0-12.0-0.31","fixation","","","","",""
"1410.345000011148","Stimuli/Hangul_F83.bmp","190","image-keyboard-response","377","560222","0.0-12.0-1.31","test",".","",".","",""
"null","<div style=""color:white; font-size:60px;"">+</div>","null","html-keyboard-response","378","561223","0.0-12.0-0.32","fixation","","","","",""
"1529.9400000076275","Stimuli/Hangul_M96.bmp","188","image-keyboard-response","379","562754","0.0-12.0-1.32","test",",","",",","",""
"null","<div style=""color:white; font-size:60px;"">+</div>","null","html-keyboard-response","380","563755","0.0-12.0-0.33","fixation","","","","",""
"1383.3549999981187","Stimuli/Hangul_F95.bmp","190","image-keyboard-response","381","565139","0.0-12.0-1.33","test",".","",".","",""
"null","<div style=""color:white; font-size:60px;"">+</div>","null","html-keyboard-response","382","566141","0.0-12.0-0.34","fixation","","","","",""
"1287.9350000002887","Stimuli/Hangul_M78.bmp","188","image-keyboard-response","383","567430","0.0-12.0-1.34","test",",","",",","",""
"null","<div style=""color:white; font-size:60px;"">+</div>","null","html-keyboard-response","384","568433","0.0-12.0-0.35","fixation","","","","",""
"1426.0450000001583","Stimuli/Hangul_M98.bmp","188","image-keyboard-response","385","569860","0.0-12.0-1.35","test",",","",",","",""
"null","<div style=""color:white; font-size:60px;"">+</div>","null","html-keyboard-response","386","570862","0.0-12.0-0.36","fixation","","","","",""
"1826.889999996638","Stimuli/Hangul_M95.bmp","188","image-keyboard-response","387","572690","0.0-12.0-1.36","test",",","",",","",""
"null","<div style=""color:white; font-size:60px;"">+</div>","null","html-keyboard-response","388","573692","0.0-12.0-0.37","fixation","","","","",""
"1616.3399999786634","Stimuli/Hangul_M75.bmp","188","image-keyboard-response","389","575310","0.0-12.0-1.37","test",",","",",","",""
"null","<div style=""color:white; font-size:60px;"">+</div>","null","html-keyboard-response","390","576312","0.0-12.0-0.38","fixation","","","","",""
"1337.1700000134297","Stimuli/Hangul_M88.bmp","188","image-keyboard-response","391","577650","0.0-12.0-1.38","test",",","",",","",""
"null","<div style=""color:white; font-size:60px;"">+</div>","null","html-keyboard-response","392","578652","0.0-12.0-0.39","fixation","","","","",""
"1164.9900000193156","Stimuli/Hangul_M84.bmp","190","image-keyboard-response","393","579819","0.0-12.0-1.39","test",",","",".","",""
"null","<div style=""color:white; font-size:60px;"">+</div>","null","html-keyboard-response","394","580820","0.0-12.0-0.40","fixation","","","","",""
"1203.219999995781","Stimuli/Hangul_F76.bmp","190","image-keyboard-response","395","582024","0.0-12.0-1.40","test",".","",".","",""
"null","<div style=""color:white; font-size:60px;"">+</div>","null","html-keyboard-response","396","583026","0.0-12.0-0.41","fixation","","","","",""
"1247.2199999901932","Stimuli/Hangul_F81.bmp","190","image-keyboard-response","397","584274","0.0-12.0-1.41","test",".","",".","",""
"null","<div style=""color:white; font-size:60px;"">+</div>","null","html-keyboard-response","398","585276","0.0-12.0-0.42","fixation","","","","",""
"1135.3600000147708","Stimuli/Hangul_F75.bmp","190","image-keyboard-response","399","586413","0.0-12.0-1.42","test",".","",".","",""
"null","<div style=""color:white; font-size:60px;"">+</div>","null","html-keyboard-response","400","587414","0.0-12.0-0.43","fixation","","","","",""
"1175.21499999566","Stimuli/Hangul_F88.bmp","190","image-keyboard-response","401","588590","0.0-12.0-1.43","test",".","",".","",""
"null","<div style=""color:white; font-size:60px;"">+</div>","null","html-keyboard-response","402","589593","0.0-12.0-0.44","fixation","","","","",""
"1399.5350000041071","Stimuli/Hangul_M83.bmp","188","image-keyboard-response","403","590993","0.0-12.0-1.44","test",",","",",","",""
"null","<div style=""color:white; font-size:60px;"">+</div>","null","html-keyboard-response","404","591995","0.0-12.0-0.45","fixation","","","","",""
"1398.4050000144634","Stimuli/Hangul_M99.bmp","188","image-keyboard-response","405","593394","0.0-12.0-1.45","test",",","",",","",""
"null","<div style=""color:white; font-size:60px;"">+</div>","null","html-keyboard-response","406","594396","0.0-12.0-0.46","fixation","","","","",""
"1308.3500000066124","Stimuli/Hangul_F99.bmp","188","image-keyboard-response","407","595705","0.0-12.0-1.46","test",".","",",","",""
"null","<div style=""color:white; font-size:60px;"">+</div>","null","html-keyboard-response","408","596708","0.0-12.0-0.47","fixation","","","","",""
"1407.5900000170805","Stimuli/Hangul_M80.bmp","188","image-keyboard-response","409","598117","0.0-12.0-1.47","test",",","",",","",""
"null","<div style=""color:white; font-size:60px;"">+</div>","null","html-keyboard-response","410","599119","0.0-12.0-0.48","fixation","","","","",""
"1433.2749999884982","Stimuli/Hangul_M81.bmp","188","image-keyboard-response","411","600553","0.0-12.0-1.48","test",",","",",","",""
"null","<div style=""color:white; font-size:60px;"">+</div>","null","html-keyboard-response","412","601554","0.0-12.0-0.49","fixation","","","","",""
"1245.790000015404","Stimuli/Hangul_F96.bmp","190","image-keyboard-response","413","602801","0.0-12.0-1.49","test",".","",".","",""
"2829.1599999938626","<p style=""color:white;"">Phase I of the experiment is complete.</p> <p style=""color:white;"">Press the space bar to proceed to Phase II of the experiment.</p> ","32","html-keyboard-response","414","605632","0.0-13.0","","","","","",""
"37142.35499998904","<p style=""color:white;"">Now we are interested in how well you can predict patterns in the series of figures. You will be asked to predict whether the next figure in the series is more male-like or female-like. When you see the <q>Next Figure</q> prompt, press the corresponding response keys to indicate your prediction: </p><p style=""color:white;""> Male &#8594 <q>,</q> (comma)</p><p style=""color:white;""> Female &#8594 <q>.</q> (period)</p><p style=""color:white;"">The actual figure will then appear on the screen. After you see the figure, please guess the assigned gender with response keys. </p><p style=""color:white;"">As before, you will receive 2 cents for correctly classifying each figure.</p><p style=""color:white;"">Press either response keys to continue.</p>","190","html-keyboard-response","415","644777","0.0-14.0","","","","","",""
"14410.520000004908","<p style=""color:white;"">PREDICTION BONUS</p> <p style=""color:white;"">Your prediction accuracy is the total number of correct predictions you make over the 200 trials.</p> <p style=""color:white;"">In addition to the 2 cents per correct figure classification, you have the chance to receive a bonus of 40 dollars IF your accuracy is above average relative to previous participants.</p><p style=""color:white;"">If your accuracy is below average relative to previous participants, then you will not receive the 40 dollar bonus.</p><p style=""color:white;"">Press the space bar to continue.</p>","32","html-keyboard-response","416","659188","0.0-15.0","","","","","",""
"11148.959999991348","<p style=""color:white;"">Here are some examples.</p> <p style=""color:white;"">For each, predict whether the next figure looks more male-like or female-like. Then, when the figure appears, guess whether it looks more male-like or female-like and indicate your choice.</p> <p style=""color:white;"">Press the space bar to continue.</p>","32","html-keyboard-response","417","670338","0.0-16.0","","","","","",""
"1503.724999987753","<p style=""color:white;""> Next Figure: Male or Female? </p>","190","html-keyboard-response","418","673844","0.0-17.0-0.0","prediction_train","","","",".",""
"null","<div style=""color:white; font-size:60px;"">+</div>","null","html-keyboard-response","419","674847","0.0-17.0-1.0","fixation","","","","",""
"1333.2750000117812","Stimuli/Hangul_E1.bmp","188","image-keyboard-response","420","676183","0.0-17.0-2.0","c2_train",",","","","",","
"982.9449999961071","<p style=""color:white;""> Next Figure: Male or Female? </p>","188","html-keyboard-response","421","677167","0.0-17.0-0.1","prediction_train","","","",",",""
"null","<div style=""color:white; font-size:60px;"">+</div>","null","html-keyboard-response","422","678169","0.0-17.0-1.1","fixation","","","","",""
"969.7849999938626","Stimuli/Hangul_E0.bmp","188","image-keyboard-response","423","679140","0.0-17.0-2.1","c2_train",",","","","",","
"1130.6599999952596","<p style=""color:white;""> Next Figure: Male or Female? </p>","190","html-keyboard-response","424","680271","0.0-17.0-0.2","prediction_train","","","",".",""
"null","<div style=""color:white; font-size:60px;"">+</div>","null","html-keyboard-response","425","681272","0.0-17.0-1.2","fixation","","","","",""
"1269.2049999895971","Stimuli/Hangul_E2.bmp","190","image-keyboard-response","426","682542","0.0-17.0-2.2","c2_train",".","","","","."
"2827.7499999967404","<p style=""color:white;"">Let us begin! Press the space bar when you are ready to start block 1 of 4.</p> ","32","html-keyboard-response","427","685371","0.0-18.0","","","","","",""
"1141.3650000176858","<p style=""color:white;""> Next Figure: Male or Female? </p>","190","html-keyboard-response","428","688515","0.0-19.0-0.0","prediction","","","",".",""
"null","<div style=""color:white; font-size:60px;"">+</div>","null","html-keyboard-response","429","689517","0.0-19.0-1.0","fixation","","","","",""
"627.6100000250153","Stimuli/Hangul_M10.bmp","188","image-keyboard-response","430","690146","0.0-19.0-2.0","c2_test",",","","","",","
"1460.045000014361","<p style=""color:white;""> Next Figure: Male or Female? </p>","188","html-keyboard-response","431","691607","0.0-19.0-0.1","prediction","","","",",",""
"null","<div style=""color:white; font-size:60px;"">+</div>","null","html-keyboard-response","432","692608","0.0-19.0-1.1","fixation","","","","",""
"648.430000001099","Stimuli/Hangul_M9.bmp","188","image-keyboard-response","433","693257","0.0-19.0-2.1","c2_test",",","","","",","
"1106.6950000240467","<p style=""color:white;""> Next Figure: Male or Female? </p>","190","html-keyboard-response","434","694365","0.0-19.0-0.2","prediction","","","",".",""
"null","<div style=""color:white; font-size:60px;"">+</div>","null","html-keyboard-response","435","695366","0.0-19.0-1.2","fixation","","","","",""
"761.6500000003725","Stimuli/Hangul_M15.bmp","188","image-keyboard-response","436","696128","0.0-19.0-2.2","c2_test",",","","","",","
"1531.5350000164472","<p style=""color:white;""> Next Figure: Male or Female? </p>","188","html-keyboard-response","437","697661","0.0-19.0-0.3","prediction","","","",",",""
"null","<div style=""color:white; font-size:60px;"">+</div>","null","html-keyboard-response","438","698663","0.0-19.0-1.3","fixation","","","","",""
"945.8900000026915","Stimuli/Hangul_M8.bmp","188","image-keyboard-response","439","699611","0.0-19.0-2.3","c2_test",",","","","",","
"1510.7199999911245","<p style=""color:white;""> Next Figure: Male or Female? </p>","190","html-keyboard-response","440","701123","0.0-19.0-0.4","prediction","","","",".",""
"null","<div style=""color:white; font-size:60px;"">+</div>","null","html-keyboard-response","441","702124","0.0-19.0-1.4","fixation","","","","",""
"664.6400000026915","Stimuli/Hangul_F10.bmp","190","image-keyboard-response","442","702792","0.0-19.0-2.4","c2_test",".","","","","."
"1925.069999997504","<p style=""color:white;""> Next Figure: Male or Female? </p>","190","html-keyboard-response","443","704718","0.0-19.0-0.5","prediction","","","",".",""
"null","<div style=""color:white; font-size:60px;"">+</div>","null","html-keyboard-response","444","705719","0.0-19.0-1.5","fixation","","","","",""
"654.3450000172015","Stimuli/Hangul_M17.bmp","188","image-keyboard-response","445","706375","0.0-19.0-2.5","c2_test",",","","","",","
"1533.8900000206195","<p style=""color:white;""> Next Figure: Male or Female? </p>","188","html-keyboard-response","446","707910","0.0-19.0-0.6","prediction","","","",",",""
"null","<div style=""color:white; font-size:60px;"">+</div>","null","html-keyboard-response","447","708911","0.0-19.0-1.6","fixation","","","","",""
"881.9150000053924","Stimuli/Hangul_F15.bmp","188","image-keyboard-response","448","709794","0.0-19.0-2.6","c2_test",".","","","",","
"1492.324999999255","<p style=""color:white;""> Next Figure: Male or Female? </p>","190","html-keyboard-response","449","711287","0.0-19.0-0.7","prediction","","","",".",""
"null","<div style=""color:white; font-size:60px;"">+</div>","null","html-keyboard-response","450","712288","0.0-19.0-1.7","fixation","","","","",""
"792.7349999954458","Stimuli/Hangul_M7.bmp","188","image-keyboard-response","451","713082","0.0-19.0-2.7","c2_test",",","","","",","
"1162.9800000227988","<p style=""color:white;""> Next Figure: Male or Female? </p>","188","html-keyboard-response","452","714246","0.0-19.0-0.8","prediction","","","",",",""
"null","<div style=""color:white; font-size:60px;"">+</div>","null","html-keyboard-response","453","715248","0.0-19.0-1.8","fixation","","","","",""
"1164.7850000008475","Stimuli/Hangul_M23.bmp","188","image-keyboard-response","454","716414","0.0-19.0-2.8","c2_test",",","","","",","
"1818.794999999227","<p style=""color:white;""> Next Figure: Male or Female? </p>","188","html-keyboard-response","455","718233","0.0-19.0-0.9","prediction","","","",",",""
"null","<div style=""color:white; font-size:60px;"">+</div>","null","html-keyboard-response","456","719234","0.0-19.0-1.9","fixation","","","","",""
"966.6849999921396","Stimuli/Hangul_M14.bmp","188","image-keyboard-response","457","720202","0.0-19.0-2.9","c2_test",",","","","",","
"1158.0600000161212","<p style=""color:white;""> Next Figure: Male or Female? </p>","190","html-keyboard-response","458","721361","0.0-19.0-0.10","prediction","","","",".",""
"null","<div style=""color:white; font-size:60px;"">+</div>","null","html-keyboard-response","459","722363","0.0-19.0-1.10","fixation","","","","",""
"511.5850000001956","Stimuli/Hangul_F21.bmp","190","image-keyboard-response","460","722876","0.0-19.0-2.10","c2_test",".","","","","."
"1435.2150000049733","<p style=""color:white;""> Next Figure: Male or Female? </p>","188","html-keyboard-response","461","724312","0.0-19.0-0.11","prediction","","","",",",""
"null","<div style=""color:white; font-size:60px;"">+</div>","null","html-keyboard-response","462","725314","0.0-19.0-1.11","fixation","","","","",""
"626.6750000067987","Stimuli/Hangul_M22.bmp","188","image-keyboard-response","463","725941","0.0-19.0-2.11","c2_test",",","","","",","
"1418.9750000077765","<p style=""color:white;""> Next Figure: Male or Female? </p>","188","html-keyboard-response","464","727362","0.0-19.0-0.12","prediction","","","",",",""
"null","<div style=""color:white; font-size:60px;"">+</div>","null","html-keyboard-response","465","728363","0.0-19.0-1.12","fixation","","","","",""
"769.6050000085961","Stimuli/Hangul_M4.bmp","188","image-keyboard-response","466","729134","0.0-19.0-2.12","c2_test",",","","","",","
"1281.3550000137184","<p style=""color:white;""> Next Figure: Male or Female? </p>","190","html-keyboard-response","467","730417","0.0-19.0-0.13","prediction","","","",".",""
"null","<div style=""color:white; font-size:60px;"">+</div>","null","html-keyboard-response","468","731419","0.0-19.0-1.13","fixation","","","","",""
"760.2100000076462","Stimuli/Hangul_M16.bmp","188","image-keyboard-response","469","732181","0.0-19.0-2.13","c2_test",",","","","",","
"1382.0450000057463","<p style=""color:white;""> Next Figure: Male or Female? </p>","188","html-keyboard-response","470","733564","0.0-19.0-0.14","prediction","","","",",",""
"null","<div style=""color:white; font-size:60px;"">+</div>","null","html-keyboard-response","471","734567","0.0-19.0-1.14","fixation","","","","",""
"732.1499999961816","Stimuli/Hangul_F6.bmp","188","image-keyboard-response","472","735300","0.0-19.0-2.14","c2_test",".","","","",","
"1739.8050000192598","<p style=""color:white;""> Next Figure: Male or Female? </p>","188","html-keyboard-response","473","737041","0.0-19.0-0.15","prediction","","","",",",""
"null","<div style=""color:white; font-size:60px;"">+</div>","null","html-keyboard-response","474","738043","0.0-19.0-1.15","fixation","","","","",""
"896.775000001071","Stimuli/Hangul_F8.bmp","190","image-keyboard-response","475","738941","0.0-19.0-2.15","c2_test",".","","","","."
"1690.1899999938905","<p style=""color:white;""> Next Figure: Male or Female? </p>","188","html-keyboard-response","476","740632","0.0-19.0-0.16","prediction","","","",",",""
"null","<div style=""color:white; font-size:60px;"">+</div>","null","html-keyboard-response","477","741634","0.0-19.0-1.16","fixation","","","","",""
"1092.3649999895133","Stimuli/Hangul_F18.bmp","190","image-keyboard-response","478","742729","0.0-19.0-2.16","c2_test",".","","","","."
"1176.8250000022817","<p style=""color:white;""> Next Figure: Male or Female? </p>","188","html-keyboard-response","479","743909","0.0-19.0-0.17","prediction","","","",",",""
"null","<div style=""color:white; font-size:60px;"">+</div>","null","html-keyboard-response","480","744911","0.0-19.0-1.17","fixation","","","","",""
"731.9250000000466","Stimuli/Hangul_M12.bmp","188","image-keyboard-response","481","745644","0.0-19.0-2.17","c2_test",",","","","",","
"1698.2199999911245","<p style=""color:white;""> Next Figure: Male or Female? </p>","188","html-keyboard-response","482","747343","0.0-19.0-0.18","prediction","","","",",",""
"null","<div style=""color:white; font-size:60px;"">+</div>","null","html-keyboard-response","483","748345","0.0-19.0-1.18","fixation","","","","",""
"763.7949999771081","Stimuli/Hangul_F2.bmp","188","image-keyboard-response","484","749110","0.0-19.0-2.18","c2_test",".","","","",","
"941.2350000056904","<p style=""color:white;""> Next Figure: Male or Female? </p>","190","html-keyboard-response","485","750052","0.0-19.0-0.19","prediction","","","",".",""
"null","<div style=""color:white; font-size:60px;"">+</div>","null","html-keyboard-response","486","751054","0.0-19.0-1.19","fixation","","","","",""
"556.8099999800324","Stimuli/Hangul_F4.bmp","190","image-keyboard-response","487","751612","0.0-19.0-2.19","c2_test",".","","","","."
"1584.7999999823514","<p style=""color:white;""> Next Figure: Male or Female? </p>","190","html-keyboard-response","488","753197","0.0-19.0-0.20","prediction","","","",".",""
"null","<div style=""color:white; font-size:60px;"">+</div>","null","html-keyboard-response","489","754199","0.0-19.0-1.20","fixation","","","","",""
"999.1149999841582","Stimuli/Hangul_M5.bmp","188","image-keyboard-response","490","755199","0.0-19.0-2.20","c2_test",",","","","",","
"1039.120000001276","<p style=""color:white;""> Next Figure: Male or Female? </p>","188","html-keyboard-response","491","756240","0.0-19.0-0.21","prediction","","","",",",""
"null","<div style=""color:white; font-size:60px;"">+</div>","null","html-keyboard-response","492","757241","0.0-19.0-1.21","fixation","","","","",""
"1006.3099999970291","Stimuli/Hangul_F19.bmp","188","image-keyboard-response","493","758248","0.0-19.0-2.21","c2_test",".","","","",","
"1775.5550000001676","<p style=""color:white;""> Next Figure: Male or Female? </p>","188","html-keyboard-response","494","760024","0.0-19.0-0.22","prediction","","","",",",""
"null","<div style=""color:white; font-size:60px;"">+</div>","null","html-keyboard-response","495","761026","0.0-19.0-1.22","fixation","","","","",""
"881.4350000175182","Stimuli/Hangul_F14.bmp","190","image-keyboard-response","496","761909","0.0-19.0-2.22","c2_test",".","","","","."
"1390.3449999925215","<p style=""color:white;""> Next Figure: Male or Female? </p>","188","html-keyboard-response","497","763300","0.0-19.0-0.23","prediction","","","",",",""
"null","<div style=""color:white; font-size:60px;"">+</div>","null","html-keyboard-response","498","764302","0.0-19.0-1.23","fixation","","","","",""
"1131.4699999929871","Stimuli/Hangul_F20.bmp","188","image-keyboard-response","499","765436","0.0-19.0-2.23","c2_test",".","","","",","
"1098.8250000227708","<p style=""color:white;""> Next Figure: Male or Female? </p>","188","html-keyboard-response","500","766535","0.0-19.0-0.24","prediction","","","",",",""
"null","<div style=""color:white; font-size:60px;"">+</div>","null","html-keyboard-response","501","767537","0.0-19.0-1.24","fixation","","","","",""
"1044.1200000059325","Stimuli/Hangul_M21.bmp","188","image-keyboard-response","502","768582","0.0-19.0-2.24","c2_test",",","","","",","
"924.6149999962654","<p style=""color:white;""> Next Figure: Male or Female? </p>","190","html-keyboard-response","503","769508","0.0-19.0-0.25","prediction","","","",".",""
"null","<div style=""color:white; font-size:60px;"">+</div>","null","html-keyboard-response","504","770510","0.0-19.0-1.25","fixation","","","","",""
"895.1599999854807","Stimuli/Hangul_M19.bmp","188","image-keyboard-response","505","771406","0.0-19.0-2.25","c2_test",",","","","",","
"1447.5950000050943","<p style=""color:white;""> Next Figure: Male or Female? </p>","190","html-keyboard-response","506","772855","0.0-19.0-0.26","prediction","","","",".",""
"null","<div style=""color:white; font-size:60px;"">+</div>","null","html-keyboard-response","507","773856","0.0-19.0-1.26","fixation","","","","",""
"1105.1450000086334","Stimuli/Hangul_F17.bmp","188","image-keyboard-response","508","774963","0.0-19.0-2.26","c2_test",".","","","",","
"1131.0900000098627","<p style=""color:white;""> Next Figure: Male or Female? </p>","188","html-keyboard-response","509","776095","0.0-19.0-0.27","prediction","","","",",",""
"null","<div style=""color:white; font-size:60px;"">+</div>","null","html-keyboard-response","510","777098","0.0-19.0-1.27","fixation","","","","",""
"731.0649999999441","Stimuli/Hangul_F12.bmp","188","image-keyboard-response","511","777830","0.0-19.0-2.27","c2_test",".","","","",","
"1515.9500000008848","<p style=""color:white;""> Next Figure: Male or Female? </p>","188","html-keyboard-response","512","779347","0.0-19.0-0.28","prediction","","","",",",""
"null","<div style=""color:white; font-size:60px;"">+</div>","null","html-keyboard-response","513","780349","0.0-19.0-1.28","fixation","","","","",""
"704.6699999773409","Stimuli/Hangul_M6.bmp","188","image-keyboard-response","514","781055","0.0-19.0-2.28","c2_test",",","","","",","
"855.7150000124238","<p style=""color:white;""> Next Figure: Male or Female? </p>","190","html-keyboard-response","515","781912","0.0-19.0-0.29","prediction","","","",".",""
"null","<div style=""color:white; font-size:60px;"">+</div>","null","html-keyboard-response","516","782914","0.0-19.0-1.29","fixation","","","","",""
"859.920000017155","Stimuli/Hangul_M24.bmp","188","image-keyboard-response","517","783775","0.0-19.0-2.29","c2_test",",","","","",","
"1098.5950000176672","<p style=""color:white;""> Next Figure: Male or Female? </p>","190","html-keyboard-response","518","784874","0.0-19.0-0.30","prediction","","","",".",""
"null","<div style=""color:white; font-size:60px;"">+</div>","null","html-keyboard-response","519","785876","0.0-19.0-1.30","fixation","","","","",""
"901.3149999955203","Stimuli/Hangul_F0.bmp","188","image-keyboard-response","520","786780","0.0-19.0-2.30","c2_test",".","","","",","
"846.6850000259001","<p style=""color:white;""> Next Figure: Male or Female? </p>","188","html-keyboard-response","521","787628","0.0-19.0-0.31","prediction","","","",",",""
"null","<div style=""color:white; font-size:60px;"">+</div>","null","html-keyboard-response","522","788629","0.0-19.0-1.31","fixation","","","","",""
"792.2600000165403","Stimuli/Hangul_M2.bmp","188","image-keyboard-response","523","789422","0.0-19.0-2.31","c2_test",",","","","",","
"1203.639999992447","<p style=""color:white;""> Next Figure: Male or Female? </p>","188","html-keyboard-response","524","790627","0.0-19.0-0.32","prediction","","","",",",""
"null","<div style=""color:white; font-size:60px;"">+</div>","null","html-keyboard-response","525","791629","0.0-19.0-1.32","fixation","","","","",""
"1305.144999991171","Stimuli/Hangul_M13.bmp","188","image-keyboard-response","526","792936","0.0-19.0-2.32","c2_test",",","","","",","
"1062.3949999862816","<p style=""color:white;""> Next Figure: Male or Female? </p>","190","html-keyboard-response","527","793999","0.0-19.0-0.33","prediction","","","",".",""
"null","<div style=""color:white; font-size:60px;"">+</div>","null","html-keyboard-response","528","795001","0.0-19.0-1.33","fixation","","","","",""
"892.7949999924749","Stimuli/Hangul_F5.bmp","188","image-keyboard-response","529","795895","0.0-19.0-2.33","c2_test",".","","","",","
"858.8800000143237","<p style=""color:white;""> Next Figure: Male or Female? </p>","188","html-keyboard-response","530","796754","0.0-19.0-0.34","prediction","","","",",",""
"null","<div style=""color:white; font-size:60px;"">+</div>","null","html-keyboard-response","531","797757","0.0-19.0-1.34","fixation","","","","",""
"883.8500000128988","Stimuli/Hangul_F9.bmp","188","image-keyboard-response","532","798642","0.0-19.0-2.34","c2_test",".","","","",","
"1306.7949999822304","<p style=""color:white;""> Next Figure: Male or Female? </p>","188","html-keyboard-response","533","799950","0.0-19.0-0.35","prediction","","","",",",""
"null","<div style=""color:white; font-size:60px;"">+</div>","null","html-keyboard-response","534","800952","0.0-19.0-1.35","fixation","","","","",""
"1386.06499999878","Stimuli/Hangul_F22.bmp","188","image-keyboard-response","535","802339","0.0-19.0-2.35","c2_test",".","","","",","
"712.9150000109803","<p style=""color:white;""> Next Figure: Male or Female? </p>","190","html-keyboard-response","536","803053","0.0-19.0-0.36","prediction","","","",".",""
"null","<div style=""color:white; font-size:60px;"">+</div>","null","html-keyboard-response","537","804056","0.0-19.0-1.36","fixation","","","","",""
"1220.5850000027567","Stimuli/Hangul_F3.bmp","188","image-keyboard-response","538","805278","0.0-19.0-2.36","c2_test",".","","","",","
"1104.749999998603","<p style=""color:white;""> Next Figure: Male or Female? </p>","190","html-keyboard-response","539","806384","0.0-19.0-0.37","prediction","","","",".",""
"null","<div style=""color:white; font-size:60px;"">+</div>","null","html-keyboard-response","540","807386","0.0-19.0-1.37","fixation","","","","",""
"831.7150000075344","Stimuli/Hangul_F1.bmp","190","image-keyboard-response","541","808219","0.0-19.0-2.37","c2_test",".","","","","."
"1711.5250000206288","<p style=""color:white;""> Next Figure: Male or Female? </p>","190","html-keyboard-response","542","809931","0.0-19.0-0.38","prediction","","","",".",""
"null","<div style=""color:white; font-size:60px;"">+</div>","null","html-keyboard-response","543","810934","0.0-19.0-1.38","fixation","","","","",""
"766.2049999926239","Stimuli/Hangul_M3.bmp","188","image-keyboard-response","544","811702","0.0-19.0-2.38","c2_test",",","","","",","
"935.6449999904726","<p style=""color:white;""> Next Figure: Male or Female? </p>","190","html-keyboard-response","545","812638","0.0-19.0-0.39","prediction","","","",".",""
"null","<div style=""color:white; font-size:60px;"">+</div>","null","html-keyboard-response","546","813640","0.0-19.0-1.39","fixation","","","","",""
"1044.7649999987334","Stimuli/Hangul_F24.bmp","188","image-keyboard-response","547","814686","0.0-19.0-2.39","c2_test",".","","","",","
"703.0799999774899","<p style=""color:white;""> Next Figure: Male or Female? </p>","188","html-keyboard-response","548","815390","0.0-19.0-0.40","prediction","","","",",",""
"null","<div style=""color:white; font-size:60px;"">+</div>","null","html-keyboard-response","549","816393","0.0-19.0-1.40","fixation","","","","",""
"831.8649999855552","Stimuli/Hangul_M0.bmp","188","image-keyboard-response","550","817226","0.0-19.0-2.40","c2_test",",","","","",","
"772.6149999944028","<p style=""color:white;""> Next Figure: Male or Female? </p>","188","html-keyboard-response","551","817999","0.0-19.0-0.41","prediction","","","",",",""
"null","<div style=""color:white; font-size:60px;"">+</div>","null","html-keyboard-response","552","819001","0.0-19.0-1.41","fixation","","","","",""
"920.1750000065658","Stimuli/Hangul_M18.bmp","188","image-keyboard-response","553","819922","0.0-19.0-2.41","c2_test",",","","","",","
"911.6800000192598","<p style=""color:white;""> Next Figure: Male or Female? </p>","190","html-keyboard-response","554","820835","0.0-19.0-0.42","prediction","","","",".",""
"null","<div style=""color:white; font-size:60px;"">+</div>","null","html-keyboard-response","555","821837","0.0-19.0-1.42","fixation","","","","",""
"834.4950000173412","Stimuli/Hangul_F7.bmp","188","image-keyboard-response","556","822673","0.0-19.0-2.42","c2_test",".","","","",","
"854.8700000101235","<p style=""color:white;""> Next Figure: Male or Female? </p>","188","html-keyboard-response","557","823529","0.0-19.0-0.43","prediction","","","",",",""
"null","<div style=""color:white; font-size:60px;"">+</div>","null","html-keyboard-response","558","824532","0.0-19.0-1.43","fixation","","","","",""
"646.0150000057183","Stimuli/Hangul_F13.bmp","188","image-keyboard-response","559","825178","0.0-19.0-2.43","c2_test",".","","","",","
"1542.8149999934249","<p style=""color:white;""> Next Figure: Male or Female? </p>","190","html-keyboard-response","560","826722","0.0-19.0-0.44","prediction","","","",".",""
"null","<div style=""color:white; font-size:60px;"">+</div>","null","html-keyboard-response","561","827723","0.0-19.0-1.44","fixation","","","","",""
"884.8699999798555","Stimuli/Hangul_F11.bmp","188","image-keyboard-response","562","828610","0.0-19.0-2.44","c2_test",".","","","",","
"962.1299999998882","<p style=""color:white;""> Next Figure: Male or Female? </p>","188","html-keyboard-response","563","829573","0.0-19.0-0.45","prediction","","","",",",""
"null","<div style=""color:white; font-size:60px;"">+</div>","null","html-keyboard-response","564","830574","0.0-19.0-1.45","fixation","","","","",""
"791.0899999842513","Stimuli/Hangul_M11.bmp","188","image-keyboard-response","565","831367","0.0-19.0-2.45","c2_test",",","","","",","
"1022.2000000067055","<p style=""color:white;""> Next Figure: Male or Female? </p>","190","html-keyboard-response","566","832390","0.0-19.0-0.46","prediction","","","",".",""
"null","<div style=""color:white; font-size:60px;"">+</div>","null","html-keyboard-response","567","833393","0.0-19.0-1.46","fixation","","","","",""
"948.789999994915","Stimuli/Hangul_M20.bmp","188","image-keyboard-response","568","834343","0.0-19.0-2.46","c2_test",",","","","",","
"823.9099999773316","<p style=""color:white;""> Next Figure: Male or Female? </p>","188","html-keyboard-response","569","835169","0.0-19.0-0.47","prediction","","","",",",""
"null","<div style=""color:white; font-size:60px;"">+</div>","null","html-keyboard-response","570","836171","0.0-19.0-1.47","fixation","","","","",""
"744.6449999988545","Stimuli/Hangul_M1.bmp","188","image-keyboard-response","571","836917","0.0-19.0-2.47","c2_test",",","","","",","
"1231.7200000106823","<p style=""color:white;""> Next Figure: Male or Female? </p>","188","html-keyboard-response","572","838150","0.0-19.0-0.48","prediction","","","",",",""
"null","<div style=""color:white; font-size:60px;"">+</div>","null","html-keyboard-response","573","839151","0.0-19.0-1.48","fixation","","","","",""
"1065.83999999566","Stimuli/Hangul_F23.bmp","188","image-keyboard-response","574","840218","0.0-19.0-2.48","c2_test",".","","","",","
"754.4949999719393","<p style=""color:white;""> Next Figure: Male or Female? </p>","190","html-keyboard-response","575","840973","0.0-19.0-0.49","prediction","","","",".",""
"null","<div style=""color:white; font-size:60px;"">+</div>","null","html-keyboard-response","576","841976","0.0-19.0-1.49","fixation","","","","",""
"911.8199999793433","Stimuli/Hangul_F16.bmp","188","image-keyboard-response","577","842889","0.0-19.0-2.49","c2_test",".","","","",","
"3975.6500000075903","<p style=""color:white;"">Good job, block 1 complete! Please take a moment to rest.</p> <p style=""color:white;"">When you are ready to continue with block 2 of 4, press the space bar.</p> ","32","html-keyboard-response","578","846866","0.0-20.0","","","","","",""
"757.2749999817461","<p style=""color:white;""> Next Figure: Male or Female? </p>","190","html-keyboard-response","579","849626","0.0-21.0-0.0","prediction","","","",".",""
"null","<div style=""color:white; font-size:60px;"">+</div>","null","html-keyboard-response","580","850628","0.0-21.0-1.0","fixation","","","","",""
"1328.9350000268314","Stimuli/Hangul_M35.bmp","188","image-keyboard-response","581","851958","0.0-21.0-2.0","c2_test",",","","","",","
"1057.6249999867287","<p style=""color:white;""> Next Figure: Male or Female? </p>","190","html-keyboard-response","582","853016","0.0-21.0-0.1","prediction","","","",".",""
"null","<div style=""color:white; font-size:60px;"">+</div>","null","html-keyboard-response","583","854018","0.0-21.0-1.1","fixation","","","","",""
"1094.4949999975506","Stimuli/Hangul_F37.bmp","190","image-keyboard-response","584","855113","0.0-21.0-2.1","c2_test",".","","","","."
"711.2950000155251","<p style=""color:white;""> Next Figure: Male or Female? </p>","188","html-keyboard-response","585","855825","0.0-21.0-0.2","prediction","","","",",",""
"null","<div style=""color:white; font-size:60px;"">+</div>","null","html-keyboard-response","586","856827","0.0-21.0-1.2","fixation","","","","",""
"884.810000017751","Stimuli/Hangul_F35.bmp","190","image-keyboard-response","587","857713","0.0-21.0-2.2","c2_test",".","","","","."
"1074.6750000107568","<p style=""color:white;""> Next Figure: Male or Female? </p>","188","html-keyboard-response","588","858789","0.0-21.0-0.3","prediction","","","",",",""
"null","<div style=""color:white; font-size:60px;"">+</div>","null","html-keyboard-response","589","859792","0.0-21.0-1.3","fixation","","","","",""
"821.3350000150967","Stimuli/Hangul_F47.bmp","188","image-keyboard-response","590","860614","0.0-21.0-2.3","c2_test",".","","","",","
"741.2600000097882","<p style=""color:white;""> Next Figure: Male or Female? </p>","190","html-keyboard-response","591","861357","0.0-21.0-0.4","prediction","","","",".",""
"null","<div style=""color:white; font-size:60px;"">+</div>","null","html-keyboard-response","592","862358","0.0-21.0-1.4","fixation","","","","",""
"789.3049999838695","Stimuli/Hangul_M28.bmp","188","image-keyboard-response","593","863148","0.0-21.0-2.4","c2_test",",","","","",","
"1166.575000010198","<p style=""color:white;""> Next Figure: Male or Female? </p>","188","html-keyboard-response","594","864315","0.0-21.0-0.5","prediction","","","",",",""
"null","<div style=""color:white; font-size:60px;"">+</div>","null","html-keyboard-response","595","865318","0.0-21.0-1.5","fixation","","","","",""
"554.470000002766","Stimuli/Hangul_M37.bmp","188","image-keyboard-response","596","865873","0.0-21.0-2.5","c2_test",",","","","",","
"702.1599999861792","<p style=""color:white;""> Next Figure: Male or Female? </p>","188","html-keyboard-response","597","866576","0.0-21.0-0.6","prediction","","","",",",""
"null","<div style=""color:white; font-size:60px;"">+</div>","null","html-keyboard-response","598","867579","0.0-21.0-1.6","fixation","","","","",""
"664.9650000035763","Stimuli/Hangul_F32.bmp","190","image-keyboard-response","599","868244","0.0-21.0-2.6","c2_test",".","","","","."
"962.2650000092108","<p style=""color:white;""> Next Figure: Male or Female? </p>","188","html-keyboard-response","600","869208","0.0-21.0-0.7","prediction","","","",",",""
"null","<div style=""color:white; font-size:60px;"">+</div>","null","html-keyboard-response","601","870210","0.0-21.0-1.7","fixation","","","","",""
"564.1149999864865","Stimuli/Hangul_M48.bmp","188","image-keyboard-response","602","870774","0.0-21.0-2.7","c2_test",",","","","",","
"797.2000000008848","<p style=""color:white;""> Next Figure: Male or Female? </p>","188","html-keyboard-response","603","871572","0.0-21.0-0.8","prediction","","","",",",""
"null","<div style=""color:white; font-size:60px;"">+</div>","null","html-keyboard-response","604","872575","0.0-21.0-1.8","fixation","","","","",""
"904.404999979306","Stimuli/Hangul_M45.bmp","188","image-keyboard-response","605","873480","0.0-21.0-2.8","c2_test",",","","","",","
"775.1200000056997","<p style=""color:white;""> Next Figure: Male or Female? </p>","190","html-keyboard-response","606","874256","0.0-21.0-0.9","prediction","","","",".",""
"null","<div style=""color:white; font-size:60px;"">+</div>","null","html-keyboard-response","607","875257","0.0-21.0-1.9","fixation","","","","",""
"747.0599999942351","Stimuli/Hangul_F43.bmp","188","image-keyboard-response","608","876006","0.0-21.0-2.9","c2_test",".","","","",","
"649.4550000061281","<p style=""color:white;""> Next Figure: Male or Female? </p>","188","html-keyboard-response","609","876656","0.0-21.0-0.10","prediction","","","",",",""
"null","<div style=""color:white; font-size:60px;"">+</div>","null","html-keyboard-response","610","877658","0.0-21.0-1.10","fixation","","","","",""
"665.2049999975134","Stimuli/Hangul_F36.bmp","188","image-keyboard-response","611","878324","0.0-21.0-2.10","c2_test",".","","","",","
"659.4800000020768","<p style=""color:white;""> Next Figure: Male or Female? </p>","188","html-keyboard-response","612","878984","0.0-21.0-0.11","prediction","","","",",",""
"null","<div style=""color:white; font-size:60px;"">+</div>","null","html-keyboard-response","613","879986","0.0-21.0-1.11","fixation","","","","",""
"949.945000000298","Stimuli/Hangul_M26.bmp","188","image-keyboard-response","614","880937","0.0-21.0-2.11","c2_test",",","","","",","
"709.7050000156742","<p style=""color:white;""> Next Figure: Male or Female? </p>","188","html-keyboard-response","615","881648","0.0-21.0-0.12","prediction","","","",",",""
"null","<div style=""color:white; font-size:60px;"">+</div>","null","html-keyboard-response","616","882650","0.0-21.0-1.12","fixation","","","","",""
"761.3549999950919","Stimuli/Hangul_F39.bmp","190","image-keyboard-response","617","883412","0.0-21.0-2.12","c2_test",".","","","","."
"687.6550000160933","<p style=""color:white;""> Next Figure: Male or Female? </p>","190","html-keyboard-response","618","884100","0.0-21.0-0.13","prediction","","","",".",""
"null","<div style=""color:white; font-size:60px;"">+</div>","null","html-keyboard-response","619","885102","0.0-21.0-1.13","fixation","","","","",""
"817.5150000024587","Stimuli/Hangul_M41.bmp","188","image-keyboard-response","620","885921","0.0-21.0-2.13","c2_test",",","","","",","
"1136.5249999798834","<p style=""color:white;""> Next Figure: Male or Female? </p>","190","html-keyboard-response","621","887059","0.0-21.0-0.14","prediction","","","",".",""
"null","<div style=""color:white; font-size:60px;"">+</div>","null","html-keyboard-response","622","888060","0.0-21.0-1.14","fixation","","","","",""
"527.2300000069663","Stimuli/Hangul_F30.bmp","190","image-keyboard-response","623","888589","0.0-21.0-2.14","c2_test",".","","","","."
"894.3450000078883","<p style=""color:white;""> Next Figure: Male or Female? </p>","188","html-keyboard-response","624","889484","0.0-21.0-0.15","prediction","","","",",",""
"null","<div style=""color:white; font-size:60px;"">+</div>","null","html-keyboard-response","625","890488","0.0-21.0-1.15","fixation","","","","",""
"796.6049999813549","Stimuli/Hangul_M39.bmp","188","image-keyboard-response","626","891285","0.0-21.0-2.15","c2_test",",","","","",","
"808.694999985164","<p style=""color:white;""> Next Figure: Male or Female? </p>","188","html-keyboard-response","627","892097","0.0-21.0-0.16","prediction","","","",",",""
"null","<div style=""color:white; font-size:60px;"">+</div>","null","html-keyboard-response","628","893099","0.0-21.0-1.16","fixation","","","","",""
"730.8149999880698","Stimuli/Hangul_M31.bmp","188","image-keyboard-response","629","893831","0.0-21.0-2.16","c2_test",",","","","",","
"703.3850000007078","<p style=""color:white;""> Next Figure: Male or Female? </p>","188","html-keyboard-response","630","894536","0.0-21.0-0.17","prediction","","","",",",""
"null","<div style=""color:white; font-size:60px;"">+</div>","null","html-keyboard-response","631","895539","0.0-21.0-1.17","fixation","","","","",""
"680.1949999935459","Stimuli/Hangul_M34.bmp","188","image-keyboard-response","632","896220","0.0-21.0-2.17","c2_test",",","","","",","
"890.4599999950733","<p style=""color:white;""> Next Figure: Male or Female? </p>","190","html-keyboard-response","633","897111","0.0-21.0-0.18","prediction","","","",".",""
"null","<div style=""color:white; font-size:60px;"">+</div>","null","html-keyboard-response","634","898112","0.0-21.0-1.18","fixation","","","","",""
"738.5200000135228","Stimuli/Hangul_M46.bmp","188","image-keyboard-response","635","898852","0.0-21.0-2.18","c2_test",",","","","",","
"760.0399999937508","<p style=""color:white;""> Next Figure: Male or Female? </p>","188","html-keyboard-response","636","899612","0.0-21.0-0.19","prediction","","","",",",""
"null","<div style=""color:white; font-size:60px;"">+</div>","null","html-keyboard-response","637","900614","0.0-21.0-1.19","fixation","","","","",""
"620.4750000033528","Stimuli/Hangul_M33.bmp","188","image-keyboard-response","638","901236","0.0-21.0-2.19","c2_test",",","","","",","
"804.5449999917764","<p style=""color:white;""> Next Figure: Male or Female? </p>","188","html-keyboard-response","639","902041","0.0-21.0-0.20","prediction","","","",",",""
"null","<div style=""color:white; font-size:60px;"">+</div>","null","html-keyboard-response","640","903042","0.0-21.0-1.20","fixation","","","","",""
"831.6150000027847","Stimuli/Hangul_F44.bmp","190","image-keyboard-response","641","903875","0.0-21.0-2.20","c2_test",".","","","","."
"954.4499999901745","<p style=""color:white;""> Next Figure: Male or Female? </p>","188","html-keyboard-response","642","904831","0.0-21.0-0.21","prediction","","","",",",""
"null","<div style=""color:white; font-size:60px;"">+</div>","null","html-keyboard-response","643","905833","0.0-21.0-1.21","fixation","","","","",""
"1165.9700000018347","Stimuli/Hangul_F40.bmp","188","image-keyboard-response","644","906999","0.0-21.0-2.21","c2_test",".","","","",","
"775.3400000219699","<p style=""color:white;""> Next Figure: Male or Female? </p>","188","html-keyboard-response","645","907775","0.0-21.0-0.22","prediction","","","",",",""
"null","<div style=""color:white; font-size:60px;"">+</div>","null","html-keyboard-response","646","908777","0.0-21.0-1.22","fixation","","","","",""
"740.6950000149664","Stimuli/Hangul_M42.bmp","188","image-keyboard-response","647","909518","0.0-21.0-2.22","c2_test",",","","","",","
"688.319999986561","<p style=""color:white;""> Next Figure: Male or Female? </p>","188","html-keyboard-response","648","910207","0.0-21.0-0.23","prediction","","","",",",""
"null","<div style=""color:white; font-size:60px;"">+</div>","null","html-keyboard-response","649","911211","0.0-21.0-1.23","fixation","","","","",""
"791.0149999952409","Stimuli/Hangul_M30.bmp","188","image-keyboard-response","650","912003","0.0-21.0-2.23","c2_test",",","","","",","
"639.6300000196788","<p style=""color:white;""> Next Figure: Male or Female? </p>","190","html-keyboard-response","651","912643","0.0-21.0-0.24","prediction","","","",".",""
"null","<div style=""color:white; font-size:60px;"">+</div>","null","html-keyboard-response","652","913646","0.0-21.0-1.24","fixation","","","","",""
"700.3549999790266","Stimuli/Hangul_M29.bmp","188","image-keyboard-response","653","914347","0.0-21.0-2.24","c2_test",",","","","",","
"707.9800000065006","<p style=""color:white;""> Next Figure: Male or Female? </p>","188","html-keyboard-response","654","915056","0.0-21.0-0.25","prediction","","","",",",""
"null","<div style=""color:white; font-size:60px;"">+</div>","null","html-keyboard-response","655","916057","0.0-21.0-1.25","fixation","","","","",""
"1113.0650000122841","Stimuli/Hangul_F41.bmp","188","image-keyboard-response","656","917170","0.0-21.0-2.25","c2_test",".","","","",","
"799.2599999997765","<p style=""color:white;""> Next Figure: Male or Female? </p>","190","html-keyboard-response","657","917971","0.0-21.0-0.26","prediction","","","",".",""
