"rt","stimulus","key_press","trial_type","trial_index","time_elapsed","internal_node_id","test_part","correct_response","C1_train","C1","A","C2"
"2025.9899999946356","<p style=""color:white;"">Welcome to the experiment! Press any key to begin.</p>","32","html-keyboard-response","0","2031","0.0-0.0","","","","","",""
"475986.67000001296","<p style=""color:white;"">You will see a series of abstract figures. They are adaptations of signs in the Korean alphabet, but that is not important for this study. </p><p style=""color:white;"">Abstract figures sometimes have a more masculine or feminine shape. Here, each figure has already been assigned a gender as <q>Male</q> or <q>Female</q> by a panel of respondents in a pilot study. The respondents were not given specific instructions on how to do this, but were only told to use their intuition and to take into account the entire configuration of the stimulus. </p><p style=""color:white;"">Your task now is to guess the assigned gender of each figure. Please press the corresponding response keys to indicate your choice: </p><p style=""color:white;""> Male &#8594 <q>,</q> (comma)</p><p style=""color:white;""> Female &#8594 <q>.</q> (period)</p><p style=""color:white;"">Press either response keys to continue.</p>","190","html-keyboard-response","1","478019","0.0-1.0","","","","","",""
"3095.835000043735","<p style=""color:white;"">Your choice is correct if it matches the gender assigned by the majority of respondents in the pilot study.</p> <p style=""color:white;"">For each correct choice you will receive 2 cents. There will be 200 trials divided into 4 blocks of 50 trials. You will be able to take a break after every 50 trials.</p> <p style=""color:white;"">Press the space bar to continue.</p>","32","html-keyboard-response","2","481116","0.0-2.0","","","","","",""
"1845.48500017263","<p style=""color:white;"">Here are some examples.</p> <p style=""color:white;"">For each, guess whether the assigned figure is male-like or female-like and indicate your choice by pressing either response keys.</p> <p style=""color:white;"">Press the space bar to continue.</p>","32","html-keyboard-response","3","482962","0.0-3.0","","","","","",""
"null","<div style=""color:white; font-size:60px;"">+</div>","null","html-keyboard-response","4","485966","0.0-4.0-0.0","fixation","","","","",""
"4644.889999879524","Stimuli/Hangul_E1.bmp","190","image-keyboard-response","5","490612","0.0-4.0-1.0","c1_train",",",".","","",""
"null","<div style=""color:white; font-size:60px;"">+</div>","null","html-keyboard-response","6","491614","0.0-4.0-0.1","fixation","","","","",""
"889.3349999561906","Stimuli/Hangul_E2.bmp","188","image-keyboard-response","7","492504","0.0-4.0-1.1","c1_train",".",",","","",""
"null","<div style=""color:white; font-size:60px;"">+</div>","null","html-keyboard-response","8","493506","0.0-4.0-0.2","fixation","","","","",""
"161.07999999076128","Stimuli/Hangul_E0.bmp","188","image-keyboard-response","9","493667","0.0-4.0-1.2","c1_train",",",",","","",""
"1710.084999911487","<p style=""color:white;"">Let us begin! Press the space bar when you are ready to start block 1 of 4.</p> ","32","html-keyboard-response","10","495378","0.0-5.0","","","","","",""
"null","<div style=""color:white; font-size:60px;"">+</div>","null","html-keyboard-response","11","498381","0.0-6.0-0.0","fixation","","","","",""
"392.34500005841255","Stimuli/Hangul_M7.bmp","190","image-keyboard-response","12","498774","0.0-6.0-1.0","test",",","",".","",""
"null","<div style=""color:white; font-size:60px;"">+</div>","null","html-keyboard-response","13","499775","0.0-6.0-0.1","fixation","","","","",""
"81.00000000558794","Stimuli/Hangul_M1.bmp","188","image-keyboard-response","14","499857","0.0-6.0-1.1","test",",","",",","",""
"null","<div style=""color:white; font-size:60px;"">+</div>","null","html-keyboard-response","15","500858","0.0-6.0-0.2","fixation","","","","",""
"98.92000001855195","Stimuli/Hangul_M2.bmp","188","image-keyboard-response","16","500957","0.0-6.0-1.2","test",",","",",","",""
"null","<div style=""color:white; font-size:60px;"">+</div>","null","html-keyboard-response","17","501959","0.0-6.0-0.3","fixation","","","","",""
"34.98500003479421","Stimuli/Hangul_M20.bmp","188","image-keyboard-response","18","501994","0.0-6.0-1.3","test",",","",",","",""
"null","<div style=""color:white; font-size:60px;"">+</div>","null","html-keyboard-response","19","502995","0.0-6.0-0.4","fixation","","","","",""
"47.69000015221536","Stimuli/Hangul_F6.bmp","188","image-keyboard-response","20","503043","0.0-6.0-1.4","test",".","",",","",""
"null","<div style=""color:white; font-size:60px;"">+</div>","null","html-keyboard-response","21","504044","0.0-6.0-0.5","fixation","","","","",""
"919.6249998640269","Stimuli/Hangul_M0.bmp","190","image-keyboard-response","22","504964","0.0-6.0-1.5","test",",","",".","",""
"null","<div style=""color:white; font-size:60px;"">+</div>","null","html-keyboard-response","23","505965","0.0-6.0-0.6","fixation","","","","",""
"43.53999998420477","Stimuli/Hangul_M10.bmp","190","image-keyboard-response","24","506009","0.0-6.0-1.6","test",",","",".","",""
"null","<div style=""color:white; font-size:60px;"">+</div>","null","html-keyboard-response","25","507010","0.0-6.0-0.7","fixation","","","","",""
"47.67499980516732","Stimuli/Hangul_F0.bmp","190","image-keyboard-response","26","507066","0.0-6.0-1.7","test",".","",".","",""
"null","<div style=""color:white; font-size:60px;"">+</div>","null","html-keyboard-response","27","508068","0.0-6.0-0.8","fixation","","","","",""
"145.31000005081296","Stimuli/Hangul_M18.bmp","190","image-keyboard-response","28","508214","0.0-6.0-1.8","test",",","",".","",""
"null","<div style=""color:white; font-size:60px;"">+</div>","null","html-keyboard-response","29","509215","0.0-6.0-0.9","fixation","","","","",""
"1202.5500000454485","Stimuli/Hangul_M16.bmp","188","image-keyboard-response","30","510418","0.0-6.0-1.9","test",",","",",","",""
"null","<div style=""color:white; font-size:60px;"">+</div>","null","html-keyboard-response","31","511419","0.0-6.0-0.10","fixation","","","","",""
"75.11499989777803","Stimuli/Hangul_F16.bmp","188","image-keyboard-response","32","511494","0.0-6.0-1.10","test",".","",",","",""
"null","<div style=""color:white; font-size:60px;"">+</div>","null","html-keyboard-response","33","512496","0.0-6.0-0.11","fixation","","","","",""
"36.38499998487532","Stimuli/Hangul_F2.bmp","190","image-keyboard-response","34","512533","0.0-6.0-1.11","test",".","",".","",""
"null","<div style=""color:white; font-size:60px;"">+</div>","null","html-keyboard-response","35","513534","0.0-6.0-0.12","fixation","","","","",""
"1.1199999134987593","Stimuli/Hangul_M15.bmp","188","image-keyboard-response","36","513536","0.0-6.0-1.12","test",",","",",","",""
"null","<div style=""color:white; font-size:60px;"">+</div>","null","html-keyboard-response","37","514537","0.0-6.0-0.13","fixation","","","","",""
"74.50499990954995","Stimuli/Hangul_F1.bmp","188","image-keyboard-response","38","514612","0.0-6.0-1.13","test",".","",",","",""
"null","<div style=""color:white; font-size:60px;"">+</div>","null","html-keyboard-response","39","515612","0.0-6.0-0.14","fixation","","","","",""
"27.93000009842217","Stimuli/Hangul_M5.bmp","190","image-keyboard-response","40","515641","0.0-6.0-1.14","test",",","",".","",""
"null","<div style=""color:white; font-size:60px;"">+</div>","null","html-keyboard-response","41","516642","0.0-6.0-0.15","fixation","","","","",""
"146.90000005066395","Stimuli/Hangul_F24.bmp","190","image-keyboard-response","42","516790","0.0-6.0-1.15","test",".","",".","",""
"null","<div style=""color:white; font-size:60px;"">+</div>","null","html-keyboard-response","43","517792","0.0-6.0-0.16","fixation","","","","",""
"130.92999998480082","Stimuli/Hangul_M4.bmp","190","image-keyboard-response","44","517923","0.0-6.0-1.16","test",",","",".","",""
"null","<div style=""color:white; font-size:60px;"">+</div>","null","html-keyboard-response","45","518925","0.0-6.0-0.17","fixation","","","","",""
"16.764999832957983","Stimuli/Hangul_F22.bmp","188","image-keyboard-response","46","518942","0.0-6.0-1.17","test",".","",",","",""
"null","<div style=""color:white; font-size:60px;"">+</div>","null","html-keyboard-response","47","519943","0.0-6.0-0.18","fixation","","","","",""
"1450.4899999592453","Stimuli/Hangul_M8.bmp","188","image-keyboard-response","48","521394","0.0-6.0-1.18","test",",","",",","",""
"null","<div style=""color:white; font-size:60px;"">+</div>","null","html-keyboard-response","49","522396","0.0-6.0-0.19","fixation","","","","",""
"456.31999988108873","Stimuli/Hangul_M24.bmp","190","image-keyboard-response","50","522853","0.0-6.0-1.19","test",",","",".","",""
"null","<div style=""color:white; font-size:60px;"">+</div>","null","html-keyboard-response","51","523854","0.0-6.0-0.20","fixation","","","","",""
"66.27499987371266","Stimuli/Hangul_M19.bmp","188","image-keyboard-response","52","523921","0.0-6.0-1.20","test",",","",",","",""
"null","<div style=""color:white; font-size:60px;"">+</div>","null","html-keyboard-response","53","524921","0.0-6.0-0.21","fixation","","","","",""
"118.96999995224178","Stimuli/Hangul_F3.bmp","188","image-keyboard-response","54","525040","0.0-6.0-1.21","test",".","",",","",""
"null","<div style=""color:white; font-size:60px;"">+</div>","null","html-keyboard-response","55","526042","0.0-6.0-0.22","fixation","","","","",""
"48.590000020340085","Stimuli/Hangul_F10.bmp","190","image-keyboard-response","56","526091","0.0-6.0-1.22","test",".","",".","",""
"null","<div style=""color:white; font-size:60px;"">+</div>","null","html-keyboard-response","57","527093","0.0-6.0-0.23","fixation","","","","",""
"20.305000012740493","Stimuli/Hangul_F8.bmp","188","image-keyboard-response","58","527114","0.0-6.0-1.23","test",".","",",","",""
"null","<div style=""color:white; font-size:60px;"">+</div>","null","html-keyboard-response","59","528115","0.0-6.0-0.24","fixation","","","","",""
"25.21000010892749","Stimuli/Hangul_F13.bmp","190","image-keyboard-response","60","528141","0.0-6.0-1.24","test",".","",".","",""
"null","<div style=""color:white; font-size:60px;"">+</div>","null","html-keyboard-response","61","529142","0.0-6.0-0.25","fixation","","","","",""
"32.445000018924475","Stimuli/Hangul_M12.bmp","188","image-keyboard-response","62","529175","0.0-6.0-1.25","test",",","",",","",""
"null","<div style=""color:white; font-size:60px;"">+</div>","null","html-keyboard-response","63","530177","0.0-6.0-0.26","fixation","","","","",""
"114.84499997459352","Stimuli/Hangul_M17.bmp","188","image-keyboard-response","64","530292","0.0-6.0-1.26","test",",","",",","",""
"null","<div style=""color:white; font-size:60px;"">+</div>","null","html-keyboard-response","65","531294","0.0-6.0-0.27","fixation","","","","",""
"27.304999995976686","Stimuli/Hangul_F11.bmp","190","image-keyboard-response","66","531322","0.0-6.0-1.27","test",".","",".","",""
"null","<div style=""color:white; font-size:60px;"">+</div>","null","html-keyboard-response","67","532323","0.0-6.0-0.28","fixation","","","","",""
"25.06999997422099","Stimuli/Hangul_F15.bmp","188","image-keyboard-response","68","532349","0.0-6.0-1.28","test",".","",",","",""
"null","<div style=""color:white; font-size:60px;"">+</div>","null","html-keyboard-response","69","533351","0.0-6.0-0.29","fixation","","","","",""
"26.70000004582107","Stimuli/Hangul_F19.bmp","190","image-keyboard-response","70","533378","0.0-6.0-1.29","test",".","",".","",""
"null","<div style=""color:white; font-size:60px;"">+</div>","null","html-keyboard-response","71","534379","0.0-6.0-0.30","fixation","","","","",""
"52.92500020004809","Stimuli/Hangul_F17.bmp","188","image-keyboard-response","72","534432","0.0-6.0-1.30","test",".","",",","",""
"null","<div style=""color:white; font-size:60px;"">+</div>","null","html-keyboard-response","73","535433","0.0-6.0-0.31","fixation","","","","",""
"94.88499979488552","Stimuli/Hangul_F12.bmp","188","image-keyboard-response","74","535529","0.0-6.0-1.31","test",".","",",","",""
"null","<div style=""color:white; font-size:60px;"">+</div>","null","html-keyboard-response","75","536530","0.0-6.0-0.32","fixation","","","","",""
"108.41999994590878","Stimuli/Hangul_M14.bmp","188","image-keyboard-response","76","536639","0.0-6.0-1.32","test",",","",",","",""
"null","<div style=""color:white; font-size:60px;"">+</div>","null","html-keyboard-response","77","537641","0.0-6.0-0.33","fixation","","","","",""
"54.385000141337514","Stimuli/Hangul_M9.bmp","188","image-keyboard-response","78","537696","0.0-6.0-1.33","test",",","",",","",""
"null","<div style=""color:white; font-size:60px;"">+</div>","null","html-keyboard-response","79","538697","0.0-6.0-0.34","fixation","","","","",""
"49.965000012889504","Stimuli/Hangul_M23.bmp","188","image-keyboard-response","80","538748","0.0-6.0-1.34","test",",","",",","",""
"null","<div style=""color:white; font-size:60px;"">+</div>","null","html-keyboard-response","81","539750","0.0-6.0-0.35","fixation","","","","",""
"69.26499982364476","Stimuli/Hangul_F21.bmp","188","image-keyboard-response","82","539820","0.0-6.0-1.35","test",".","",",","",""
"null","<div style=""color:white; font-size:60px;"">+</div>","null","html-keyboard-response","83","540820","0.0-6.0-0.36","fixation","","","","",""
"89.44000001065433","Stimuli/Hangul_M6.bmp","188","image-keyboard-response","84","540910","0.0-6.0-1.36","test",",","",",","",""
"null","<div style=""color:white; font-size:60px;"">+</div>","null","html-keyboard-response","85","541912","0.0-6.0-0.37","fixation","","","","",""
"13.539999956265092","Stimuli/Hangul_F7.bmp","190","image-keyboard-response","86","541926","0.0-6.0-1.37","test",".","",".","",""
"null","<div style=""color:white; font-size:60px;"">+</div>","null","html-keyboard-response","87","542927","0.0-6.0-0.38","fixation","","","","",""
"61.729999957606196","Stimuli/Hangul_M11.bmp","188","image-keyboard-response","88","542989","0.0-6.0-1.38","test",",","",",","",""
"null","<div style=""color:white; font-size:60px;"">+</div>","null","html-keyboard-response","89","543991","0.0-6.0-0.39","fixation","","","","",""
"128.5749999806285","Stimuli/Hangul_F18.bmp","188","image-keyboard-response","90","544120","0.0-6.0-1.39","test",".","",",","",""
"null","<div style=""color:white; font-size:60px;"">+</div>","null","html-keyboard-response","91","545122","0.0-6.0-0.40","fixation","","","","",""
"92.9550000000745","Stimuli/Hangul_M22.bmp","190","image-keyboard-response","92","545216","0.0-6.0-1.40","test",",","",".","",""
"null","<div style=""color:white; font-size:60px;"">+</div>","null","html-keyboard-response","93","546217","0.0-6.0-0.41","fixation","","","","",""
"65.49499998800457","Stimuli/Hangul_F4.bmp","188","image-keyboard-response","94","546283","0.0-6.0-1.41","test",".","",",","",""
"null","<div style=""color:white; font-size:60px;"">+</div>","null","html-keyboard-response","95","547284","0.0-6.0-0.42","fixation","","","","",""
"100.49499990418553","Stimuli/Hangul_M21.bmp","190","image-keyboard-response","96","547385","0.0-6.0-1.42","test",",","",".","",""
"null","<div style=""color:white; font-size:60px;"">+</div>","null","html-keyboard-response","97","548387","0.0-6.0-0.43","fixation","","","","",""
"140.64499991945922","Stimuli/Hangul_F14.bmp","190","image-keyboard-response","98","548528","0.0-6.0-1.43","test",".","",".","",""
"null","<div style=""color:white; font-size:60px;"">+</div>","null","html-keyboard-response","99","549530","0.0-6.0-0.44","fixation","","","","",""
"110.46500015072525","Stimuli/Hangul_F20.bmp","188","image-keyboard-response","100","549641","0.0-6.0-1.44","test",".","",",","",""
"null","<div style=""color:white; font-size:60px;"">+</div>","null","html-keyboard-response","101","550643","0.0-6.0-0.45","fixation","","","","",""
"104.67500006780028","Stimuli/Hangul_F5.bmp","188","image-keyboard-response","102","550748","0.0-6.0-1.45","test",".","",",","",""
"null","<div style=""color:white; font-size:60px;"">+</div>","null","html-keyboard-response","103","551749","0.0-6.0-0.46","fixation","","","","",""
"379.79499995708466","Stimuli/Hangul_M13.bmp","190","image-keyboard-response","104","552129","0.0-6.0-1.46","test",",","",".","",""
"null","<div style=""color:white; font-size:60px;"">+</div>","null","html-keyboard-response","105","553130","0.0-6.0-0.47","fixation","","","","",""
"125.59999991208315","Stimuli/Hangul_F9.bmp","188","image-keyboard-response","106","553256","0.0-6.0-1.47","test",".","",",","",""
"null","<div style=""color:white; font-size:60px;"">+</div>","null","html-keyboard-response","107","554257","0.0-6.0-0.48","fixation","","","","",""
"104.85000000335276","Stimuli/Hangul_F23.bmp","190","image-keyboard-response","108","554362","0.0-6.0-1.48","test",".","",".","",""
"null","<div style=""color:white; font-size:60px;"">+</div>","null","html-keyboard-response","109","555363","0.0-6.0-0.49","fixation","","","","",""
"67.74499989114702","Stimuli/Hangul_M3.bmp","188","image-keyboard-response","110","555431","0.0-6.0-1.49","test",",","",",","",""
"40988.81999985315","<p style=""color:white;"">Good job, block 1 complete! Please take a moment to rest.</p> <p style=""color:white;"">When you are ready to continue with block 2 of 4, press the space bar.</p> ","32","html-keyboard-response","111","596420","0.0-7.0","","","","","",""
"null","<div style=""color:white; font-size:60px;"">+</div>","null","html-keyboard-response","112","599422","0.0-8.0-0.0","fixation","","","","",""
"177.7600001078099","Stimuli/Hangul_F26.bmp","190","image-keyboard-response","113","599601","0.0-8.0-1.0","test",".","",".","",""
"null","<div style=""color:white; font-size:60px;"">+</div>","null","html-keyboard-response","114","600602","0.0-8.0-0.1","fixation","","","","",""
"60.20499998703599","Stimuli/Hangul_M47.bmp","190","image-keyboard-response","115","600662","0.0-8.0-1.1","test",",","",".","",""
"null","<div style=""color:white; font-size:60px;"">+</div>","null","html-keyboard-response","116","601664","0.0-8.0-0.2","fixation","","","","",""
"118.4449999127537","Stimuli/Hangul_M42.bmp","190","image-keyboard-response","117","601783","0.0-8.0-1.2","test",",","",".","",""
"null","<div style=""color:white; font-size:60px;"">+</div>","null","html-keyboard-response","118","602784","0.0-8.0-0.3","fixation","","","","",""
"591.770000057295","Stimuli/Hangul_F39.bmp","188","image-keyboard-response","119","603377","0.0-8.0-1.3","test",".","",",","",""
"null","<div style=""color:white; font-size:60px;"">+</div>","null","html-keyboard-response","120","604378","0.0-8.0-0.4","fixation","","","","",""
"166.80500004440546","Stimuli/Hangul_F42.bmp","188","image-keyboard-response","121","604546","0.0-8.0-1.4","test",".","",",","",""
"null","<div style=""color:white; font-size:60px;"">+</div>","null","html-keyboard-response","122","605547","0.0-8.0-0.5","fixation","","","","",""
"38456.51499996893","Stimuli/Hangul_F28.bmp","188","image-keyboard-response","123","644004","0.0-8.0-1.5","test",".","",",","",""
"null","<div style=""color:white; font-size:60px;"">+</div>","null","html-keyboard-response","124","645005","0.0-8.0-0.6","fixation","","","","",""
"455.5299999192357","Stimuli/Hangul_F48.bmp","188","image-keyboard-response","125","645461","0.0-8.0-1.6","test",".","",",","",""
"null","<div style=""color:white; font-size:60px;"">+</div>","null","html-keyboard-response","126","646462","0.0-8.0-0.7","fixation","","","","",""
"1040.2049999684095","Stimuli/Hangul_M26.bmp","190","image-keyboard-response","127","647502","0.0-8.0-1.7","test",",","",".","",""
"null","<div style=""color:white; font-size:60px;"">+</div>","null","html-keyboard-response","128","648504","0.0-8.0-0.8","fixation","","","","",""
"151.4850000385195","Stimuli/Hangul_M35.bmp","190","image-keyboard-response","129","648656","0.0-8.0-1.8","test",",","",".","",""
"null","<div style=""color:white; font-size:60px;"">+</div>","null","html-keyboard-response","130","649659","0.0-8.0-0.9","fixation","","","","",""
"13.030000030994415","Stimuli/Hangul_M32.bmp","188","image-keyboard-response","131","649673","0.0-8.0-1.9","test",",","",",","",""
"null","<div style=""color:white; font-size:60px;"">+</div>","null","html-keyboard-response","132","650674","0.0-8.0-0.10","fixation","","","","",""
"172.72000014781952","Stimuli/Hangul_M38.bmp","190","image-keyboard-response","133","650848","0.0-8.0-1.10","test",",","",".","",""
"null","<div style=""color:white; font-size:60px;"">+</div>","null","html-keyboard-response","134","651849","0.0-8.0-0.11","fixation","","","","",""
"373.0999999679625","Stimuli/Hangul_F44.bmp","190","image-keyboard-response","135","652223","0.0-8.0-1.11","test",".","",".","",""
"null","<div style=""color:white; font-size:60px;"">+</div>","null","html-keyboard-response","136","653225","0.0-8.0-0.12","fixation","","","","",""
"227.56499983370304","Stimuli/Hangul_M49.bmp","188","image-keyboard-response","137","653453","0.0-8.0-1.12","test",",","",",","",""
"null","<div style=""color:white; font-size:60px;"">+</div>","null","html-keyboard-response","138","654454","0.0-8.0-0.13","fixation","","","","",""
"112.88000014610589","Stimuli/Hangul_F34.bmp","190","image-keyboard-response","139","654567","0.0-8.0-1.13","test",".","",".","",""
"null","<div style=""color:white; font-size:60px;"">+</div>","null","html-keyboard-response","140","655569","0.0-8.0-0.14","fixation","","","","",""
"27.3499998729676","Stimuli/Hangul_F38.bmp","190","image-keyboard-response","141","655597","0.0-8.0-1.14","test",".","",".","",""
"null","<div style=""color:white; font-size:60px;"">+</div>","null","html-keyboard-response","142","656599","0.0-8.0-0.15","fixation","","","","",""
"0.3400000277906656","Stimuli/Hangul_F30.bmp","188","image-keyboard-response","143","656600","0.0-8.0-1.15","test",".","",",","",""
"null","<div style=""color:white; font-size:60px;"">+</div>","null","html-keyboard-response","144","657603","0.0-8.0-0.16","fixation","","","","",""
"178.56999998912215","Stimuli/Hangul_M36.bmp","190","image-keyboard-response","145","657782","0.0-8.0-1.16","test",",","",".","",""
"null","<div style=""color:white; font-size:60px;"">+</div>","null","html-keyboard-response","146","658783","0.0-8.0-0.17","fixation","","","","",""
"282.38500002771616","Stimuli/Hangul_F31.bmp","190","image-keyboard-response","147","659066","0.0-8.0-1.17","test",".","",".","",""
"null","<div style=""color:white; font-size:60px;"">+</div>","null","html-keyboard-response","148","660068","0.0-8.0-0.18","fixation","","","","",""
"190.1450001168996","Stimuli/Hangul_F37.bmp","190","image-keyboard-response","149","660259","0.0-8.0-1.18","test",".","",".","",""
"null","<div style=""color:white; font-size:60px;"">+</div>","null","html-keyboard-response","150","661261","0.0-8.0-0.19","fixation","","","","",""
"545.380000025034","Stimuli/Hangul_F45.bmp","190","image-keyboard-response","151","661807","0.0-8.0-1.19","test",".","",".","",""
"null","<div style=""color:white; font-size:60px;"">+</div>","null","html-keyboard-response","152","662809","0.0-8.0-0.20","fixation","","","","",""
"136.87000004574656","Stimuli/Hangul_M29.bmp","190","image-keyboard-response","153","662946","0.0-8.0-1.20","test",",","",".","",""
"null","<div style=""color:white; font-size:60px;"">+</div>","null","html-keyboard-response","154","663947","0.0-8.0-0.21","fixation","","","","",""
"194.65499999932945","Stimuli/Hangul_M30.bmp","190","image-keyboard-response","155","664143","0.0-8.0-1.21","test",",","",".","",""
"null","<div style=""color:white; font-size:60px;"">+</div>","null","html-keyboard-response","156","665143","0.0-8.0-0.22","fixation","","","","",""
"174.89999998360872","Stimuli/Hangul_F43.bmp","190","image-keyboard-response","157","665319","0.0-8.0-1.22","test",".","",".","",""
"null","<div style=""color:white; font-size:60px;"">+</div>","null","html-keyboard-response","158","666321","0.0-8.0-0.23","fixation","","","","",""
"124.61000005714595","Stimuli/Hangul_M43.bmp","190","image-keyboard-response","159","666446","0.0-8.0-1.23","test",",","",".","",""
"null","<div style=""color:white; font-size:60px;"">+</div>","null","html-keyboard-response","160","667447","0.0-8.0-0.24","fixation","","","","",""
"207.09000015631318","Stimuli/Hangul_M34.bmp","190","image-keyboard-response","161","667655","0.0-8.0-1.24","test",",","",".","",""
"null","<div style=""color:white; font-size:60px;"">+</div>","null","html-keyboard-response","162","668656","0.0-8.0-0.25","fixation","","","","",""
"119.45499991998076","Stimuli/Hangul_F32.bmp","188","image-keyboard-response","163","668776","0.0-8.0-1.25","test",".","",",","",""
"null","<div style=""color:white; font-size:60px;"">+</div>","null","html-keyboard-response","164","669778","0.0-8.0-0.26","fixation","","","","",""
"62.114999862387776","Stimuli/Hangul_M33.bmp","188","image-keyboard-response","165","669841","0.0-8.0-1.26","test",",","",",","",""
"null","<div style=""color:white; font-size:60px;"">+</div>","null","html-keyboard-response","166","670843","0.0-8.0-0.27","fixation","","","","",""
"399.74999986588955","Stimuli/Hangul_M40.bmp","190","image-keyboard-response","167","671243","0.0-8.0-1.27","test",",","",".","",""
"null","<div style=""color:white; font-size:60px;"">+</div>","null","html-keyboard-response","168","672244","0.0-8.0-0.28","fixation","","","","",""
"115.99499988369644","Stimuli/Hangul_F27.bmp","190","image-keyboard-response","169","672361","0.0-8.0-1.28","test",".","",".","",""
"null","<div style=""color:white; font-size:60px;"">+</div>","null","html-keyboard-response","170","673362","0.0-8.0-0.29","fixation","","","","",""
"81.41499990597367","Stimuli/Hangul_M27.bmp","190","image-keyboard-response","171","673445","0.0-8.0-1.29","test",",","",".","",""
"null","<div style=""color:white; font-size:60px;"">+</div>","null","html-keyboard-response","172","674447","0.0-8.0-0.30","fixation","","","","",""
"162.430000025779","Stimuli/Hangul_F35.bmp","190","image-keyboard-response","173","674610","0.0-8.0-1.30","test",".","",".","",""
"null","<div style=""color:white; font-size:60px;"">+</div>","null","html-keyboard-response","174","675612","0.0-8.0-0.31","fixation","","","","",""
"154.7250000294298","Stimuli/Hangul_M41.bmp","190","image-keyboard-response","175","675767","0.0-8.0-1.31","test",",","",".","",""
"null","<div style=""color:white; font-size:60px;"">+</div>","null","html-keyboard-response","176","676769","0.0-8.0-0.32","fixation","","","","",""
"78.42000015079975","Stimuli/Hangul_F25.bmp","190","image-keyboard-response","177","676848","0.0-8.0-1.32","test",".","",".","",""
"null","<div style=""color:white; font-size:60px;"">+</div>","null","html-keyboard-response","178","677850","0.0-8.0-0.33","fixation","","","","",""
"183.21999977342784","Stimuli/Hangul_M28.bmp","190","image-keyboard-response","179","678035","0.0-8.0-1.33","test",",","",".","",""
"null","<div style=""color:white; font-size:60px;"">+</div>","null","html-keyboard-response","180","679037","0.0-8.0-0.34","fixation","","","","",""
"296.63500003516674","Stimuli/Hangul_M44.bmp","190","image-keyboard-response","181","679334","0.0-8.0-1.34","test",",","",".","",""
"null","<div style=""color:white; font-size:60px;"">+</div>","null","html-keyboard-response","182","680335","0.0-8.0-0.35","fixation","","","","",""
"353.26500004157424","Stimuli/Hangul_M46.bmp","190","image-keyboard-response","183","680689","0.0-8.0-1.35","test",",","",".","",""
"null","<div style=""color:white; font-size:60px;"">+</div>","null","html-keyboard-response","184","681690","0.0-8.0-0.36","fixation","","","","",""
"161.3650000654161","Stimuli/Hangul_F46.bmp","190","image-keyboard-response","185","681852","0.0-8.0-1.36","test",".","",".","",""
"null","<div style=""color:white; font-size:60px;"">+</div>","null","html-keyboard-response","186","682852","0.0-8.0-0.37","fixation","","","","",""
"25.224999990314245","Stimuli/Hangul_F33.bmp","190","image-keyboard-response","187","682878","0.0-8.0-1.37","test",".","",".","",""
"null","<div style=""color:white; font-size:60px;"">+</div>","null","html-keyboard-response","188","683878","0.0-8.0-0.38","fixation","","","","",""
"188.41499998234212","Stimuli/Hangul_M37.bmp","190","image-keyboard-response","189","684067","0.0-8.0-1.38","test",",","",".","",""
"null","<div style=""color:white; font-size:60px;"">+</div>","null","html-keyboard-response","190","685068","0.0-8.0-0.39","fixation","","","","",""
"83.30000005662441","Stimuli/Hangul_F29.bmp","188","image-keyboard-response","191","685152","0.0-8.0-1.39","test",".","",",","",""
"null","<div style=""color:white; font-size:60px;"">+</div>","null","html-keyboard-response","192","686153","0.0-8.0-0.40","fixation","","","","",""
"235.7149999588728","Stimuli/Hangul_M39.bmp","190","image-keyboard-response","193","686389","0.0-8.0-1.40","test",",","",".","",""
"null","<div style=""color:white; font-size:60px;"">+</div>","null","html-keyboard-response","194","687391","0.0-8.0-0.41","fixation","","","","",""
"266.8700001668185","Stimuli/Hangul_M25.bmp","190","image-keyboard-response","195","687658","0.0-8.0-1.41","test",",","",".","",""
"null","<div style=""color:white; font-size:60px;"">+</div>","null","html-keyboard-response","196","688660","0.0-8.0-0.42","fixation","","","","",""
"358.69999998249114","Stimuli/Hangul_F41.bmp","190","image-keyboard-response","197","689019","0.0-8.0-1.42","test",".","",".","",""
"null","<div style=""color:white; font-size:60px;"">+</div>","null","html-keyboard-response","198","690020","0.0-8.0-0.43","fixation","","","","",""
"126.62500003352761","Stimuli/Hangul_F49.bmp","188","image-keyboard-response","199","690147","0.0-8.0-1.43","test",".","",",","",""
"null","<div style=""color:white; font-size:60px;"">+</div>","null","html-keyboard-response","200","691148","0.0-8.0-0.44","fixation","","","","",""
"362.3649999499321","Stimuli/Hangul_F40.bmp","190","image-keyboard-response","201","691511","0.0-8.0-1.44","test",".","",".","",""
"null","<div style=""color:white; font-size:60px;"">+</div>","null","html-keyboard-response","202","692513","0.0-8.0-0.45","fixation","","","","",""
"50.62499991618097","Stimuli/Hangul_M45.bmp","190","image-keyboard-response","203","692564","0.0-8.0-1.45","test",",","",".","",""
"null","<div style=""color:white; font-size:60px;"">+</div>","null","html-keyboard-response","204","693566","0.0-8.0-0.46","fixation","","","","",""
"122.48000013642013","Stimuli/Hangul_F36.bmp","190","image-keyboard-response","205","693689","0.0-8.0-1.46","test",".","",".","",""
"null","<div style=""color:white; font-size:60px;"">+</div>","null","html-keyboard-response","206","694691","0.0-8.0-0.47","fixation","","","","",""
"263.82999983616173","Stimuli/Hangul_F47.bmp","190","image-keyboard-response","207","694955","0.0-8.0-1.47","test",".","",".","",""
"null","<div style=""color:white; font-size:60px;"">+</div>","null","html-keyboard-response","208","695956","0.0-8.0-0.48","fixation","","","","",""
"172.7299999911338","Stimuli/Hangul_M48.bmp","190","image-keyboard-response","209","696130","0.0-8.0-1.48","test",",","",".","",""
"null","<div style=""color:white; font-size:60px;"">+</div>","null","html-keyboard-response","210","697131","0.0-8.0-0.49","fixation","","","","",""
"777.8450001496822","Stimuli/Hangul_M31.bmp","190","image-keyboard-response","211","697909","0.0-8.0-1.49","test",",","",".","",""
"1172.9349999222904","<p style=""color:white;"">Half way there! Please take a moment to rest.</p> <p style=""color:white;"">When you are ready to continue with block 3 of 4, press the space bar.</p> ","32","html-keyboard-response","212","699083","0.0-9.0","","","","","",""
"null","<div style=""color:white; font-size:60px;"">+</div>","null","html-keyboard-response","213","702084","0.0-10.0-0.0","fixation","","","","",""
"228.10499998740852","Stimuli/Hangul_F70.bmp","190","image-keyboard-response","214","702313","0.0-10.0-1.0","test",".","",".","",""
"null","<div style=""color:white; font-size:60px;"">+</div>","null","html-keyboard-response","215","703315","0.0-10.0-0.1","fixation","","","","",""
"114.9100000038743","Stimuli/Hangul_M55.bmp","190","image-keyboard-response","216","703431","0.0-10.0-1.1","test",",","",".","",""
"null","<div style=""color:white; font-size:60px;"">+</div>","null","html-keyboard-response","217","704433","0.0-10.0-0.2","fixation","","","","",""
"102.42000012658536","Stimuli/Hangul_M62.bmp","190","image-keyboard-response","218","704536","0.0-10.0-1.2","test",",","",".","",""
"null","<div style=""color:white; font-size:60px;"">+</div>","null","html-keyboard-response","219","705538","0.0-10.0-0.3","fixation","","","","",""
"65.38500008173287","Stimuli/Hangul_F63.bmp","190","image-keyboard-response","220","705604","0.0-10.0-1.3","test",".","",".","",""
"null","<div style=""color:white; font-size:60px;"">+</div>","null","html-keyboard-response","221","706605","0.0-10.0-0.4","fixation","","","","",""
"196.07499986886978","Stimuli/Hangul_F52.bmp","190","image-keyboard-response","222","706802","0.0-10.0-1.4","test",".","",".","",""
"null","<div style=""color:white; font-size:60px;"">+</div>","null","html-keyboard-response","223","707804","0.0-10.0-0.5","fixation","","","","",""
"114.43999991752207","Stimuli/Hangul_F67.bmp","190","image-keyboard-response","224","707919","0.0-10.0-1.5","test",".","",".","",""
"null","<div style=""color:white; font-size:60px;"">+</div>","null","html-keyboard-response","225","708920","0.0-10.0-0.6","fixation","","","","",""
"91.66499995626509","Stimuli/Hangul_F56.bmp","190","image-keyboard-response","226","709012","0.0-10.0-1.6","test",".","",".","",""
"null","<div style=""color:white; font-size:60px;"">+</div>","null","html-keyboard-response","227","710013","0.0-10.0-0.7","fixation","","","","",""
"100.16000014729798","Stimuli/Hangul_M70.bmp","190","image-keyboard-response","228","710114","0.0-10.0-1.7","test",",","",".","",""
"null","<div style=""color:white; font-size:60px;"">+</div>","null","html-keyboard-response","229","711115","0.0-10.0-0.8","fixation","","","","",""
"90.1300001423806","Stimuli/Hangul_M72.bmp","190","image-keyboard-response","230","711206","0.0-10.0-1.8","test",",","",".","",""
"null","<div style=""color:white; font-size:60px;"">+</div>","null","html-keyboard-response","231","712207","0.0-10.0-0.9","fixation","","","","",""
"110.6200001668185","Stimuli/Hangul_F60.bmp","188","image-keyboard-response","232","712318","0.0-10.0-1.9","test",".","",",","",""
"null","<div style=""color:white; font-size:60px;"">+</div>","null","html-keyboard-response","233","713320","0.0-10.0-0.10","fixation","","","","",""
"339.5950000267476","Stimuli/Hangul_M51.bmp","190","image-keyboard-response","234","713660","0.0-10.0-1.10","test",",","",".","",""
"null","<div style=""color:white; font-size:60px;"">+</div>","null","html-keyboard-response","235","714661","0.0-10.0-0.11","fixation","","","","",""
"300.8049998898059","Stimuli/Hangul_F61.bmp","190","image-keyboard-response","236","714962","0.0-10.0-1.11","test",".","",".","",""
"null","<div style=""color:white; font-size:60px;"">+</div>","null","html-keyboard-response","237","715962","0.0-10.0-0.12","fixation","","","","",""
"216.23999997973442","Stimuli/Hangul_F66.bmp","190","image-keyboard-response","238","716179","0.0-10.0-1.12","test",".","",".","",""
"null","<div style=""color:white; font-size:60px;"">+</div>","null","html-keyboard-response","239","717180","0.0-10.0-0.13","fixation","","","","",""
"237.50000004656613","Stimuli/Hangul_M64.bmp","190","image-keyboard-response","240","717418","0.0-10.0-1.13","test",",","",".","",""
"null","<div style=""color:white; font-size:60px;"">+</div>","null","html-keyboard-response","241","718419","0.0-10.0-0.14","fixation","","","","",""
"130.33500011079013","Stimuli/Hangul_F59.bmp","190","image-keyboard-response","242","718550","0.0-10.0-1.14","test",".","",".","",""
"null","<div style=""color:white; font-size:60px;"">+</div>","null","html-keyboard-response","243","719552","0.0-10.0-0.15","fixation","","","","",""
"256.2049999833107","Stimuli/Hangul_F68.bmp","190","image-keyboard-response","244","719809","0.0-10.0-1.15","test",".","",".","",""
"null","<div style=""color:white; font-size:60px;"">+</div>","null","html-keyboard-response","245","720809","0.0-10.0-0.16","fixation","","","","",""
"400.21500014699996","Stimuli/Hangul_F64.bmp","190","image-keyboard-response","246","721210","0.0-10.0-1.16","test",".","",".","",""
"null","<div style=""color:white; font-size:60px;"">+</div>","null","html-keyboard-response","247","722211","0.0-10.0-0.17","fixation","","","","",""
"339.39000009559095","Stimuli/Hangul_M73.bmp","188","image-keyboard-response","248","722551","0.0-10.0-1.17","test",",","",",","",""
"null","<div style=""color:white; font-size:60px;"">+</div>","null","html-keyboard-response","249","723552","0.0-10.0-0.18","fixation","","","","",""
"57.23500018939376","Stimuli/Hangul_M52.bmp","188","image-keyboard-response","250","723610","0.0-10.0-1.18","test",",","",",","",""
"null","<div style=""color:white; font-size:60px;"">+</div>","null","html-keyboard-response","251","724612","0.0-10.0-0.19","fixation","","","","",""
"173.09499997645617","Stimuli/Hangul_M67.bmp","188","image-keyboard-response","252","724786","0.0-10.0-1.19","test",",","",",","",""
"null","<div style=""color:white; font-size:60px;"">+</div>","null","html-keyboard-response","253","725788","0.0-10.0-0.20","fixation","","","","",""
"73.7799999769777","Stimuli/Hangul_M56.bmp","190","image-keyboard-response","254","725863","0.0-10.0-1.20","test",",","",".","",""
"null","<div style=""color:white; font-size:60px;"">+</div>","null","html-keyboard-response","255","726865","0.0-10.0-0.21","fixation","","","","",""
"116.29500007256866","Stimuli/Hangul_M65.bmp","190","image-keyboard-response","256","726982","0.0-10.0-1.21","test",",","",".","",""
"null","<div style=""color:white; font-size:60px;"">+</div>","null","html-keyboard-response","257","727983","0.0-10.0-0.22","fixation","","","","",""
"400.5650000181049","Stimuli/Hangul_F58.bmp","190","image-keyboard-response","258","728384","0.0-10.0-1.22","test",".","",".","",""
"null","<div style=""color:white; font-size:60px;"">+</div>","null","html-keyboard-response","259","729385","0.0-10.0-0.23","fixation","","","","",""
"27.464999817311764","Stimuli/Hangul_F72.bmp","188","image-keyboard-response","260","729413","0.0-10.0-1.23","test",".","",",","",""
"null","<div style=""color:white; font-size:60px;"">+</div>","null","html-keyboard-response","261","730415","0.0-10.0-0.24","fixation","","","","",""
"171.61500011570752","Stimuli/Hangul_M71.bmp","190","image-keyboard-response","262","730587","0.0-10.0-1.24","test",",","",".","",""
"null","<div style=""color:white; font-size:60px;"">+</div>","null","html-keyboard-response","263","731588","0.0-10.0-0.25","fixation","","","","",""
"23.065000073984265","Stimuli/Hangul_F51.bmp","188","image-keyboard-response","264","731611","0.0-10.0-1.25","test",".","",",","",""
"null","<div style=""color:white; font-size:60px;"">+</div>","null","html-keyboard-response","265","732612","0.0-10.0-0.26","fixation","","","","",""
"21.89500001259148","Stimuli/Hangul_F53.bmp","190","image-keyboard-response","266","732634","0.0-10.0-1.26","test",".","",".","",""
"null","<div style=""color:white; font-size:60px;"">+</div>","null","html-keyboard-response","267","733636","0.0-10.0-0.27","fixation","","","","",""
"246.8250000383705","Stimuli/Hangul_F62.bmp","190","image-keyboard-response","268","733883","0.0-10.0-1.27","test",".","",".","",""
"null","<div style=""color:white; font-size:60px;"">+</div>","null","html-keyboard-response","269","734884","0.0-10.0-0.28","fixation","","","","",""
"127.65999999828637","Stimuli/Hangul_F54.bmp","190","image-keyboard-response","270","735012","0.0-10.0-1.28","test",".","",".","",""
"null","<div style=""color:white; font-size:60px;"">+</div>","null","html-keyboard-response","271","736013","0.0-10.0-0.29","fixation","","","","",""
"58.09499998576939","Stimuli/Hangul_M63.bmp","190","image-keyboard-response","272","736072","0.0-10.0-1.29","test",",","",".","",""
"null","<div style=""color:white; font-size:60px;"">+</div>","null","html-keyboard-response","273","737073","0.0-10.0-0.30","fixation","","","","",""
"203.4849999472499","Stimuli/Hangul_M57.bmp","190","image-keyboard-response","274","737277","0.0-10.0-1.30","test",",","",".","",""
"null","<div style=""color:white; font-size:60px;"">+</div>","null","html-keyboard-response","275","738278","0.0-10.0-0.31","fixation","","","","",""
"419.8400001041591","Stimuli/Hangul_F71.bmp","190","image-keyboard-response","276","738698","0.0-10.0-1.31","test",".","",".","",""
"null","<div style=""color:white; font-size:60px;"">+</div>","null","html-keyboard-response","277","739698","0.0-10.0-0.32","fixation","","","","",""
"237.93000006116927","Stimuli/Hangul_M53.bmp","188","image-keyboard-response","278","739937","0.0-10.0-1.32","test",",","",",","",""
"null","<div style=""color:white; font-size:60px;"">+</div>","null","html-keyboard-response","279","740939","0.0-10.0-0.33","fixation","","","","",""
"358.80000004544854","Stimuli/Hangul_F57.bmp","190","image-keyboard-response","280","741298","0.0-10.0-1.33","test",".","",".","",""
"null","<div style=""color:white; font-size:60px;"">+</div>","null","html-keyboard-response","281","742301","0.0-10.0-0.34","fixation","","","","",""
"45.11499986983836","Stimuli/Hangul_F73.bmp","190","image-keyboard-response","282","742346","0.0-10.0-1.34","test",".","",".","",""
"null","<div style=""color:white; font-size:60px;"">+</div>","null","html-keyboard-response","283","743347","0.0-10.0-0.35","fixation","","","","",""
"130.73000009171665","Stimuli/Hangul_F50.bmp","190","image-keyboard-response","284","743479","0.0-10.0-1.35","test",".","",".","",""
"null","<div style=""color:white; font-size:60px;"">+</div>","null","html-keyboard-response","285","744480","0.0-10.0-0.36","fixation","","","","",""
"126.45999994128942","Stimuli/Hangul_F65.bmp","188","image-keyboard-response","286","744607","0.0-10.0-1.36","test",".","",",","",""
"null","<div style=""color:white; font-size:60px;"">+</div>","null","html-keyboard-response","287","745609","0.0-10.0-0.37","fixation","","","","",""
"131.83500012382865","Stimuli/Hangul_M66.bmp","188","image-keyboard-response","288","745741","0.0-10.0-1.37","test",",","",",","",""
"null","<div style=""color:white; font-size:60px;"">+</div>","null","html-keyboard-response","289","746743","0.0-10.0-0.38","fixation","","","","",""
"231.85000009834766","Stimuli/Hangul_M69.bmp","188","image-keyboard-response","290","746975","0.0-10.0-1.38","test",",","",",","",""
"null","<div style=""color:white; font-size:60px;"">+</div>","null","html-keyboard-response","291","747977","0.0-10.0-0.39","fixation","","","","",""
"59.57500007934868","Stimuli/Hangul_F74.bmp","190","image-keyboard-response","292","748038","0.0-10.0-1.39","test",".","",".","",""
"null","<div style=""color:white; font-size:60px;"">+</div>","null","html-keyboard-response","293","749039","0.0-10.0-0.40","fixation","","","","",""
"270.9900001063943","Stimuli/Hangul_M61.bmp","190","image-keyboard-response","294","749311","0.0-10.0-1.40","test",",","",".","",""
"null","<div style=""color:white; font-size:60px;"">+</div>","null","html-keyboard-response","295","750312","0.0-10.0-0.41","fixation","","","","",""
"499.9800000805408","Stimuli/Hangul_M54.bmp","188","image-keyboard-response","296","750812","0.0-10.0-1.41","test",",","",",","",""
"null","<div style=""color:white; font-size:60px;"">+</div>","null","html-keyboard-response","297","751814","0.0-10.0-0.42","fixation","","","","",""
"325.73499996215105","Stimuli/Hangul_M68.bmp","190","image-keyboard-response","298","752140","0.0-10.0-1.42","test",",","",".","",""
"null","<div style=""color:white; font-size:60px;"">+</div>","null","html-keyboard-response","299","753141","0.0-10.0-0.43","fixation","","","","",""
"100.91000003740191","Stimuli/Hangul_M60.bmp","190","image-keyboard-response","300","753242","0.0-10.0-1.43","test",",","",".","",""
"null","<div style=""color:white; font-size:60px;"">+</div>","null","html-keyboard-response","301","754244","0.0-10.0-0.44","fixation","","","","",""
"111.95000004954636","Stimuli/Hangul_F55.bmp","188","image-keyboard-response","302","754356","0.0-10.0-1.44","test",".","",",","",""
"null","<div style=""color:white; font-size:60px;"">+</div>","null","html-keyboard-response","303","755357","0.0-10.0-0.45","fixation","","","","",""
"346.82999993674457","Stimuli/Hangul_M50.bmp","190","image-keyboard-response","304","755704","0.0-10.0-1.45","test",",","",".","",""
"null","<div style=""color:white; font-size:60px;"">+</div>","null","html-keyboard-response","305","756705","0.0-10.0-0.46","fixation","","","","",""
"90.60500003397465","Stimuli/Hangul_F69.bmp","190","image-keyboard-response","306","756796","0.0-10.0-1.46","test",".","",".","",""
"null","<div style=""color:white; font-size:60px;"">+</div>","null","html-keyboard-response","307","757796","0.0-10.0-0.47","fixation","","","","",""
"219.91500002332032","Stimuli/Hangul_M58.bmp","190","image-keyboard-response","308","758017","0.0-10.0-1.47","test",",","",".","",""
"null","<div style=""color:white; font-size:60px;"">+</div>","null","html-keyboard-response","309","759017","0.0-10.0-0.48","fixation","","","","",""
"167.91000007651746","Stimuli/Hangul_M59.bmp","190","image-keyboard-response","310","759187","0.0-10.0-1.48","test",",","",".","",""
"null","<div style=""color:white; font-size:60px;"">+</div>","null","html-keyboard-response","311","760189","0.0-10.0-0.49","fixation","","","","",""
"270.41999995708466","Stimuli/Hangul_M74.bmp","190","image-keyboard-response","312","760460","0.0-10.0-1.49","test",",","",".","",""
"8010.820000199601","<p style=""color:white;"">One more block to go! Please take a moment to rest.</p> <p style=""color:white;"">When you are ready to continue with block 4 of 4, press the space bar.</p> ","32","html-keyboard-response","313","768471","0.0-11.0","","","","","",""
"null","<div style=""color:white; font-size:60px;"">+</div>","null","html-keyboard-response","314","771474","0.0-12.0-0.0","fixation","","","","",""
"201.69999985955656","Stimuli/Hangul_M94.bmp","188","image-keyboard-response","315","771677","0.0-12.0-1.0","test",",","",",","",""
"null","<div style=""color:white; font-size:60px;"">+</div>","null","html-keyboard-response","316","772678","0.0-12.0-0.1","fixation","","","","",""
"38.08500012382865","Stimuli/Hangul_M81.bmp","190","image-keyboard-response","317","772716","0.0-12.0-1.1","test",",","",".","",""
"null","<div style=""color:white; font-size:60px;"">+</div>","null","html-keyboard-response","318","773718","0.0-12.0-0.2","fixation","","","","",""
"60.49499986693263","Stimuli/Hangul_F86.bmp","190","image-keyboard-response","319","773780","0.0-12.0-1.2","test",".","",".","",""
"null","<div style=""color:white; font-size:60px;"">+</div>","null","html-keyboard-response","320","774782","0.0-12.0-0.3","fixation","","","","",""
"329.6650000847876","Stimuli/Hangul_F96.bmp","190","image-keyboard-response","321","775112","0.0-12.0-1.3","test",".","",".","",""
"null","<div style=""color:white; font-size:60px;"">+</div>","null","html-keyboard-response","322","776114","0.0-12.0-0.4","fixation","","","","",""
"251.9249999895692","Stimuli/Hangul_M92.bmp","190","image-keyboard-response","323","776367","0.0-12.0-1.4","test",",","",".","",""
"null","<div style=""color:white; font-size:60px;"">+</div>","null","html-keyboard-response","324","777368","0.0-12.0-0.5","fixation","","","","",""
"183.7300001643598","Stimuli/Hangul_M95.bmp","190","image-keyboard-response","325","777552","0.0-12.0-1.5","test",",","",".","",""
"null","<div style=""color:white; font-size:60px;"">+</div>","null","html-keyboard-response","326","778555","0.0-12.0-0.6","fixation","","","","",""
"197.26999988779426","Stimuli/Hangul_F78.bmp","190","image-keyboard-response","327","778753","0.0-12.0-1.6","test",".","",".","",""
"null","<div style=""color:white; font-size:60px;"">+</div>","null","html-keyboard-response","328","779754","0.0-12.0-0.7","fixation","","","","",""
"25.959999999031425","Stimuli/Hangul_F81.bmp","188","image-keyboard-response","329","779780","0.0-12.0-1.7","test",".","",",","",""
"null","<div style=""color:white; font-size:60px;"">+</div>","null","html-keyboard-response","330","780782","0.0-12.0-0.8","fixation","","","","",""
"177.350000012666","Stimuli/Hangul_M99.bmp","190","image-keyboard-response","331","780960","0.0-12.0-1.8","test",",","",".","",""
"null","<div style=""color:white; font-size:60px;"">+</div>","null","html-keyboard-response","332","781961","0.0-12.0-0.9","fixation","","","","",""
"326.3400001451373","Stimuli/Hangul_M85.bmp","190","image-keyboard-response","333","782288","0.0-12.0-1.9","test",",","",".","",""
"null","<div style=""color:white; font-size:60px;"">+</div>","null","html-keyboard-response","334","783289","0.0-12.0-0.10","fixation","","","","",""
"130.2949998062104","Stimuli/Hangul_F93.bmp","190","image-keyboard-response","335","783420","0.0-12.0-1.10","test",".","",".","",""
"null","<div style=""color:white; font-size:60px;"">+</div>","null","html-keyboard-response","336","784421","0.0-12.0-0.11","fixation","","","","",""
"1.9950000569224358","Stimuli/Hangul_F87.bmp","188","image-keyboard-response","337","784423","0.0-12.0-1.11","test",".","",",","",""
"null","<div style=""color:white; font-size:60px;"">+</div>","null","html-keyboard-response","338","785424","0.0-12.0-0.12","fixation","","","","",""
"236.11499997787178","Stimuli/Hangul_M96.bmp","190","image-keyboard-response","339","785661","0.0-12.0-1.12","test",",","",".","",""
"null","<div style=""color:white; font-size:60px;"">+</div>","null","html-keyboard-response","340","786663","0.0-12.0-0.13","fixation","","","","",""
"561.4049998112023","Stimuli/Hangul_F82.bmp","190","image-keyboard-response","341","787225","0.0-12.0-1.13","test",".","",".","",""
"null","<div style=""color:white; font-size:60px;"">+</div>","null","html-keyboard-response","342","788227","0.0-12.0-0.14","fixation","","","","",""
"305.9849999845028","Stimuli/Hangul_F95.bmp","190","image-keyboard-response","343","788534","0.0-12.0-1.14","test",".","",".","",""
"null","<div style=""color:white; font-size:60px;"">+</div>","null","html-keyboard-response","344","789535","0.0-12.0-0.15","fixation","","","","",""
"163.69999991729856","Stimuli/Hangul_M97.bmp","190","image-keyboard-response","345","789699","0.0-12.0-1.15","test",",","",".","",""
"null","<div style=""color:white; font-size:60px;"">+</div>","null","html-keyboard-response","346","790701","0.0-12.0-0.16","fixation","","","","",""
"259.7050000913441","Stimuli/Hangul_F76.bmp","190","image-keyboard-response","347","790961","0.0-12.0-1.16","test",".","",".","",""
"null","<div style=""color:white; font-size:60px;"">+</div>","null","html-keyboard-response","348","791962","0.0-12.0-0.17","fixation","","","","",""
"105.89500004425645","Stimuli/Hangul_F92.bmp","190","image-keyboard-response","349","792068","0.0-12.0-1.17","test",".","",".","",""
"null","<div style=""color:white; font-size:60px;"">+</div>","null","html-keyboard-response","350","793069","0.0-12.0-0.18","fixation","","","","",""
"3.8250000216066837","Stimuli/Hangul_F80.bmp","188","image-keyboard-response","351","793073","0.0-12.0-1.18","test",".","",",","",""
"null","<div style=""color:white; font-size:60px;"">+</div>","null","html-keyboard-response","352","794074","0.0-12.0-0.19","fixation","","","","",""
"77.97500002197921","Stimuli/Hangul_F94.bmp","190","image-keyboard-response","353","794153","0.0-12.0-1.19","test",".","",".","",""
"null","<div style=""color:white; font-size:60px;"">+</div>","null","html-keyboard-response","354","795154","0.0-12.0-0.20","fixation","","","","",""
"175.9600001387298","Stimuli/Hangul_M98.bmp","188","image-keyboard-response","355","795331","0.0-12.0-1.20","test",",","",",","",""
"null","<div style=""color:white; font-size:60px;"">+</div>","null","html-keyboard-response","356","796332","0.0-12.0-0.21","fixation","","","","",""
"122.20500013791025","Stimuli/Hangul_M91.bmp","188","image-keyboard-response","357","796455","0.0-12.0-1.21","test",",","",",","",""
"null","<div style=""color:white; font-size:60px;"">+</div>","null","html-keyboard-response","358","797456","0.0-12.0-0.22","fixation","","","","",""
"282.6400001067668","Stimuli/Hangul_F98.bmp","188","image-keyboard-response","359","797739","0.0-12.0-1.22","test",".","",",","",""
"null","<div style=""color:white; font-size:60px;"">+</div>","null","html-keyboard-response","360","798741","0.0-12.0-0.23","fixation","","","","",""
"51.56500008888543","Stimuli/Hangul_F97.bmp","188","image-keyboard-response","361","798793","0.0-12.0-1.23","test",".","",",","",""
"null","<div style=""color:white; font-size:60px;"">+</div>","null","html-keyboard-response","362","799794","0.0-12.0-0.24","fixation","","","","",""
"61.304999981075525","Stimuli/Hangul_M80.bmp","190","image-keyboard-response","363","799856","0.0-12.0-1.24","test",",","",".","",""
"null","<div style=""color:white; font-size:60px;"">+</div>","null","html-keyboard-response","364","800858","0.0-12.0-0.25","fixation","","","","",""
"326.4199998229742","Stimuli/Hangul_M84.bmp","190","image-keyboard-response","365","801185","0.0-12.0-1.25","test",",","",".","",""
"null","<div style=""color:white; font-size:60px;"">+</div>","null","html-keyboard-response","366","802186","0.0-12.0-0.26","fixation","","","","",""
"390.7050001434982","Stimuli/Hangul_F77.bmp","190","image-keyboard-response","367","802577","0.0-12.0-1.26","test",".","",".","",""
"null","<div style=""color:white; font-size:60px;"">+</div>","null","html-keyboard-response","368","803579","0.0-12.0-0.27","fixation","","","","",""
"250.41500013321638","Stimuli/Hangul_F88.bmp","190","image-keyboard-response","369","803830","0.0-12.0-1.27","test",".","",".","",""
"null","<div style=""color:white; font-size:60px;"">+</div>","null","html-keyboard-response","370","804831","0.0-12.0-0.28","fixation","","","","",""
"264.570000115782","Stimuli/Hangul_M86.bmp","190","image-keyboard-response","371","805096","0.0-12.0-1.28","test",",","",".","",""
"null","<div style=""color:white; font-size:60px;"">+</div>","null","html-keyboard-response","372","806096","0.0-12.0-0.29","fixation","","","","",""
"194.9750001076609","Stimuli/Hangul_M88.bmp","190","image-keyboard-response","373","806292","0.0-12.0-1.29","test",",","",".","",""
"null","<div style=""color:white; font-size:60px;"">+</div>","null","html-keyboard-response","374","807294","0.0-12.0-0.30","fixation","","","","",""
"86.36999991722405","Stimuli/Hangul_M77.bmp","190","image-keyboard-response","375","807381","0.0-12.0-1.30","test",",","",".","",""
"null","<div style=""color:white; font-size:60px;"">+</div>","null","html-keyboard-response","376","808383","0.0-12.0-0.31","fixation","","","","",""
"179.4950000476092","Stimuli/Hangul_F75.bmp","190","image-keyboard-response","377","808563","0.0-12.0-1.31","test",".","",".","",""
"null","<div style=""color:white; font-size:60px;"">+</div>","null","html-keyboard-response","378","809565","0.0-12.0-0.32","fixation","","","","",""
"174.34500018134713","Stimuli/Hangul_M75.bmp","190","image-keyboard-response","379","809740","0.0-12.0-1.32","test",",","",".","",""
"null","<div style=""color:white; font-size:60px;"">+</div>","null","html-keyboard-response","380","810742","0.0-12.0-0.33","fixation","","","","",""
"23.429999826475978","Stimuli/Hangul_F90.bmp","190","image-keyboard-response","381","810766","0.0-12.0-1.33","test",".","",".","",""
"null","<div style=""color:white; font-size:60px;"">+</div>","null","html-keyboard-response","382","811767","0.0-12.0-0.34","fixation","","","","",""
"24.80500005185604","Stimuli/Hangul_F91.bmp","190","image-keyboard-response","383","811793","0.0-12.0-1.34","test",".","",".","",""
"null","<div style=""color:white; font-size:60px;"">+</div>","null","html-keyboard-response","384","812794","0.0-12.0-0.35","fixation","","","","",""
"183.37999982759356","Stimuli/Hangul_M89.bmp","190","image-keyboard-response","385","812978","0.0-12.0-1.35","test",",","",".","",""
"null","<div style=""color:white; font-size:60px;"">+</div>","null","html-keyboard-response","386","813979","0.0-12.0-0.36","fixation","","","","",""
"61.375000048428774","Stimuli/Hangul_M79.bmp","188","image-keyboard-response","387","814041","0.0-12.0-1.36","test",",","",",","",""
"null","<div style=""color:white; font-size:60px;"">+</div>","null","html-keyboard-response","388","815042","0.0-12.0-0.37","fixation","","","","",""
"97.98499988391995","Stimuli/Hangul_F85.bmp","190","image-keyboard-response","389","815141","0.0-12.0-1.37","test",".","",".","",""
"null","<div style=""color:white; font-size:60px;"">+</div>","null","html-keyboard-response","390","816142","0.0-12.0-0.38","fixation","","","","",""
"155.82500002346933","Stimuli/Hangul_M93.bmp","190","image-keyboard-response","391","816298","0.0-12.0-1.38","test",",","",".","",""
"null","<div style=""color:white; font-size:60px;"">+</div>","null","html-keyboard-response","392","817299","0.0-12.0-0.39","fixation","","","","",""
"395.30000020749867","Stimuli/Hangul_M87.bmp","190","image-keyboard-response","393","817695","0.0-12.0-1.39","test",",","",".","",""
"null","<div style=""color:white; font-size:60px;"">+</div>","null","html-keyboard-response","394","818697","0.0-12.0-0.40","fixation","","","","",""
"327.4100001435727","Stimuli/Hangul_F99.bmp","190","image-keyboard-response","395","819025","0.0-12.0-1.40","test",".","",".","",""
"null","<div style=""color:white; font-size:60px;"">+</div>","null","html-keyboard-response","396","820026","0.0-12.0-0.41","fixation","","","","",""
"360.74000014923513","Stimuli/Hangul_M82.bmp","190","image-keyboard-response","397","820387","0.0-12.0-1.41","test",",","",".","",""
"null","<div style=""color:white; font-size:60px;"">+</div>","null","html-keyboard-response","398","821388","0.0-12.0-0.42","fixation","","","","",""
"270.8800002001226","Stimuli/Hangul_M83.bmp","190","image-keyboard-response","399","821659","0.0-12.0-1.42","test",",","",".","",""
"null","<div style=""color:white; font-size:60px;"">+</div>","null","html-keyboard-response","400","822661","0.0-12.0-0.43","fixation","","","","",""
"356.7850000690669","Stimuli/Hangul_F89.bmp","190","image-keyboard-response","401","823019","0.0-12.0-1.43","test",".","",".","",""
"null","<div style=""color:white; font-size:60px;"">+</div>","null","html-keyboard-response","402","824020","0.0-12.0-0.44","fixation","","","","",""
"29.630000004544854","Stimuli/Hangul_F84.bmp","190","image-keyboard-response","403","824050","0.0-12.0-1.44","test",".","",".","",""
"null","<div style=""color:white; font-size:60px;"">+</div>","null","html-keyboard-response","404","825052","0.0-12.0-0.45","fixation","","","","",""
"114.52499986626208","Stimuli/Hangul_M78.bmp","188","image-keyboard-response","405","825167","0.0-12.0-1.45","test",",","",",","",""
"null","<div style=""color:white; font-size:60px;"">+</div>","null","html-keyboard-response","406","826168","0.0-12.0-0.46","fixation","","","","",""
"113.27000008895993","Stimuli/Hangul_F79.bmp","190","image-keyboard-response","407","826282","0.0-12.0-1.46","test",".","",".","",""
"null","<div style=""color:white; font-size:60px;"">+</div>","null","html-keyboard-response","408","827284","0.0-12.0-0.47","fixation","","","","",""
"265.0300001259893","Stimuli/Hangul_M90.bmp","190","image-keyboard-response","409","827550","0.0-12.0-1.47","test",",","",".","",""
"null","<div style=""color:white; font-size:60px;"">+</div>","null","html-keyboard-response","410","828552","0.0-12.0-0.48","fixation","","","","",""
"223.62999990582466","Stimuli/Hangul_F83.bmp","190","image-keyboard-response","411","828776","0.0-12.0-1.48","test",".","",".","",""
"null","<div style=""color:white; font-size:60px;"">+</div>","null","html-keyboard-response","412","829778","0.0-12.0-0.49","fixation","","","","",""
"288.59999985434115","Stimuli/Hangul_M76.bmp","190","image-keyboard-response","413","830067","0.0-12.0-1.49","test",",","",".","",""
"1767.2449999954551","<p style=""color:white;"">Phase I of the experiment is complete.</p> <p style=""color:white;"">Press the space bar to proceed to Phase II of the experiment.</p> ","32","html-keyboard-response","414","831835","0.0-13.0","","","","","",""
"8261.089999927208","<p style=""color:white;"">Now we are interested in how well you can predict patterns in the series of figures. You will be asked to predict whether the next figure in the series is more male-like or female-like. When you see the <q>Next Figure</q> prompt, press the corresponding response keys to indicate your prediction: </p><p style=""color:white;""> Male &#8594 <q>,</q> (comma)</p><p style=""color:white;""> Female &#8594 <q>.</q> (period)</p><p style=""color:white;"">The actual figure will then appear on the screen. After you see the figure, please guess the assigned gender with response keys. </p><p style=""color:white;"">As before, you will receive 2 cents for correctly classifying each figure.</p><p style=""color:white;"">Press either response keys to continue.</p>","188","html-keyboard-response","415","842097","0.0-14.0","","","","","",""
"10418.25499990955","<p style=""color:white;"">PREDICTION BONUS</p> <p style=""color:white;"">Your prediction accuracy is the total number of correct predictions you make over the 200 trials.</p> <p style=""color:white;"">In addition to the 2 cents per correct figure classification, you have the chance to receive a bonus of 40 dollars IF your accuracy is above average relative to previous participants.</p><p style=""color:white;"">If your accuracy is below average relative to previous participants, then you will not receive the 40 dollar bonus.</p><p style=""color:white;"">Press the space bar to continue.</p>","32","html-keyboard-response","416","852516","0.0-15.0","","","","","",""
"2271.9699998851866","<p style=""color:white;"">Here are some examples.</p> <p style=""color:white;"">For each, predict whether the next figure looks more male-like or female-like. Then, when the figure appears, guess whether it looks more male-like or female-like and indicate your choice.</p> <p style=""color:white;"">Press the space bar to continue.</p>","32","html-keyboard-response","417","854788","0.0-16.0","","","","","",""
"364.40499988384545","<p style=""color:white;""> Next Figure: Male or Female? </p>","190","html-keyboard-response","418","857155","0.0-17.0-0.0","prediction_train","","","",".",""
"null","<div style=""color:white; font-size:60px;"">+</div>","null","html-keyboard-response","419","858158","0.0-17.0-1.0","fixation","","","","",""
"1106.8450000602752","Stimuli/Hangul_E2.bmp","188","image-keyboard-response","420","859265","0.0-17.0-2.0","c2_train",".","","","",","
"2296.76999989897","<p style=""color:white;""> Next Figure: Male or Female? </p>","190","html-keyboard-response","421","861563","0.0-17.0-0.1","prediction_train","","","",".",""
"null","<div style=""color:white; font-size:60px;"">+</div>","null","html-keyboard-response","422","862566","0.0-17.0-1.1","fixation","","","","",""
"262.0149999856949","Stimuli/Hangul_E0.bmp","190","image-keyboard-response","423","862828","0.0-17.0-2.1","c2_train",",","","","","."
"125.58500003069639","<p style=""color:white;""> Next Figure: Male or Female? </p>","188","html-keyboard-response","424","862954","0.0-17.0-0.2","prediction_train","","","",",",""
"null","<div style=""color:white; font-size:60px;"">+</div>","null","html-keyboard-response","425","863956","0.0-17.0-1.2","fixation","","","","",""
"170.2800001949072","Stimuli/Hangul_E1.bmp","190","image-keyboard-response","426","864126","0.0-17.0-2.2","c2_train",",","","","","."
"927.4199998471886","<p style=""color:white;"">Let us begin! Press the space bar when you are ready to start block 1 of 4.</p> ","32","html-keyboard-response","427","865054","0.0-18.0","","","","","",""
"139.350000070408","<p style=""color:white;""> Next Figure: Male or Female? </p>","190","html-keyboard-response","428","867194","0.0-19.0-0.0","prediction","","","",".",""
"null","<div style=""color:white; font-size:60px;"">+</div>","null","html-keyboard-response","429","868196","0.0-19.0-1.0","fixation","","","","",""
"175.1149999909103","Stimuli/Hangul_F22.bmp","188","image-keyboard-response","430","868371","0.0-19.0-2.0","c2_test",".","","","",","
"284.53500010073185","<p style=""color:white;""> Next Figure: Male or Female? </p>","190","html-keyboard-response","431","868656","0.0-19.0-0.1","prediction","","","",".",""
"null","<div style=""color:white; font-size:60px;"">+</div>","null","html-keyboard-response","432","869659","0.0-19.0-1.1","fixation","","","","",""
"216.12500003539026","Stimuli/Hangul_F19.bmp","190","image-keyboard-response","433","869875","0.0-19.0-2.1","c2_test",".","","","","."
"121.5500000398606","<p style=""color:white;""> Next Figure: Male or Female? </p>","188","html-keyboard-response","434","869997","0.0-19.0-0.2","prediction","","","",",",""
"null","<div style=""color:white; font-size:60px;"">+</div>","null","html-keyboard-response","435","870999","0.0-19.0-1.2","fixation","","","","",""
"236.22000007890165","Stimuli/Hangul_F24.bmp","190","image-keyboard-response","436","871235","0.0-19.0-2.2","c2_test",".","","","","."
"102.57500014267862","<p style=""color:white;""> Next Figure: Male or Female? </p>","188","html-keyboard-response","437","871338","0.0-19.0-0.3","prediction","","","",",",""
"null","<div style=""color:white; font-size:60px;"">+</div>","null","html-keyboard-response","438","872340","0.0-19.0-1.3","fixation","","","","",""
"307.255000108853","Stimuli/Hangul_F16.bmp","190","image-keyboard-response","439","872648","0.0-19.0-2.3","c2_test",".","","","","."
"82.27000012993813","<p style=""color:white;""> Next Figure: Male or Female? </p>","188","html-keyboard-response","440","872730","0.0-19.0-0.4","prediction","","","",",",""
"null","<div style=""color:white; font-size:60px;"">+</div>","null","html-keyboard-response","441","873732","0.0-19.0-1.4","fixation","","","","",""
"3.3599999733269215","Stimuli/Hangul_M7.bmp","188","image-keyboard-response","442","873736","0.0-19.0-2.4","c2_test",",","","","",","
"338.3400000166148","<p style=""color:white;""> Next Figure: Male or Female? </p>","190","html-keyboard-response","443","874074","0.0-19.0-0.5","prediction","","","",".",""
"null","<div style=""color:white; font-size:60px;"">+</div>","null","html-keyboard-response","444","875076","0.0-19.0-1.5","fixation","","","","",""
"50.14499998651445","Stimuli/Hangul_F18.bmp","190","image-keyboard-response","445","875126","0.0-19.0-2.5","c2_test",".","","","","."
"115.50999991595745","<p style=""color:white;""> Next Figure: Male or Female? </p>","188","html-keyboard-response","446","875242","0.0-19.0-0.6","prediction","","","",",",""
"null","<div style=""color:white; font-size:60px;"">+</div>","null","html-keyboard-response","447","876243","0.0-19.0-1.6","fixation","","","","",""
"163.88999996706843","Stimuli/Hangul_M8.bmp","190","image-keyboard-response","448","876407","0.0-19.0-2.6","c2_test",",","","","","."
"113.2750001270324","<p style=""color:white;""> Next Figure: Male or Female? </p>","188","html-keyboard-response","449","876521","0.0-19.0-0.7","prediction","","","",",",""
"null","<div style=""color:white; font-size:60px;"">+</div>","null","html-keyboard-response","450","877522","0.0-19.0-1.7","fixation","","","","",""
"856.0449997894466","Stimuli/Hangul_F20.bmp","190","image-keyboard-response","451","878379","0.0-19.0-2.7","c2_test",".","","","","."
"254.19000000692904","<p style=""color:white;""> Next Figure: Male or Female? </p>","188","html-keyboard-response","452","878634","0.0-19.0-0.8","prediction","","","",",",""
"null","<div style=""color:white; font-size:60px;"">+</div>","null","html-keyboard-response","453","879635","0.0-19.0-1.8","fixation","","","","",""
"86.02500008419156","Stimuli/Hangul_F9.bmp","188","image-keyboard-response","454","879722","0.0-19.0-2.8","c2_test",".","","","",","
"317.60499998927116","<p style=""color:white;""> Next Figure: Male or Female? </p>","190","html-keyboard-response","455","880040","0.0-19.0-0.9","prediction","","","",".",""
"null","<div style=""color:white; font-size:60px;"">+</div>","null","html-keyboard-response","456","881040","0.0-19.0-1.9","fixation","","","","",""
"258.2349998410791","Stimuli/Hangul_F4.bmp","188","image-keyboard-response","457","881299","0.0-19.0-2.9","c2_test",".","","","",","
"9.205000009387732","<p style=""color:white;""> Next Figure: Male or Female? </p>","190","html-keyboard-response","458","881309","0.0-19.0-0.10","prediction","","","",".",""
"null","<div style=""color:white; font-size:60px;"">+</div>","null","html-keyboard-response","459","882310","0.0-19.0-1.10","fixation","","","","",""
"79.51500010676682","Stimuli/Hangul_M21.bmp","188","image-keyboard-response","460","882390","0.0-19.0-2.10","c2_test",",","","","",","
"298.81499987095594","<p style=""color:white;""> Next Figure: Male or Female? </p>","190","html-keyboard-response","461","882689","0.0-19.0-0.11","prediction","","","",".",""
"null","<div style=""color:white; font-size:60px;"">+</div>","null","html-keyboard-response","462","883690","0.0-19.0-1.11","fixation","","","","",""
"47.74500010535121","Stimuli/Hangul_F1.bmp","188","image-keyboard-response","463","883738","0.0-19.0-2.11","c2_test",".","","","",","
"271.1799999233335","<p style=""color:white;""> Next Figure: Male or Female? </p>","190","html-keyboard-response","464","884010","0.0-19.0-0.12","prediction","","","",".",""
"null","<div style=""color:white; font-size:60px;"">+</div>","null","html-keyboard-response","465","885010","0.0-19.0-1.12","fixation","","","","",""
"195.1049999333918","Stimuli/Hangul_M2.bmp","190","image-keyboard-response","466","885206","0.0-19.0-2.12","c2_test",",","","","","."
"119.68999984674156","<p style=""color:white;""> Next Figure: Male or Female? </p>","188","html-keyboard-response","467","885326","0.0-19.0-0.13","prediction","","","",",",""
"null","<div style=""color:white; font-size:60px;"">+</div>","null","html-keyboard-response","468","886327","0.0-19.0-1.13","fixation","","","","",""
"209.89499986171722","Stimuli/Hangul_M18.bmp","190","image-keyboard-response","469","886537","0.0-19.0-2.13","c2_test",",","","","","."
"156.44999989308417","<p style=""color:white;""> Next Figure: Male or Female? </p>","188","html-keyboard-response","470","886694","0.0-19.0-0.14","prediction","","","",",",""
"null","<div style=""color:white; font-size:60px;"">+</div>","null","html-keyboard-response","471","887695","0.0-19.0-1.14","fixation","","","","",""
"269.1399999894202","Stimuli/Hangul_M5.bmp","188","image-keyboard-response","472","887965","0.0-19.0-2.14","c2_test",",","","","",","
"11.919999960809946","<p style=""color:white;""> Next Figure: Male or Female? </p>","190","html-keyboard-response","473","887977","0.0-19.0-0.15","prediction","","","",".",""
"null","<div style=""color:white; font-size:60px;"">+</div>","null","html-keyboard-response","474","888979","0.0-19.0-1.15","fixation","","","","",""
"15.72000002488494","Stimuli/Hangul_F15.bmp","190","image-keyboard-response","475","888996","0.0-19.0-2.15","c2_test",".","","","","."
"78.56499985791743","<p style=""color:white;""> Next Figure: Male or Female? </p>","188","html-keyboard-response","476","889075","0.0-19.0-0.16","prediction","","","",",",""
"null","<div style=""color:white; font-size:60px;"">+</div>","null","html-keyboard-response","477","890077","0.0-19.0-1.16","fixation","","","","",""
"66.88500009477139","Stimuli/Hangul_F6.bmp","190","image-keyboard-response","478","890144","0.0-19.0-2.16","c2_test",".","","","","."
"233.77000004984438","<p style=""color:white;""> Next Figure: Male or Female? </p>","188","html-keyboard-response","479","890379","0.0-19.0-0.17","prediction","","","",",",""
"null","<div style=""color:white; font-size:60px;"">+</div>","null","html-keyboard-response","480","891381","0.0-19.0-1.17","fixation","","","","",""
"250.5850000306964","Stimuli/Hangul_F11.bmp","190","image-keyboard-response","481","891632","0.0-19.0-2.17","c2_test",".","","","","."
"159.83999986201525","<p style=""color:white;""> Next Figure: Male or Female? </p>","188","html-keyboard-response","482","891792","0.0-19.0-0.18","prediction","","","",",",""
"null","<div style=""color:white; font-size:60px;"">+</div>","null","html-keyboard-response","483","892793","0.0-19.0-1.18","fixation","","","","",""
"58.32499987445772","Stimuli/Hangul_F17.bmp","188","image-keyboard-response","484","892851","0.0-19.0-2.18","c2_test",".","","","",","
"367.92000010609627","<p style=""color:white;""> Next Figure: Male or Female? </p>","190","html-keyboard-response","485","893220","0.0-19.0-0.19","prediction","","","",".",""
"null","<div style=""color:white; font-size:60px;"">+</div>","null","html-keyboard-response","486","894222","0.0-19.0-1.19","fixation","","","","",""
"41.55500000342727","Stimuli/Hangul_M0.bmp","188","image-keyboard-response","487","894264","0.0-19.0-2.19","c2_test",",","","","",","
"447.8249999228865","<p style=""color:white;""> Next Figure: Male or Female? </p>","188","html-keyboard-response","488","894713","0.0-19.0-0.20","prediction","","","",",",""
"null","<div style=""color:white; font-size:60px;"">+</div>","null","html-keyboard-response","489","895714","0.0-19.0-1.20","fixation","","","","",""
"232.73500008508563","Stimuli/Hangul_F0.bmp","190","image-keyboard-response","490","895947","0.0-19.0-2.20","c2_test",".","","","","."
"103.20500005036592","<p style=""color:white;""> Next Figure: Male or Female? </p>","188","html-keyboard-response","491","896051","0.0-19.0-0.21","prediction","","","",",",""
"null","<div style=""color:white; font-size:60px;"">+</div>","null","html-keyboard-response","492","897052","0.0-19.0-1.21","fixation","","","","",""
"214.77500000037253","Stimuli/Hangul_F21.bmp","190","image-keyboard-response","493","897267","0.0-19.0-2.21","c2_test",".","","","","."
"151.16499993018806","<p style=""color:white;""> Next Figure: Male or Female? </p>","188","html-keyboard-response","494","897419","0.0-19.0-0.22","prediction","","","",",",""
"null","<div style=""color:white; font-size:60px;"">+</div>","null","html-keyboard-response","495","898420","0.0-19.0-1.22","fixation","","","","",""
"71.63499994203448","Stimuli/Hangul_F8.bmp","188","image-keyboard-response","496","898492","0.0-19.0-2.22","c2_test",".","","","",","
"446.53000007383525","<p style=""color:white;""> Next Figure: Male or Female? </p>","190","html-keyboard-response","497","898939","0.0-19.0-0.23","prediction","","","",".",""
"null","<div style=""color:white; font-size:60px;"">+</div>","null","html-keyboard-response","498","899940","0.0-19.0-1.23","fixation","","","","",""
"123.325000051409","Stimuli/Hangul_M6.bmp","188","image-keyboard-response","499","900064","0.0-19.0-2.23","c2_test",",","","","",","
"402.93500013649464","<p style=""color:white;""> Next Figure: Male or Female? </p>","188","html-keyboard-response","500","900467","0.0-19.0-0.24","prediction","","","",",",""
"null","<div style=""color:white; font-size:60px;"">+</div>","null","html-keyboard-response","501","901470","0.0-19.0-1.24","fixation","","","","",""
"220.56999988853931","Stimuli/Hangul_M20.bmp","190","image-keyboard-response","502","901691","0.0-19.0-2.24","c2_test",",","","","","."
"259.5350001938641","<p style=""color:white;""> Next Figure: Male or Female? </p>","188","html-keyboard-response","503","901951","0.0-19.0-0.25","prediction","","","",",",""
"null","<div style=""color:white; font-size:60px;"">+</div>","null","html-keyboard-response","504","902953","0.0-19.0-1.25","fixation","","","","",""
"54.61500003002584","Stimuli/Hangul_M19.bmp","188","image-keyboard-response","505","903008","0.0-19.0-2.25","c2_test",",","","","",","
"286.6699998266995","<p style=""color:white;""> Next Figure: Male or Female? </p>","190","html-keyboard-response","506","903295","0.0-19.0-0.26","prediction","","","",".",""
"null","<div style=""color:white; font-size:60px;"">+</div>","null","html-keyboard-response","507","904297","0.0-19.0-1.26","fixation","","","","",""
"38.59000001102686","Stimuli/Hangul_M16.bmp","188","image-keyboard-response","508","904336","0.0-19.0-2.26","c2_test",",","","","",","
"309.37999999150634","<p style=""color:white;""> Next Figure: Male or Female? </p>","190","html-keyboard-response","509","904646","0.0-19.0-0.27","prediction","","","",".",""
"null","<div style=""color:white; font-size:60px;"">+</div>","null","html-keyboard-response","510","905648","0.0-19.0-1.27","fixation","","","","",""
"14.734999975189567","Stimuli/Hangul_F7.bmp","190","image-keyboard-response","511","905663","0.0-19.0-2.27","c2_test",".","","","","."
"70.7050000783056","<p style=""color:white;""> Next Figure: Male or Female? </p>","188","html-keyboard-response","512","905734","0.0-19.0-0.28","prediction","","","",",",""
"null","<div style=""color:white; font-size:60px;"">+</div>","null","html-keyboard-response","513","906736","0.0-19.0-1.28","fixation","","","","",""
"171.47499998100102","Stimuli/Hangul_M3.bmp","188","image-keyboard-response","514","906908","0.0-19.0-2.28","c2_test",",","","","",","
"155.75000015087426","<p style=""color:white;""> Next Figure: Male or Female? </p>","190","html-keyboard-response","515","907064","0.0-19.0-0.29","prediction","","","",".",""
"null","<div style=""color:white; font-size:60px;"">+</div>","null","html-keyboard-response","516","908066","0.0-19.0-1.29","fixation","","","","",""
"39.794999873265624","Stimuli/Hangul_F10.bmp","190","image-keyboard-response","517","908106","0.0-19.0-2.29","c2_test",".","","","","."
"99.01999984867871","<p style=""color:white;""> Next Figure: Male or Female? </p>","188","html-keyboard-response","518","908205","0.0-19.0-0.30","prediction","","","",",",""
"null","<div style=""color:white; font-size:60px;"">+</div>","null","html-keyboard-response","519","909208","0.0-19.0-1.30","fixation","","","","",""
"62.135000014677644","Stimuli/Hangul_F23.bmp","188","image-keyboard-response","520","909271","0.0-19.0-2.30","c2_test",".","","","",","
"582.5449998956174","<p style=""color:white;""> Next Figure: Male or Female? </p>","190","html-keyboard-response","521","909854","0.0-19.0-0.31","prediction","","","",".",""
"null","<div style=""color:white; font-size:60px;"">+</div>","null","html-keyboard-response","522","910856","0.0-19.0-1.31","fixation","","","","",""
"185.93000015243888","Stimuli/Hangul_F3.bmp","188","image-keyboard-response","523","911042","0.0-19.0-2.31","c2_test",".","","","",","
"194.20000002719462","<p style=""color:white;""> Next Figure: Male or Female? </p>","190","html-keyboard-response","524","911237","0.0-19.0-0.32","prediction","","","",".",""
"null","<div style=""color:white; font-size:60px;"">+</div>","null","html-keyboard-response","525","912238","0.0-19.0-1.32","fixation","","","","",""
"130.10499998927116","Stimuli/Hangul_M23.bmp","190","image-keyboard-response","526","912369","0.0-19.0-2.32","c2_test",",","","","","."
"185.94500003382564","<p style=""color:white;""> Next Figure: Male or Female? </p>","188","html-keyboard-response","527","912556","0.0-19.0-0.33","prediction","","","",",",""
"null","<div style=""color:white; font-size:60px;"">+</div>","null","html-keyboard-response","528","913558","0.0-19.0-1.33","fixation","","","","",""
"335.23999992758036","Stimuli/Hangul_M12.bmp","188","image-keyboard-response","529","913893","0.0-19.0-2.33","c2_test",",","","","",","
"356.0549998655915","<p style=""color:white;""> Next Figure: Male or Female? </p>","190","html-keyboard-response","530","914250","0.0-19.0-0.34","prediction","","","",".",""
"null","<div style=""color:white; font-size:60px;"">+</div>","null","html-keyboard-response","531","915252","0.0-19.0-1.34","fixation","","","","",""
"56.71000014990568","Stimuli/Hangul_M11.bmp","190","image-keyboard-response","532","915309","0.0-19.0-2.34","c2_test",",","","","","."
"172.57499997504056","<p style=""color:white;""> Next Figure: Male or Female? </p>","188","html-keyboard-response","533","915482","0.0-19.0-0.35","prediction","","","",",",""
"null","<div style=""color:white; font-size:60px;"">+</div>","null","html-keyboard-response","534","916483","0.0-19.0-1.35","fixation","","","","",""
"38.49499998614192","Stimuli/Hangul_M14.bmp","190","image-keyboard-response","535","916522","0.0-19.0-2.35","c2_test",",","","","","."
"198.4850000590086","<p style=""color:white;""> Next Figure: Male or Female? </p>","188","html-keyboard-response","536","916721","0.0-19.0-0.36","prediction","","","",",",""
"null","<div style=""color:white; font-size:60px;"">+</div>","null","html-keyboard-response","537","917723","0.0-19.0-1.36","fixation","","","","",""
"51.95500003173947","Stimuli/Hangul_F12.bmp","190","image-keyboard-response","538","917775","0.0-19.0-2.36","c2_test",".","","","","."
"150.33500012941658","<p style=""color:white;""> Next Figure: Male or Female? </p>","188","html-keyboard-response","539","917926","0.0-19.0-0.37","prediction","","","",",",""
"null","<div style=""color:white; font-size:60px;"">+</div>","null","html-keyboard-response","540","918929","0.0-19.0-1.37","fixation","","","","",""
"15.050000045448542","Stimuli/Hangul_M1.bmp","188","image-keyboard-response","541","918945","0.0-19.0-2.37","c2_test",",","","","",","
"288.6350001208484","<p style=""color:white;""> Next Figure: Male or Female? </p>","190","html-keyboard-response","542","919234","0.0-19.0-0.38","prediction","","","",".",""
"null","<div style=""color:white; font-size:60px;"">+</div>","null","html-keyboard-response","543","920236","0.0-19.0-1.38","fixation","","","","",""
"35.780000034719706","Stimuli/Hangul_M15.bmp","188","image-keyboard-response","544","920272","0.0-19.0-2.38","c2_test",",","","","",","
"488.5100000537932","<p style=""color:white;""> Next Figure: Male or Female? </p>","188","html-keyboard-response","545","920761","0.0-19.0-0.39","prediction","","","",",",""
"null","<div style=""color:white; font-size:60px;"">+</div>","null","html-keyboard-response","546","921762","0.0-19.0-1.39","fixation","","","","",""
"226.9550000783056","Stimuli/Hangul_F13.bmp","188","image-keyboard-response","547","921990","0.0-19.0-2.39","c2_test",".","","","",","
"408.64999988116324","<p style=""color:white;""> Next Figure: Male or Female? </p>","188","html-keyboard-response","548","922399","0.0-19.0-0.40","prediction","","","",",",""
"null","<div style=""color:white; font-size:60px;"">+</div>","null","html-keyboard-response","549","923402","0.0-19.0-1.40","fixation","","","","",""
"244.1399998497218","Stimuli/Hangul_M4.bmp","190","image-keyboard-response","550","923647","0.0-19.0-2.40","c2_test",",","","","","."
"207.85499992780387","<p style=""color:white;""> Next Figure: Male or Female? </p>","188","html-keyboard-response","551","923856","0.0-19.0-0.41","prediction","","","",",",""
"null","<div style=""color:white; font-size:60px;"">+</div>","null","html-keyboard-response","552","924857","0.0-19.0-1.41","fixation","","","","",""
"185.99999998696148","Stimuli/Hangul_M24.bmp","190","image-keyboard-response","553","925044","0.0-19.0-2.41","c2_test",",","","","","."
"133.47500003874302","<p style=""color:white;""> Next Figure: Male or Female? </p>","188","html-keyboard-response","554","925178","0.0-19.0-0.42","prediction","","","",",",""
"null","<div style=""color:white; font-size:60px;"">+</div>","null","html-keyboard-response","555","926178","0.0-19.0-1.42","fixation","","","","",""
"132.13999988511205","Stimuli/Hangul_M13.bmp","190","image-keyboard-response","556","926311","0.0-19.0-2.42","c2_test",",","","","","."
"170.61000014655292","<p style=""color:white;""> Next Figure: Male or Female? </p>","188","html-keyboard-response","557","926482","0.0-19.0-0.43","prediction","","","",",",""
"null","<div style=""color:white; font-size:60px;"">+</div>","null","html-keyboard-response","558","927485","0.0-19.0-1.43","fixation","","","","",""
"232.27500007487833","Stimuli/Hangul_M22.bmp","190","image-keyboard-response","559","927718","0.0-19.0-2.43","c2_test",",","","","","."
"181.1100000049919","<p style=""color:white;""> Next Figure: Male or Female? </p>","188","html-keyboard-response","560","927900","0.0-19.0-0.44","prediction","","","",",",""
"null","<div style=""color:white; font-size:60px;"">+</div>","null","html-keyboard-response","561","928901","0.0-19.0-1.44","fixation","","","","",""
"135.10000007227063","Stimuli/Hangul_M9.bmp","188","image-keyboard-response","562","929037","0.0-19.0-2.44","c2_test",",","","","",","
"360.3750001639128","<p style=""color:white;""> Next Figure: Male or Female? </p>","190","html-keyboard-response","563","929399","0.0-19.0-0.45","prediction","","","",".",""
"null","<div style=""color:white; font-size:60px;"">+</div>","null","html-keyboard-response","564","930400","0.0-19.0-1.45","fixation","","","","",""
"47.67500003799796","Stimuli/Hangul_F2.bmp","190","image-keyboard-response","565","930448","0.0-19.0-2.45","c2_test",".","","","","."
"162.2899998910725","<p style=""color:white;""> Next Figure: Male or Female? </p>","188","html-keyboard-response","566","930611","0.0-19.0-0.46","prediction","","","",",",""
"null","<div style=""color:white; font-size:60px;"">+</div>","null","html-keyboard-response","567","931612","0.0-19.0-1.46","fixation","","","","",""
"70.07000013254583","Stimuli/Hangul_M10.bmp","188","image-keyboard-response","568","931683","0.0-19.0-2.46","c2_test",",","","","",","
"278.6149999592453","<p style=""color:white;""> Next Figure: Male or Female? </p>","190","html-keyboard-response","569","931962","0.0-19.0-0.47","prediction","","","",".",""
"null","<div style=""color:white; font-size:60px;"">+</div>","null","html-keyboard-response","570","932963","0.0-19.0-1.47","fixation","","","","",""
"259.9450000561774","Stimuli/Hangul_F5.bmp","190","image-keyboard-response","571","933223","0.0-19.0-2.47","c2_test",".","","","","."
"156.09499998390675","<p style=""color:white;""> Next Figure: Male or Female? </p>","188","html-keyboard-response","572","933380","0.0-19.0-0.48","prediction","","","",",",""
"null","<div style=""color:white; font-size:60px;"">+</div>","null","html-keyboard-response","573","934381","0.0-19.0-1.48","fixation","","","","",""
"226.98499984107912","Stimuli/Hangul_F14.bmp","190","image-keyboard-response","574","934609","0.0-19.0-2.48","c2_test",".","","","","."
"103.7149999756366","<p style=""color:white;""> Next Figure: Male or Female? </p>","188","html-keyboard-response","575","934713","0.0-19.0-0.49","prediction","","","",",",""
"null","<div style=""color:white; font-size:60px;"">+</div>","null","html-keyboard-response","576","935714","0.0-19.0-1.49","fixation","","","","",""
"173.80500002764165","Stimuli/Hangul_M17.bmp","188","image-keyboard-response","577","935888","0.0-19.0-2.49","c2_test",",","","","",","
"1043.4999999124557","<p style=""color:white;"">Good job, block 1 complete! Please take a moment to rest.</p> <p style=""color:white;"">When you are ready to continue with block 2 of 4, press the space bar.</p> ","32","html-keyboard-response","578","936932","0.0-20.0","","","","","",""
"115.58500002138317","<p style=""color:white;""> Next Figure: Male or Female? </p>","190","html-keyboard-response","579","939050","0.0-21.0-0.0","prediction","","","",".",""
"null","<div style=""color:white; font-size:60px;"">+</div>","null","html-keyboard-response","580","940052","0.0-21.0-1.0","fixation","","","","",""
"51.124999998137355","Stimuli/Hangul_M46.bmp","188","image-keyboard-response","581","940103","0.0-21.0-2.0","c2_test",",","","","",","
"49.85000006854534","<p style=""color:white;""> Next Figure: Male or Female? </p>","190","html-keyboard-response","582","940154","0.0-21.0-0.1","prediction","","","",".",""
"null","<div style=""color:white; font-size:60px;"">+</div>","null","html-keyboard-response","583","941155","0.0-21.0-1.1","fixation","","","","",""
"268.004999961704","Stimuli/Hangul_F31.bmp","190","image-keyboard-response","584","941423","0.0-21.0-2.1","c2_test",".","","","","."
"126.60499988123775","<p style=""color:white;""> Next Figure: Male or Female? </p>","188","html-keyboard-response","585","941550","0.0-21.0-0.2","prediction","","","",",",""
"null","<div style=""color:white; font-size:60px;"">+</div>","null","html-keyboard-response","586","942553","0.0-21.0-1.2","fixation","","","","",""
"166.4400000590831","Stimuli/Hangul_F49.bmp","190","image-keyboard-response","587","942720","0.0-21.0-2.2","c2_test",".","","","","."
"119.90500008687377","<p style=""color:white;""> Next Figure: Male or Female? </p>","188","html-keyboard-response","588","942840","0.0-21.0-0.3","prediction","","","",",",""
"null","<div style=""color:white; font-size:60px;"">+</div>","null","html-keyboard-response","589","943841","0.0-21.0-1.3","fixation","","","","",""
"82.95499999076128","Stimuli/Hangul_M47.bmp","190","image-keyboard-response","590","943924","0.0-21.0-2.3","c2_test",",","","","","."
"140.53500001318753","<p style=""color:white;""> Next Figure: Male or Female? </p>","188","html-keyboard-response","591","944065","0.0-21.0-0.4","prediction","","","",",",""
"null","<div style=""color:white; font-size:60px;"">+</div>","null","html-keyboard-response","592","945067","0.0-21.0-1.4","fixation","","","","",""
"27.999999932944775","Stimuli/Hangul_F27.bmp","190","image-keyboard-response","593","945095","0.0-21.0-2.4","c2_test",".","","","","."
"131.94500003010035","<p style=""color:white;""> Next Figure: Male or Female? </p>","188","html-keyboard-response","594","945227","0.0-21.0-0.5","prediction","","","",",",""
"null","<div style=""color:white; font-size:60px;"">+</div>","null","html-keyboard-response","595","946229","0.0-21.0-1.5","fixation","","","","",""
"282.34999999403954","Stimuli/Hangul_M27.bmp","190","image-keyboard-response","596","946512","0.0-21.0-2.5","c2_test",",","","","","."
"172.09500004537404","<p style=""color:white;""> Next Figure: Male or Female? </p>","188","html-keyboard-response","597","946685","0.0-21.0-0.6","prediction","","","",",",""
"null","<div style=""color:white; font-size:60px;"">+</div>","null","html-keyboard-response","598","947686","0.0-21.0-1.6","fixation","","","","",""
"235.25000014342368","Stimuli/Hangul_M34.bmp","188","image-keyboard-response","599","947922","0.0-21.0-2.6","c2_test",",","","","",","
"230.6150000076741","<p style=""color:white;""> Next Figure: Male or Female? </p>","190","html-keyboard-response","600","948153","0.0-21.0-0.7","prediction","","","",".",""
"null","<div style=""color:white; font-size:60px;"">+</div>","null","html-keyboard-response","601","949154","0.0-21.0-1.7","fixation","","","","",""
"28.855000156909227","Stimuli/Hangul_M42.bmp","188","image-keyboard-response","602","949183","0.0-21.0-2.7","c2_test",",","","","",","
"291.9650000985712","<p style=""color:white;""> Next Figure: Male or Female? </p>","190","html-keyboard-response","603","949476","0.0-21.0-0.8","prediction","","","",".",""
"null","<div style=""color:white; font-size:60px;"">+</div>","null","html-keyboard-response","604","950477","0.0-21.0-1.8","fixation","","","","",""
"210.71999985724688","Stimuli/Hangul_M37.bmp","190","image-keyboard-response","605","950688","0.0-21.0-2.8","c2_test",",","","","","."
"230.40999984368682","<p style=""color:white;""> Next Figure: Male or Female? </p>","188","html-keyboard-response","606","950919","0.0-21.0-0.9","prediction","","","",",",""
"null","<div style=""color:white; font-size:60px;"">+</div>","null","html-keyboard-response","607","951922","0.0-21.0-1.9","fixation","","","","",""
"22.46000012382865","Stimuli/Hangul_M39.bmp","190","image-keyboard-response","608","951945","0.0-21.0-2.9","c2_test",",","","","","."
"297.6800000760704","<p style=""color:white;""> Next Figure: Male or Female? </p>","188","html-keyboard-response","609","952243","0.0-21.0-0.10","prediction","","","",",",""
"null","<div style=""color:white; font-size:60px;"">+</div>","null","html-keyboard-response","610","953244","0.0-21.0-1.10","fixation","","","","",""
"235.91000004671514","Stimuli/Hangul_F41.bmp","188","image-keyboard-response","611","953480","0.0-21.0-2.10","c2_test",".","","","",","
"368.52499982342124","<p style=""color:white;""> Next Figure: Male or Female? </p>","190","html-keyboard-response","612","953849","0.0-21.0-0.11","prediction","","","",".",""
"null","<div style=""color:white; font-size:60px;"">+</div>","null","html-keyboard-response","613","954851","0.0-21.0-1.11","fixation","","","","",""
"156.65000001899898","Stimuli/Hangul_M38.bmp","190","image-keyboard-response","614","955008","0.0-21.0-2.11","c2_test",",","","","","."
"236.09000002034009","<p style=""color:white;""> Next Figure: Male or Female? </p>","188","html-keyboard-response","615","955245","0.0-21.0-0.12","prediction","","","",",",""
"null","<div style=""color:white; font-size:60px;"">+</div>","null","html-keyboard-response","616","956246","0.0-21.0-1.12","fixation","","","","",""
"17.77500007301569","Stimuli/Hangul_M31.bmp","190","image-keyboard-response","617","956264","0.0-21.0-2.12","c2_test",",","","","","."
"211.66499983519316","<p style=""color:white;""> Next Figure: Male or Female? </p>","188","html-keyboard-response","618","956476","0.0-21.0-0.13","prediction","","","",",",""
"null","<div style=""color:white; font-size:60px;"">+</div>","null","html-keyboard-response","619","957478","0.0-21.0-1.13","fixation","","","","",""
"161.62500018253922","Stimuli/Hangul_F36.bmp","188","image-keyboard-response","620","957640","0.0-21.0-2.13","c2_test",".","","","",","
"463.9400001615286","<p style=""color:white;""> Next Figure: Male or Female? </p>","190","html-keyboard-response","621","958104","0.0-21.0-0.14","prediction","","","",".",""
"null","<div style=""color:white; font-size:60px;"">+</div>","null","html-keyboard-response","622","959106","0.0-21.0-1.14","fixation","","","","",""
"229.4850000180304","Stimuli/Hangul_M48.bmp","190","image-keyboard-response","623","959336","0.0-21.0-2.14","c2_test",",","","","","."
"188.54000000283122","<p style=""color:white;""> Next Figure: Male or Female? </p>","188","html-keyboard-response","624","959525","0.0-21.0-0.15","prediction","","","",",",""
"null","<div style=""color:white; font-size:60px;"">+</div>","null","html-keyboard-response","625","960526","0.0-21.0-1.15","fixation","","","","",""
"165.694999974221","Stimuli/Hangul_F30.bmp","188","image-keyboard-response","626","960693","0.0-21.0-2.15","c2_test",".","","","",","
"340.18500009551644","<p style=""color:white;""> Next Figure: Male or Female? </p>","190","html-keyboard-response","627","961033","0.0-21.0-0.16","prediction","","","",".",""
"null","<div style=""color:white; font-size:60px;"">+</div>","null","html-keyboard-response","628","962035","0.0-21.0-1.16","fixation","","","","",""
"138.44499993138015","Stimuli/Hangul_F38.bmp","190","image-keyboard-response","629","962174","0.0-21.0-2.16","c2_test",".","","","","."
"138.8900000602007","<p style=""color:white;""> Next Figure: Male or Female? </p>","188","html-keyboard-response","630","962314","0.0-21.0-0.17","prediction","","","",",",""
"null","<div style=""color:white; font-size:60px;"">+</div>","null","html-keyboard-response","631","963315","0.0-21.0-1.17","fixation","","","","",""
"76.41499978490174","Stimuli/Hangul_M25.bmp","190","image-keyboard-response","632","963392","0.0-21.0-2.17","c2_test",",","","","","."
"129.4700000435114","<p style=""color:white;""> Next Figure: Male or Female? </p>","188","html-keyboard-response","633","963522","0.0-21.0-0.18","prediction","","","",",",""
"null","<div style=""color:white; font-size:60px;"">+</div>","null","html-keyboard-response","634","964524","0.0-21.0-1.18","fixation","","","","",""
"172.2099999897182","Stimuli/Hangul_M36.bmp","190","image-keyboard-response","635","964697","0.0-21.0-2.18","c2_test",",","","","","."
"357.5599999167025","<p style=""color:white;""> Next Figure: Male or Female? </p>","188","html-keyboard-response","636","965055","0.0-21.0-0.19","prediction","","","",",",""
"null","<div style=""color:white; font-size:60px;"">+</div>","null","html-keyboard-response","637","966056","0.0-21.0-1.19","fixation","","","","",""
"28.560000006109476","Stimuli/Hangul_F32.bmp","190","image-keyboard-response","638","966085","0.0-21.0-2.19","c2_test",".","","","","."
"206.11000014469028","<p style=""color:white;""> Next Figure: Male or Female? </p>","188","html-keyboard-response","639","966292","0.0-21.0-0.20","prediction","","","",",",""
"null","<div style=""color:white; font-size:60px;"">+</div>","null","html-keyboard-response","640","967293","0.0-21.0-1.20","fixation","","","","",""
"20.535000134259462","Stimuli/Hangul_M35.bmp","190","image-keyboard-response","641","967314","0.0-21.0-2.20","c2_test",",","","","","."
"339.4450000487268","<p style=""color:white;""> Next Figure: Male or Female? </p>","188","html-keyboard-response","642","967654","0.0-21.0-0.21","prediction","","","",",",""
"null","<div style=""color:white; font-size:60px;"">+</div>","null","html-keyboard-response","643","968655","0.0-21.0-1.21","fixation","","","","",""
"235.56999978609383","Stimuli/Hangul_M29.bmp","188","image-keyboard-response","644","968891","0.0-21.0-2.21","c2_test",",","","","",","
"396.9950000755489","<p style=""color:white;""> Next Figure: Male or Female? </p>","190","html-keyboard-response","645","969289","0.0-21.0-0.22","prediction","","","",".",""
"null","<div style=""color:white; font-size:60px;"">+</div>","null","html-keyboard-response","646","970290","0.0-21.0-1.22","fixation","","","","",""
"142.56499987095594","Stimuli/Hangul_M28.bmp","190","image-keyboard-response","647","970433","0.0-21.0-2.22","c2_test",",","","","","."
"168.6699998099357","<p style=""color:white;""> Next Figure: Male or Female? </p>","188","html-keyboard-response","648","970603","0.0-21.0-0.23","prediction","","","",",",""
"null","<div style=""color:white; font-size:60px;"">+</div>","null","html-keyboard-response","649","971604","0.0-21.0-1.23","fixation","","","","",""
"66.18000008165836","Stimuli/Hangul_F37.bmp","190","image-keyboard-response","650","971671","0.0-21.0-2.23","c2_test",".","","","","."
"297.3150000907481","<p style=""color:white;""> Next Figure: Male or Female? </p>","188","html-keyboard-response","651","971969","0.0-21.0-0.24","prediction","","","",",",""
"null","<div style=""color:white; font-size:60px;"">+</div>","null","html-keyboard-response","652","972971","0.0-21.0-1.24","fixation","","","","",""
"19.484999822452664","Stimuli/Hangul_F45.bmp","190","image-keyboard-response","653","972991","0.0-21.0-2.24","c2_test",".","","","","."
"268.18000013008714","<p style=""color:white;""> Next Figure: Male or Female? </p>","188","html-keyboard-response","654","973259","0.0-21.0-0.25","prediction","","","",",",""
"null","<div style=""color:white; font-size:60px;"">+</div>","null","html-keyboard-response","655","974260","0.0-21.0-1.25","fixation","","","","",""
"161.3400001078844","Stimuli/Hangul_M26.bmp","188","image-keyboard-response","656","974422","0.0-21.0-2.25","c2_test",",","","","",","
