"rt","stimulus","key_press","trial_type","trial_index","time_elapsed","internal_node_id","test_part","correct_response","C1_train","C1","A","C2"
"47422.7200000023","<p style=""color:white;"">Welcome to the experiment! Press any key to begin.</p>","32","html-keyboard-response","0","47428","0.0-0.0","","","","","",""
"21418.48999999638","<p style=""color:white;"">You will see a series of abstract figures. They are adaptations of signs in the Korean alphabet, but that is not important for this study. </p><p style=""color:white;"">Abstract figures sometimes have a more masculine or feminine shape. Here, each figure has already been assigned a gender as <q>Male</q> or <q>Female</q> by a panel of respondents in a pilot study. The respondents were not given specific instructions on how to do this, but were only told to use their intuition and to take into account the entire configuration of the stimulus. </p><p style=""color:white;"">Your task now is to guess the assigned gender of each figure. Please press the corresponding response keys to indicate your choice: </p><p style=""color:white;""> Male &#8594 <q>,</q> (comma)</p><p style=""color:white;""> Female &#8594 <q>.</q> (period)</p><p style=""color:white;"">Press either response keys to continue.</p>","188","html-keyboard-response","1","68848","0.0-1.0","","","","","",""
"6199.72499999858","<p style=""color:white;"">Your choice is correct if it matches the gender assigned by the majority of respondents in the pilot study.</p> <p style=""color:white;"">For each correct choice you will receive 2 cents. There will be 200 trials divided into 4 blocks of 50 trials. You will be able to take a break after every 50 trials.</p> <p style=""color:white;"">Press the space bar to continue.</p>","32","html-keyboard-response","2","75049","0.0-2.0","","","","","",""
"2473.3049999922514","<p style=""color:white;"">Here are some examples.</p> <p style=""color:white;"">For each, guess whether the assigned figure is male-like or female-like and indicate your choice by pressing either response keys.</p> <p style=""color:white;"">Press the space bar to continue.</p>","32","html-keyboard-response","3","77523","0.0-3.0","","","","","",""
"null","<div style=""color:white; font-size:60px;"">+</div>","null","html-keyboard-response","4","80526","0.0-4.0-0.0","fixation","","","","",""
"3810.910000000149","Stimuli/Hangul_E2.bmp","190","image-keyboard-response","5","84339","0.0-4.0-1.0","c1_train",".",".","","",""
"null","<div style=""color:white; font-size:60px;"">+</div>","null","html-keyboard-response","6","85342","0.0-4.0-0.1","fixation","","","","",""
"1838.5599999892293","Stimuli/Hangul_E0.bmp","188","image-keyboard-response","7","87181","0.0-4.0-1.1","c1_train",",",",","","",""
"null","<div style=""color:white; font-size:60px;"">+</div>","null","html-keyboard-response","8","88182","0.0-4.0-0.2","fixation","","","","",""
"1290.580000000773","Stimuli/Hangul_E1.bmp","188","image-keyboard-response","9","89474","0.0-4.0-1.2","c1_train",",",",","","",""
"1378.244999999879","<p style=""color:white;"">Let us begin! Press the space bar when you are ready to start block 1 of 4.</p> ","32","html-keyboard-response","10","90853","0.0-5.0","","","","","",""
"null","<div style=""color:white; font-size:60px;"">+</div>","null","html-keyboard-response","11","93856","0.0-6.0-0.0","fixation","","","","",""
"1480.1949999964563","Stimuli/Hangul_M12.bmp","188","image-keyboard-response","12","95338","0.0-6.0-1.0","test",",","",",","",""
"null","<div style=""color:white; font-size:60px;"">+</div>","null","html-keyboard-response","13","96339","0.0-6.0-0.1","fixation","","","","",""
"1279.5100000075763","Stimuli/Hangul_F10.bmp","190","image-keyboard-response","14","97619","0.0-6.0-1.1","test",".","",".","",""
"null","<div style=""color:white; font-size:60px;"">+</div>","null","html-keyboard-response","15","98621","0.0-6.0-0.2","fixation","","","","",""
"1179.6699999977136","Stimuli/Hangul_M18.bmp","188","image-keyboard-response","16","99802","0.0-6.0-1.2","test",",","",",","",""
"null","<div style=""color:white; font-size:60px;"">+</div>","null","html-keyboard-response","17","100803","0.0-6.0-0.3","fixation","","","","",""
"1143.7449999939417","Stimuli/Hangul_M14.bmp","188","image-keyboard-response","18","101948","0.0-6.0-1.3","test",",","",",","",""
"null","<div style=""color:white; font-size:60px;"">+</div>","null","html-keyboard-response","19","102949","0.0-6.0-0.4","fixation","","","","",""
"1430.9100000100443","Stimuli/Hangul_F24.bmp","188","image-keyboard-response","20","104381","0.0-6.0-1.4","test",".","",",","",""
"null","<div style=""color:white; font-size:60px;"">+</div>","null","html-keyboard-response","21","105383","0.0-6.0-0.5","fixation","","","","",""
"1630.1000000094064","Stimuli/Hangul_F16.bmp","190","image-keyboard-response","22","107014","0.0-6.0-1.5","test",".","",".","",""
"null","<div style=""color:white; font-size:60px;"">+</div>","null","html-keyboard-response","23","108017","0.0-6.0-0.6","fixation","","","","",""
"1946.7250000016065","Stimuli/Hangul_M11.bmp","188","image-keyboard-response","24","109965","0.0-6.0-1.6","test",",","",",","",""
"null","<div style=""color:white; font-size:60px;"">+</div>","null","html-keyboard-response","25","110967","0.0-6.0-0.7","fixation","","","","",""
"2075.7699999958277","Stimuli/Hangul_F7.bmp","190","image-keyboard-response","26","113043","0.0-6.0-1.7","test",".","",".","",""
"null","<div style=""color:white; font-size:60px;"">+</div>","null","html-keyboard-response","27","114044","0.0-6.0-0.8","fixation","","","","",""
"1924.8850000003586","Stimuli/Hangul_M17.bmp","188","image-keyboard-response","28","115970","0.0-6.0-1.8","test",",","",",","",""
"null","<div style=""color:white; font-size:60px;"">+</div>","null","html-keyboard-response","29","116972","0.0-6.0-0.9","fixation","","","","",""
"3008.144999999786","Stimuli/Hangul_M20.bmp","190","image-keyboard-response","30","119981","0.0-6.0-1.9","test",",","",".","",""
"null","<div style=""color:white; font-size:60px;"">+</div>","null","html-keyboard-response","31","120982","0.0-6.0-0.10","fixation","","","","",""
"2869.479999993928","Stimuli/Hangul_M5.bmp","188","image-keyboard-response","32","123853","0.0-6.0-1.10","test",",","",",","",""
"null","<div style=""color:white; font-size:60px;"">+</div>","null","html-keyboard-response","33","124855","0.0-6.0-0.11","fixation","","","","",""
"1526.2100000109058","Stimuli/Hangul_M9.bmp","188","image-keyboard-response","34","126382","0.0-6.0-1.11","test",",","",",","",""
"null","<div style=""color:white; font-size:60px;"">+</div>","null","html-keyboard-response","35","127383","0.0-6.0-0.12","fixation","","","","",""
"1440.5799999949522","Stimuli/Hangul_M7.bmp","190","image-keyboard-response","36","128824","0.0-6.0-1.12","test",",","",".","",""
"null","<div style=""color:white; font-size:60px;"">+</div>","null","html-keyboard-response","37","129826","0.0-6.0-0.13","fixation","","","","",""
"1868.109999995795","Stimuli/Hangul_F17.bmp","190","image-keyboard-response","38","131695","0.0-6.0-1.13","test",".","",".","",""
"null","<div style=""color:white; font-size:60px;"">+</div>","null","html-keyboard-response","39","132697","0.0-6.0-0.14","fixation","","","","",""
"2026.0249999992084","Stimuli/Hangul_F12.bmp","188","image-keyboard-response","40","134724","0.0-6.0-1.14","test",".","",",","",""
"null","<div style=""color:white; font-size:60px;"">+</div>","null","html-keyboard-response","41","135725","0.0-6.0-0.15","fixation","","","","",""
"1863.8649999920744","Stimuli/Hangul_M2.bmp","188","image-keyboard-response","42","137590","0.0-6.0-1.15","test",",","",",","",""
"null","<div style=""color:white; font-size:60px;"">+</div>","null","html-keyboard-response","43","138592","0.0-6.0-0.16","fixation","","","","",""
"1458.119999995688","Stimuli/Hangul_F22.bmp","190","image-keyboard-response","44","140051","0.0-6.0-1.16","test",".","",".","",""
"null","<div style=""color:white; font-size:60px;"">+</div>","null","html-keyboard-response","45","141052","0.0-6.0-0.17","fixation","","","","",""
"1741.9749999971827","Stimuli/Hangul_F20.bmp","188","image-keyboard-response","46","142795","0.0-6.0-1.17","test",".","",",","",""
"null","<div style=""color:white; font-size:60px;"">+</div>","null","html-keyboard-response","47","143796","0.0-6.0-0.18","fixation","","","","",""
"1218.1649999984074","Stimuli/Hangul_M4.bmp","190","image-keyboard-response","48","145014","0.0-6.0-1.18","test",",","",".","",""
"null","<div style=""color:white; font-size:60px;"">+</div>","null","html-keyboard-response","49","146016","0.0-6.0-0.19","fixation","","","","",""
"1281.9199999939883","Stimuli/Hangul_M3.bmp","190","image-keyboard-response","50","147299","0.0-6.0-1.19","test",",","",".","",""
"null","<div style=""color:white; font-size:60px;"">+</div>","null","html-keyboard-response","51","148300","0.0-6.0-0.20","fixation","","","","",""
"2691.6049999999814","Stimuli/Hangul_F3.bmp","188","image-keyboard-response","52","150992","0.0-6.0-1.20","test",".","",",","",""
"null","<div style=""color:white; font-size:60px;"">+</div>","null","html-keyboard-response","53","151993","0.0-6.0-0.21","fixation","","","","",""
"1624.2249999922933","Stimuli/Hangul_M16.bmp","188","image-keyboard-response","54","153618","0.0-6.0-1.21","test",",","",",","",""
"null","<div style=""color:white; font-size:60px;"">+</div>","null","html-keyboard-response","55","154620","0.0-6.0-0.22","fixation","","","","",""
"1563.2199999963632","Stimuli/Hangul_M23.bmp","190","image-keyboard-response","56","156183","0.0-6.0-1.22","test",",","",".","",""
"null","<div style=""color:white; font-size:60px;"">+</div>","null","html-keyboard-response","57","157185","0.0-6.0-0.23","fixation","","","","",""
"1802.9249999963213","Stimuli/Hangul_F6.bmp","188","image-keyboard-response","58","158989","0.0-6.0-1.23","test",".","",",","",""
"null","<div style=""color:white; font-size:60px;"">+</div>","null","html-keyboard-response","59","159990","0.0-6.0-0.24","fixation","","","","",""
"1160.5650000128662","Stimuli/Hangul_F4.bmp","190","image-keyboard-response","60","161152","0.0-6.0-1.24","test",".","",".","",""
"null","<div style=""color:white; font-size:60px;"">+</div>","null","html-keyboard-response","61","162152","0.0-6.0-0.25","fixation","","","","",""
"1876.1100000119768","Stimuli/Hangul_M10.bmp","190","image-keyboard-response","62","164029","0.0-6.0-1.25","test",",","",".","",""
"null","<div style=""color:white; font-size:60px;"">+</div>","null","html-keyboard-response","63","165030","0.0-6.0-0.26","fixation","","","","",""
"2127.7350000018487","Stimuli/Hangul_M22.bmp","190","image-keyboard-response","64","167158","0.0-6.0-1.26","test",",","",".","",""
"null","<div style=""color:white; font-size:60px;"">+</div>","null","html-keyboard-response","65","168160","0.0-6.0-0.27","fixation","","","","",""
"1337.9750000021886","Stimuli/Hangul_M24.bmp","190","image-keyboard-response","66","169499","0.0-6.0-1.27","test",",","",".","",""
"null","<div style=""color:white; font-size:60px;"">+</div>","null","html-keyboard-response","67","170500","0.0-6.0-0.28","fixation","","","","",""
"1139.6349999995437","Stimuli/Hangul_F18.bmp","190","image-keyboard-response","68","171640","0.0-6.0-1.28","test",".","",".","",""
"null","<div style=""color:white; font-size:60px;"">+</div>","null","html-keyboard-response","69","172643","0.0-6.0-0.29","fixation","","","","",""
"1869.814999998198","Stimuli/Hangul_M0.bmp","188","image-keyboard-response","70","174514","0.0-6.0-1.29","test",",","",",","",""
"null","<div style=""color:white; font-size:60px;"">+</div>","null","html-keyboard-response","71","175515","0.0-6.0-0.30","fixation","","","","",""
"1325.2150000043912","Stimuli/Hangul_F23.bmp","190","image-keyboard-response","72","176841","0.0-6.0-1.30","test",".","",".","",""
"null","<div style=""color:white; font-size:60px;"">+</div>","null","html-keyboard-response","73","177842","0.0-6.0-0.31","fixation","","","","",""
"1132.2950000030687","Stimuli/Hangul_F5.bmp","188","image-keyboard-response","74","178975","0.0-6.0-1.31","test",".","",",","",""
"null","<div style=""color:white; font-size:60px;"">+</div>","null","html-keyboard-response","75","179976","0.0-6.0-0.32","fixation","","","","",""
"1038.9299999951618","Stimuli/Hangul_M21.bmp","190","image-keyboard-response","76","181016","0.0-6.0-1.32","test",",","",".","",""
"null","<div style=""color:white; font-size:60px;"">+</div>","null","html-keyboard-response","77","182018","0.0-6.0-0.33","fixation","","","","",""
"1243.0250000033993","Stimuli/Hangul_M6.bmp","190","image-keyboard-response","78","183261","0.0-6.0-1.33","test",",","",".","",""
"null","<div style=""color:white; font-size:60px;"">+</div>","null","html-keyboard-response","79","184263","0.0-6.0-0.34","fixation","","","","",""
"929.2850000056205","Stimuli/Hangul_M13.bmp","188","image-keyboard-response","80","185193","0.0-6.0-1.34","test",",","",",","",""
"null","<div style=""color:white; font-size:60px;"">+</div>","null","html-keyboard-response","81","186195","0.0-6.0-0.35","fixation","","","","",""
"882.3400000110269","Stimuli/Hangul_F19.bmp","190","image-keyboard-response","82","187077","0.0-6.0-1.35","test",".","",".","",""
"null","<div style=""color:white; font-size:60px;"">+</div>","null","html-keyboard-response","83","188079","0.0-6.0-0.36","fixation","","","","",""
"1056.9499999983236","Stimuli/Hangul_F21.bmp","190","image-keyboard-response","84","189137","0.0-6.0-1.36","test",".","",".","",""
"null","<div style=""color:white; font-size:60px;"">+</div>","null","html-keyboard-response","85","190138","0.0-6.0-0.37","fixation","","","","",""
"1116.1300000094343","Stimuli/Hangul_F8.bmp","190","image-keyboard-response","86","191255","0.0-6.0-1.37","test",".","",".","",""
"null","<div style=""color:white; font-size:60px;"">+</div>","null","html-keyboard-response","87","192257","0.0-6.0-0.38","fixation","","","","",""
"1203.7450000061654","Stimuli/Hangul_F11.bmp","188","image-keyboard-response","88","193462","0.0-6.0-1.38","test",".","",",","",""
"null","<div style=""color:white; font-size:60px;"">+</div>","null","html-keyboard-response","89","194464","0.0-6.0-0.39","fixation","","","","",""
"1373.2099999906495","Stimuli/Hangul_F9.bmp","190","image-keyboard-response","90","195838","0.0-6.0-1.39","test",".","",".","",""
"null","<div style=""color:white; font-size:60px;"">+</div>","null","html-keyboard-response","91","196839","0.0-6.0-0.40","fixation","","","","",""
"1095.0400000001537","Stimuli/Hangul_F2.bmp","188","image-keyboard-response","92","197934","0.0-6.0-1.40","test",".","",",","",""
"null","<div style=""color:white; font-size:60px;"">+</div>","null","html-keyboard-response","93","198936","0.0-6.0-0.41","fixation","","","","",""
"1352.165000003879","Stimuli/Hangul_M8.bmp","190","image-keyboard-response","94","200288","0.0-6.0-1.41","test",",","",".","",""
"null","<div style=""color:white; font-size:60px;"">+</div>","null","html-keyboard-response","95","201290","0.0-6.0-0.42","fixation","","","","",""
"1191.1249999975553","Stimuli/Hangul_M15.bmp","188","image-keyboard-response","96","202482","0.0-6.0-1.42","test",",","",",","",""
"null","<div style=""color:white; font-size:60px;"">+</div>","null","html-keyboard-response","97","203483","0.0-6.0-0.43","fixation","","","","",""
"1242.755000013858","Stimuli/Hangul_F1.bmp","190","image-keyboard-response","98","204727","0.0-6.0-1.43","test",".","",".","",""
"null","<div style=""color:white; font-size:60px;"">+</div>","null","html-keyboard-response","99","205728","0.0-6.0-0.44","fixation","","","","",""
"1700.0549999938812","Stimuli/Hangul_F0.bmp","188","image-keyboard-response","100","207429","0.0-6.0-1.44","test",".","",",","",""
"null","<div style=""color:white; font-size:60px;"">+</div>","null","html-keyboard-response","101","208430","0.0-6.0-0.45","fixation","","","","",""
"1660.9100000059698","Stimuli/Hangul_F14.bmp","190","image-keyboard-response","102","210092","0.0-6.0-1.45","test",".","",".","",""
"null","<div style=""color:white; font-size:60px;"">+</div>","null","html-keyboard-response","103","211094","0.0-6.0-0.46","fixation","","","","",""
"1136.014999996405","Stimuli/Hangul_F13.bmp","188","image-keyboard-response","104","212231","0.0-6.0-1.46","test",".","",",","",""
"null","<div style=""color:white; font-size:60px;"">+</div>","null","html-keyboard-response","105","213233","0.0-6.0-0.47","fixation","","","","",""
"1263.0600000120467","Stimuli/Hangul_M1.bmp","190","image-keyboard-response","106","214496","0.0-6.0-1.47","test",",","",".","",""
"null","<div style=""color:white; font-size:60px;"">+</div>","null","html-keyboard-response","107","215498","0.0-6.0-0.48","fixation","","","","",""
"2306.8849999981467","Stimuli/Hangul_F15.bmp","188","image-keyboard-response","108","217806","0.0-6.0-1.48","test",".","",",","",""
"null","<div style=""color:white; font-size:60px;"">+</div>","null","html-keyboard-response","109","218807","0.0-6.0-0.49","fixation","","","","",""
"1375.9050000080606","Stimuli/Hangul_M19.bmp","188","image-keyboard-response","110","220184","0.0-6.0-1.49","test",",","",",","",""
"1284.9800000112737","<p style=""color:white;"">Good job, block 1 complete! Please take a moment to rest.</p> <p style=""color:white;"">When you are ready to continue with block 2 of 4, press the space bar.</p> ","32","html-keyboard-response","111","221470","0.0-7.0","","","","","",""
"null","<div style=""color:white; font-size:60px;"">+</div>","null","html-keyboard-response","112","224473","0.0-8.0-0.0","fixation","","","","",""
"1441.4749999996275","Stimuli/Hangul_F25.bmp","190","image-keyboard-response","113","225915","0.0-8.0-1.0","test",".","",".","",""
"null","<div style=""color:white; font-size:60px;"">+</div>","null","html-keyboard-response","114","226917","0.0-8.0-0.1","fixation","","","","",""
"4065.4499999945983","Stimuli/Hangul_F26.bmp","188","image-keyboard-response","115","230982","0.0-8.0-1.1","test",".","",",","",""
"null","<div style=""color:white; font-size:60px;"">+</div>","null","html-keyboard-response","116","231984","0.0-8.0-0.2","fixation","","","","",""
"1288.4749999939231","Stimuli/Hangul_F29.bmp","190","image-keyboard-response","117","233273","0.0-8.0-1.2","test",".","",".","",""
"null","<div style=""color:white; font-size:60px;"">+</div>","null","html-keyboard-response","118","234274","0.0-8.0-0.3","fixation","","","","",""
"1209.6500000043306","Stimuli/Hangul_M42.bmp","188","image-keyboard-response","119","235484","0.0-8.0-1.3","test",",","",",","",""
"null","<div style=""color:white; font-size:60px;"">+</div>","null","html-keyboard-response","120","236485","0.0-8.0-0.4","fixation","","","","",""
"1343.845000010333","Stimuli/Hangul_F31.bmp","190","image-keyboard-response","121","237831","0.0-8.0-1.4","test",".","",".","",""
"null","<div style=""color:white; font-size:60px;"">+</div>","null","html-keyboard-response","122","238832","0.0-8.0-0.5","fixation","","","","",""
"1264.8500000068452","Stimuli/Hangul_F40.bmp","188","image-keyboard-response","123","240098","0.0-8.0-1.5","test",".","",",","",""
"null","<div style=""color:white; font-size:60px;"">+</div>","null","html-keyboard-response","124","241099","0.0-8.0-0.6","fixation","","","","",""
"1637.6350000064122","Stimuli/Hangul_M33.bmp","188","image-keyboard-response","125","242738","0.0-8.0-1.6","test",",","",",","",""
"null","<div style=""color:white; font-size:60px;"">+</div>","null","html-keyboard-response","126","243739","0.0-8.0-0.7","fixation","","","","",""
"1059.6599999989849","Stimuli/Hangul_M41.bmp","190","image-keyboard-response","127","244799","0.0-8.0-1.7","test",",","",".","",""
"null","<div style=""color:white; font-size:60px;"">+</div>","null","html-keyboard-response","128","245801","0.0-8.0-0.8","fixation","","","","",""
"1241.0349999991013","Stimuli/Hangul_M35.bmp","188","image-keyboard-response","129","247042","0.0-8.0-1.8","test",",","",",","",""
"null","<div style=""color:white; font-size:60px;"">+</div>","null","html-keyboard-response","130","248044","0.0-8.0-0.9","fixation","","","","",""
"1023.3950000110781","Stimuli/Hangul_M40.bmp","190","image-keyboard-response","131","249068","0.0-8.0-1.9","test",",","",".","",""
"null","<div style=""color:white; font-size:60px;"">+</div>","null","html-keyboard-response","132","250069","0.0-8.0-0.10","fixation","","","","",""
"1286.5749999909895","Stimuli/Hangul_F28.bmp","188","image-keyboard-response","133","251356","0.0-8.0-1.10","test",".","",",","",""
"null","<div style=""color:white; font-size:60px;"">+</div>","null","html-keyboard-response","134","252358","0.0-8.0-0.11","fixation","","","","",""
"1079.9050000059651","Stimuli/Hangul_M27.bmp","188","image-keyboard-response","135","253438","0.0-8.0-1.11","test",",","",",","",""
"null","<div style=""color:white; font-size:60px;"">+</div>","null","html-keyboard-response","136","254440","0.0-8.0-0.12","fixation","","","","",""
"1343.909999995958","Stimuli/Hangul_F49.bmp","188","image-keyboard-response","137","255784","0.0-8.0-1.12","test",".","",",","",""
"null","<div style=""color:white; font-size:60px;"">+</div>","null","html-keyboard-response","138","256786","0.0-8.0-0.13","fixation","","","","",""
"1137.6750000054017","Stimuli/Hangul_M30.bmp","188","image-keyboard-response","139","257924","0.0-8.0-1.13","test",",","",",","",""
"null","<div style=""color:white; font-size:60px;"">+</div>","null","html-keyboard-response","140","258927","0.0-8.0-0.14","fixation","","","","",""
"1379.0399999998044","Stimuli/Hangul_M31.bmp","188","image-keyboard-response","141","260306","0.0-8.0-1.14","test",",","",",","",""
"null","<div style=""color:white; font-size:60px;"">+</div>","null","html-keyboard-response","142","261308","0.0-8.0-0.15","fixation","","","","",""
"1576.1700000002747","Stimuli/Hangul_M25.bmp","188","image-keyboard-response","143","262885","0.0-8.0-1.15","test",",","",",","",""
"null","<div style=""color:white; font-size:60px;"">+</div>","null","html-keyboard-response","144","263886","0.0-8.0-0.16","fixation","","","","",""
"2311.600000000908","Stimuli/Hangul_M47.bmp","188","image-keyboard-response","145","266198","0.0-8.0-1.16","test",",","",",","",""
"null","<div style=""color:white; font-size:60px;"">+</div>","null","html-keyboard-response","146","267200","0.0-8.0-0.17","fixation","","","","",""
"1115.669999999227","Stimuli/Hangul_F35.bmp","190","image-keyboard-response","147","268317","0.0-8.0-1.17","test",".","",".","",""
"null","<div style=""color:white; font-size:60px;"">+</div>","null","html-keyboard-response","148","269318","0.0-8.0-0.18","fixation","","","","",""
"1652.7100000093924","Stimuli/Hangul_F45.bmp","188","image-keyboard-response","149","270971","0.0-8.0-1.18","test",".","",",","",""
"null","<div style=""color:white; font-size:60px;"">+</div>","null","html-keyboard-response","150","271972","0.0-8.0-0.19","fixation","","","","",""
"1127.3999999975786","Stimuli/Hangul_M36.bmp","188","image-keyboard-response","151","273100","0.0-8.0-1.19","test",",","",",","",""
"null","<div style=""color:white; font-size:60px;"">+</div>","null","html-keyboard-response","152","274102","0.0-8.0-0.20","fixation","","","","",""
"1218.7700000067707","Stimuli/Hangul_F46.bmp","188","image-keyboard-response","153","275322","0.0-8.0-1.20","test",".","",",","",""
"null","<div style=""color:white; font-size:60px;"">+</div>","null","html-keyboard-response","154","276323","0.0-8.0-0.21","fixation","","","","",""
"1196.1450000089826","Stimuli/Hangul_F42.bmp","190","image-keyboard-response","155","277520","0.0-8.0-1.21","test",".","",".","",""
"null","<div style=""color:white; font-size:60px;"">+</div>","null","html-keyboard-response","156","278521","0.0-8.0-0.22","fixation","","","","",""
"2174.8700000025565","Stimuli/Hangul_M44.bmp","188","image-keyboard-response","157","280697","0.0-8.0-1.22","test",",","",",","",""
"null","<div style=""color:white; font-size:60px;"">+</div>","null","html-keyboard-response","158","281699","0.0-8.0-0.23","fixation","","","","",""
"1724.5050000055926","Stimuli/Hangul_F41.bmp","190","image-keyboard-response","159","283424","0.0-8.0-1.23","test",".","",".","",""
"null","<div style=""color:white; font-size:60px;"">+</div>","null","html-keyboard-response","160","284426","0.0-8.0-0.24","fixation","","","","",""
"1554.1749999974854","Stimuli/Hangul_F48.bmp","188","image-keyboard-response","161","285980","0.0-8.0-1.24","test",".","",",","",""
"null","<div style=""color:white; font-size:60px;"">+</div>","null","html-keyboard-response","162","286982","0.0-8.0-0.25","fixation","","","","",""
"1344.7250000026543","Stimuli/Hangul_F33.bmp","190","image-keyboard-response","163","288328","0.0-8.0-1.25","test",".","",".","",""
"null","<div style=""color:white; font-size:60px;"">+</div>","null","html-keyboard-response","164","289329","0.0-8.0-0.26","fixation","","","","",""
"1199.5950000127777","Stimuli/Hangul_M32.bmp","188","image-keyboard-response","165","290529","0.0-8.0-1.26","test",",","",",","",""
"null","<div style=""color:white; font-size:60px;"">+</div>","null","html-keyboard-response","166","291531","0.0-8.0-0.27","fixation","","","","",""
"1687.6900000061141","Stimuli/Hangul_M49.bmp","188","image-keyboard-response","167","293220","0.0-8.0-1.27","test",",","",",","",""
"null","<div style=""color:white; font-size:60px;"">+</div>","null","html-keyboard-response","168","294221","0.0-8.0-0.28","fixation","","","","",""
"1217.4700000032317","Stimuli/Hangul_M37.bmp","190","image-keyboard-response","169","295439","0.0-8.0-1.28","test",",","",".","",""
"null","<div style=""color:white; font-size:60px;"">+</div>","null","html-keyboard-response","170","296441","0.0-8.0-0.29","fixation","","","","",""
"1159.3850000062957","Stimuli/Hangul_F36.bmp","188","image-keyboard-response","171","297601","0.0-8.0-1.29","test",".","",",","",""
"null","<div style=""color:white; font-size:60px;"">+</div>","null","html-keyboard-response","172","298602","0.0-8.0-0.30","fixation","","","","",""
"1199.850000004517","Stimuli/Hangul_F32.bmp","190","image-keyboard-response","173","299803","0.0-8.0-1.30","test",".","",".","",""
"null","<div style=""color:white; font-size:60px;"">+</div>","null","html-keyboard-response","174","300805","0.0-8.0-0.31","fixation","","","","",""
"1570.7499999989523","Stimuli/Hangul_M29.bmp","188","image-keyboard-response","175","302376","0.0-8.0-1.31","test",",","",",","",""
"null","<div style=""color:white; font-size:60px;"">+</div>","null","html-keyboard-response","176","303379","0.0-8.0-0.32","fixation","","","","",""
"1303.7049999984447","Stimuli/Hangul_F27.bmp","188","image-keyboard-response","177","304683","0.0-8.0-1.32","test",".","",",","",""
"null","<div style=""color:white; font-size:60px;"">+</div>","null","html-keyboard-response","178","305685","0.0-8.0-0.33","fixation","","","","",""
"1086.7450000077952","Stimuli/Hangul_F44.bmp","190","image-keyboard-response","179","306773","0.0-8.0-1.33","test",".","",".","",""
"null","<div style=""color:white; font-size:60px;"">+</div>","null","html-keyboard-response","180","307773","0.0-8.0-0.34","fixation","","","","",""
"964.0499999950407","Stimuli/Hangul_F34.bmp","190","image-keyboard-response","181","308738","0.0-8.0-1.34","test",".","",".","",""
"null","<div style=""color:white; font-size:60px;"">+</div>","null","html-keyboard-response","182","309739","0.0-8.0-0.35","fixation","","","","",""
"1767.3999999969965","Stimuli/Hangul_M39.bmp","188","image-keyboard-response","183","311507","0.0-8.0-1.35","test",",","",",","",""
"null","<div style=""color:white; font-size:60px;"">+</div>","null","html-keyboard-response","184","312509","0.0-8.0-0.36","fixation","","","","",""
"1239.6850000077393","Stimuli/Hangul_M26.bmp","188","image-keyboard-response","185","313749","0.0-8.0-1.36","test",",","",",","",""
"null","<div style=""color:white; font-size:60px;"">+</div>","null","html-keyboard-response","186","314751","0.0-8.0-0.37","fixation","","","","",""
"1071.9149999931687","Stimuli/Hangul_F30.bmp","190","image-keyboard-response","187","315823","0.0-8.0-1.37","test",".","",".","",""
"null","<div style=""color:white; font-size:60px;"">+</div>","null","html-keyboard-response","188","316825","0.0-8.0-0.38","fixation","","","","",""
"1361.4999999990687","Stimuli/Hangul_F43.bmp","188","image-keyboard-response","189","318187","0.0-8.0-1.38","test",".","",",","",""
"null","<div style=""color:white; font-size:60px;"">+</div>","null","html-keyboard-response","190","319189","0.0-8.0-0.39","fixation","","","","",""
"1113.375000000815","Stimuli/Hangul_F38.bmp","188","image-keyboard-response","191","320303","0.0-8.0-1.39","test",".","",",","",""
"null","<div style=""color:white; font-size:60px;"">+</div>","null","html-keyboard-response","192","321305","0.0-8.0-0.40","fixation","","","","",""
"967.7750000118976","Stimuli/Hangul_M43.bmp","188","image-keyboard-response","193","322273","0.0-8.0-1.40","test",",","",",","",""
"null","<div style=""color:white; font-size:60px;"">+</div>","null","html-keyboard-response","194","323274","0.0-8.0-0.41","fixation","","","","",""
"1076.9300000101794","Stimuli/Hangul_M38.bmp","188","image-keyboard-response","195","324352","0.0-8.0-1.41","test",",","",",","",""
"null","<div style=""color:white; font-size:60px;"">+</div>","null","html-keyboard-response","196","325353","0.0-8.0-0.42","fixation","","","","",""
"1095.434999995632","Stimuli/Hangul_M34.bmp","188","image-keyboard-response","197","326449","0.0-8.0-1.42","test",",","",",","",""
"null","<div style=""color:white; font-size:60px;"">+</div>","null","html-keyboard-response","198","327451","0.0-8.0-0.43","fixation","","","","",""
"1594.4299999973737","Stimuli/Hangul_F47.bmp","188","image-keyboard-response","199","329046","0.0-8.0-1.43","test",".","",",","",""
"null","<div style=""color:white; font-size:60px;"">+</div>","null","html-keyboard-response","200","330048","0.0-8.0-0.44","fixation","","","","",""
"1152.5100000144448","Stimuli/Hangul_M46.bmp","188","image-keyboard-response","201","331201","0.0-8.0-1.44","test",",","",",","",""
"null","<div style=""color:white; font-size:60px;"">+</div>","null","html-keyboard-response","202","332203","0.0-8.0-0.45","fixation","","","","",""
"1419.804999997723","Stimuli/Hangul_M28.bmp","188","image-keyboard-response","203","333623","0.0-8.0-1.45","test",",","",",","",""
"null","<div style=""color:white; font-size:60px;"">+</div>","null","html-keyboard-response","204","334624","0.0-8.0-0.46","fixation","","","","",""
"851.0200000018813","Stimuli/Hangul_F39.bmp","190","image-keyboard-response","205","335476","0.0-8.0-1.46","test",".","",".","",""
"null","<div style=""color:white; font-size:60px;"">+</div>","null","html-keyboard-response","206","336477","0.0-8.0-0.47","fixation","","","","",""
"1120.9950000047684","Stimuli/Hangul_M45.bmp","188","image-keyboard-response","207","337599","0.0-8.0-1.47","test",",","",",","",""
"null","<div style=""color:white; font-size:60px;"">+</div>","null","html-keyboard-response","208","338600","0.0-8.0-0.48","fixation","","","","",""
"1037.2449999995297","Stimuli/Hangul_M48.bmp","188","image-keyboard-response","209","339638","0.0-8.0-1.48","test",",","",",","",""
"null","<div style=""color:white; font-size:60px;"">+</div>","null","html-keyboard-response","210","340640","0.0-8.0-0.49","fixation","","","","",""
"1041.079999995418","Stimuli/Hangul_F37.bmp","190","image-keyboard-response","211","341681","0.0-8.0-1.49","test",".","",".","",""
"1064.314999995986","<p style=""color:white;"">Half way there! Please take a moment to rest.</p> <p style=""color:white;"">When you are ready to continue with block 3 of 4, press the space bar.</p> ","32","html-keyboard-response","212","342746","0.0-9.0","","","","","",""
"null","<div style=""color:white; font-size:60px;"">+</div>","null","html-keyboard-response","213","345748","0.0-10.0-0.0","fixation","","","","",""
"1318.4699999983422","Stimuli/Hangul_M68.bmp","188","image-keyboard-response","214","347068","0.0-10.0-1.0","test",",","",",","",""
"null","<div style=""color:white; font-size:60px;"">+</div>","null","html-keyboard-response","215","348070","0.0-10.0-0.1","fixation","","","","",""
"1597.5699999980861","Stimuli/Hangul_M63.bmp","188","image-keyboard-response","216","349669","0.0-10.0-1.1","test",",","",",","",""
"null","<div style=""color:white; font-size:60px;"">+</div>","null","html-keyboard-response","217","350670","0.0-10.0-0.2","fixation","","","","",""
"1020.1099999976577","Stimuli/Hangul_F73.bmp","190","image-keyboard-response","218","351691","0.0-10.0-1.2","test",".","",".","",""
"null","<div style=""color:white; font-size:60px;"">+</div>","null","html-keyboard-response","219","352692","0.0-10.0-0.3","fixation","","","","",""
"1167.4950000015087","Stimuli/Hangul_F56.bmp","190","image-keyboard-response","220","353860","0.0-10.0-1.3","test",".","",".","",""
"null","<div style=""color:white; font-size:60px;"">+</div>","null","html-keyboard-response","221","354862","0.0-10.0-0.4","fixation","","","","",""
"1113.8000000064494","Stimuli/Hangul_M51.bmp","188","image-keyboard-response","222","355976","0.0-10.0-1.4","test",",","",",","",""
"null","<div style=""color:white; font-size:60px;"">+</div>","null","html-keyboard-response","223","356978","0.0-10.0-0.5","fixation","","","","",""
"989.3349999911152","Stimuli/Hangul_F53.bmp","190","image-keyboard-response","224","357968","0.0-10.0-1.5","test",".","",".","",""
"null","<div style=""color:white; font-size:60px;"">+</div>","null","html-keyboard-response","225","358968","0.0-10.0-0.6","fixation","","","","",""
"1246.4200000104029","Stimuli/Hangul_M71.bmp","188","image-keyboard-response","226","360215","0.0-10.0-1.6","test",",","",",","",""
"null","<div style=""color:white; font-size:60px;"">+</div>","null","html-keyboard-response","227","361218","0.0-10.0-0.7","fixation","","","","",""
"2373.7550000078045","Stimuli/Hangul_M72.bmp","188","image-keyboard-response","228","363592","0.0-10.0-1.7","test",",","",",","",""
"null","<div style=""color:white; font-size:60px;"">+</div>","null","html-keyboard-response","229","364593","0.0-10.0-0.8","fixation","","","","",""
"2488.855000003241","Stimuli/Hangul_M64.bmp","188","image-keyboard-response","230","367083","0.0-10.0-1.8","test",",","",",","",""
"null","<div style=""color:white; font-size:60px;"">+</div>","null","html-keyboard-response","231","368084","0.0-10.0-0.9","fixation","","","","",""
"1543.5699999943608","Stimuli/Hangul_F58.bmp","188","image-keyboard-response","232","369629","0.0-10.0-1.9","test",".","",",","",""
"null","<div style=""color:white; font-size:60px;"">+</div>","null","html-keyboard-response","233","370630","0.0-10.0-0.10","fixation","","","","",""
"2974.770000000717","Stimuli/Hangul_F66.bmp","190","image-keyboard-response","234","373605","0.0-10.0-1.10","test",".","",".","",""
"null","<div style=""color:white; font-size:60px;"">+</div>","null","html-keyboard-response","235","374607","0.0-10.0-0.11","fixation","","","","",""
"2095.164999991539","Stimuli/Hangul_F72.bmp","188","image-keyboard-response","236","376703","0.0-10.0-1.11","test",".","",",","",""
"null","<div style=""color:white; font-size:60px;"">+</div>","null","html-keyboard-response","237","377704","0.0-10.0-0.12","fixation","","","","",""
"2071.2250000069616","Stimuli/Hangul_M69.bmp","188","image-keyboard-response","238","379776","0.0-10.0-1.12","test",",","",",","",""
"null","<div style=""color:white; font-size:60px;"">+</div>","null","html-keyboard-response","239","380778","0.0-10.0-0.13","fixation","","","","",""
"1138.875000004191","Stimuli/Hangul_M73.bmp","188","image-keyboard-response","240","381918","0.0-10.0-1.13","test",",","",",","",""
"null","<div style=""color:white; font-size:60px;"">+</div>","null","html-keyboard-response","241","382919","0.0-10.0-0.14","fixation","","","","",""
"1840.9600000013597","Stimuli/Hangul_M56.bmp","188","image-keyboard-response","242","384761","0.0-10.0-1.14","test",",","",",","",""
"null","<div style=""color:white; font-size:60px;"">+</div>","null","html-keyboard-response","243","385762","0.0-10.0-0.15","fixation","","","","",""
"2043.9900000055786","Stimuli/Hangul_F52.bmp","188","image-keyboard-response","244","387807","0.0-10.0-1.15","test",".","",",","",""
"null","<div style=""color:white; font-size:60px;"">+</div>","null","html-keyboard-response","245","388809","0.0-10.0-0.16","fixation","","","","",""
"2709.625000003143","Stimuli/Hangul_F57.bmp","190","image-keyboard-response","246","391519","0.0-10.0-1.16","test",".","",".","",""
"null","<div style=""color:white; font-size:60px;"">+</div>","null","html-keyboard-response","247","392521","0.0-10.0-0.17","fixation","","","","",""
"1913.7749999936204","Stimuli/Hangul_M57.bmp","188","image-keyboard-response","248","394435","0.0-10.0-1.17","test",",","",",","",""
"null","<div style=""color:white; font-size:60px;"">+</div>","null","html-keyboard-response","249","395437","0.0-10.0-0.18","fixation","","","","",""
"2322.520000001532","Stimuli/Hangul_M59.bmp","188","image-keyboard-response","250","397760","0.0-10.0-1.18","test",",","",",","",""
"null","<div style=""color:white; font-size:60px;"">+</div>","null","html-keyboard-response","251","398762","0.0-10.0-0.19","fixation","","","","",""
"3029.2000000044936","Stimuli/Hangul_F70.bmp","188","image-keyboard-response","252","401794","0.0-10.0-1.19","test",".","",",","",""
"null","<div style=""color:white; font-size:60px;"">+</div>","null","html-keyboard-response","253","402795","0.0-10.0-0.20","fixation","","","","",""
"2701.5149999933783","Stimuli/Hangul_M70.bmp","188","image-keyboard-response","254","405498","0.0-10.0-1.20","test",",","",",","",""
"null","<div style=""color:white; font-size:60px;"">+</div>","null","html-keyboard-response","255","406500","0.0-10.0-0.21","fixation","","","","",""
"2073.065000004135","Stimuli/Hangul_M53.bmp","188","image-keyboard-response","256","408573","0.0-10.0-1.21","test",",","",",","",""
"null","<div style=""color:white; font-size:60px;"">+</div>","null","html-keyboard-response","257","409574","0.0-10.0-0.22","fixation","","","","",""
"1717.0250000053784","Stimuli/Hangul_M52.bmp","188","image-keyboard-response","258","411292","0.0-10.0-1.22","test",",","",",","",""
"null","<div style=""color:white; font-size:60px;"">+</div>","null","html-keyboard-response","259","412293","0.0-10.0-0.23","fixation","","","","",""
"1423.3800000074552","Stimuli/Hangul_F68.bmp","190","image-keyboard-response","260","413717","0.0-10.0-1.23","test",".","",".","",""
"null","<div style=""color:white; font-size:60px;"">+</div>","null","html-keyboard-response","261","414719","0.0-10.0-0.24","fixation","","","","",""
"3862.525000004098","Stimuli/Hangul_F67.bmp","188","image-keyboard-response","262","418582","0.0-10.0-1.24","test",".","",",","",""
"null","<div style=""color:white; font-size:60px;"">+</div>","null","html-keyboard-response","263","419584","0.0-10.0-0.25","fixation","","","","",""
"2849.385000008624","Stimuli/Hangul_M74.bmp","188","image-keyboard-response","264","422435","0.0-10.0-1.25","test",",","",",","",""
"null","<div style=""color:white; font-size:60px;"">+</div>","null","html-keyboard-response","265","423436","0.0-10.0-0.26","fixation","","","","",""
"2168.4450000029756","Stimuli/Hangul_F64.bmp","190","image-keyboard-response","266","425605","0.0-10.0-1.26","test",".","",".","",""
"null","<div style=""color:white; font-size:60px;"">+</div>","null","html-keyboard-response","267","426606","0.0-10.0-0.27","fixation","","","","",""
"1610.1899999921443","Stimuli/Hangul_F63.bmp","188","image-keyboard-response","268","428217","0.0-10.0-1.27","test",".","",",","",""
"null","<div style=""color:white; font-size:60px;"">+</div>","null","html-keyboard-response","269","429218","0.0-10.0-0.28","fixation","","","","",""
"2258.690000002389","Stimuli/Hangul_M58.bmp","188","image-keyboard-response","270","431477","0.0-10.0-1.28","test",",","",",","",""
"null","<div style=""color:white; font-size:60px;"">+</div>","null","html-keyboard-response","271","432479","0.0-10.0-0.29","fixation","","","","",""
"2079.7900000034133","Stimuli/Hangul_M55.bmp","188","image-keyboard-response","272","434559","0.0-10.0-1.29","test",",","",",","",""
"null","<div style=""color:white; font-size:60px;"">+</div>","null","html-keyboard-response","273","435561","0.0-10.0-0.30","fixation","","","","",""
"1195.0849999993807","Stimuli/Hangul_F62.bmp","188","image-keyboard-response","274","436757","0.0-10.0-1.30","test",".","",",","",""
"null","<div style=""color:white; font-size:60px;"">+</div>","null","html-keyboard-response","275","437758","0.0-10.0-0.31","fixation","","","","",""
"2202.405000003637","Stimuli/Hangul_M65.bmp","188","image-keyboard-response","276","439961","0.0-10.0-1.31","test",",","",",","",""
"null","<div style=""color:white; font-size:60px;"">+</div>","null","html-keyboard-response","277","440962","0.0-10.0-0.32","fixation","","","","",""
"1203.7850000051549","Stimuli/Hangul_F50.bmp","190","image-keyboard-response","278","442167","0.0-10.0-1.32","test",".","",".","",""
"null","<div style=""color:white; font-size:60px;"">+</div>","null","html-keyboard-response","279","443168","0.0-10.0-0.33","fixation","","","","",""
"1006.3650000083726","Stimuli/Hangul_F74.bmp","190","image-keyboard-response","280","444175","0.0-10.0-1.33","test",".","",".","",""
"null","<div style=""color:white; font-size:60px;"">+</div>","null","html-keyboard-response","281","445176","0.0-10.0-0.34","fixation","","","","",""
"1090.5449999991106","Stimuli/Hangul_F60.bmp","190","image-keyboard-response","282","446267","0.0-10.0-1.34","test",".","",".","",""
"null","<div style=""color:white; font-size:60px;"">+</div>","null","html-keyboard-response","283","447269","0.0-10.0-0.35","fixation","","","","",""
"878.4749999904307","Stimuli/Hangul_F51.bmp","190","image-keyboard-response","284","448148","0.0-10.0-1.35","test",".","",".","",""
"null","<div style=""color:white; font-size:60px;"">+</div>","null","html-keyboard-response","285","449150","0.0-10.0-0.36","fixation","","","","",""
"1229.0550000034273","Stimuli/Hangul_F61.bmp","188","image-keyboard-response","286","450380","0.0-10.0-1.36","test",".","",",","",""
"null","<div style=""color:white; font-size:60px;"">+</div>","null","html-keyboard-response","287","451381","0.0-10.0-0.37","fixation","","","","",""
"2311.8950000061886","Stimuli/Hangul_M60.bmp","190","image-keyboard-response","288","453694","0.0-10.0-1.37","test",",","",".","",""
"null","<div style=""color:white; font-size:60px;"">+</div>","null","html-keyboard-response","289","454695","0.0-10.0-0.38","fixation","","","","",""
"1618.705000000773","Stimuli/Hangul_F54.bmp","188","image-keyboard-response","290","456315","0.0-10.0-1.38","test",".","",",","",""
"null","<div style=""color:white; font-size:60px;"">+</div>","null","html-keyboard-response","291","457316","0.0-10.0-0.39","fixation","","","","",""
"1448.9050000120187","Stimuli/Hangul_M50.bmp","188","image-keyboard-response","292","458766","0.0-10.0-1.39","test",",","",",","",""
"null","<div style=""color:white; font-size:60px;"">+</div>","null","html-keyboard-response","293","459766","0.0-10.0-0.40","fixation","","","","",""
"1254.4550000020536","Stimuli/Hangul_M62.bmp","188","image-keyboard-response","294","461021","0.0-10.0-1.40","test",",","",",","",""
"null","<div style=""color:white; font-size:60px;"">+</div>","null","html-keyboard-response","295","462023","0.0-10.0-0.41","fixation","","","","",""
"1254.609999989043","Stimuli/Hangul_F55.bmp","188","image-keyboard-response","296","463279","0.0-10.0-1.41","test",".","",",","",""
"null","<div style=""color:white; font-size:60px;"">+</div>","null","html-keyboard-response","297","464280","0.0-10.0-0.42","fixation","","","","",""
"1131.150000001071","Stimuli/Hangul_F59.bmp","190","image-keyboard-response","298","465412","0.0-10.0-1.42","test",".","",".","",""
"null","<div style=""color:white; font-size:60px;"">+</div>","null","html-keyboard-response","299","466413","0.0-10.0-0.43","fixation","","","","",""
"1832.3449999879813","Stimuli/Hangul_M54.bmp","188","image-keyboard-response","300","468246","0.0-10.0-1.43","test",",","",",","",""
"null","<div style=""color:white; font-size:60px;"">+</div>","null","html-keyboard-response","301","469248","0.0-10.0-0.44","fixation","","","","",""
"1516.1450000014156","Stimuli/Hangul_M61.bmp","188","image-keyboard-response","302","470765","0.0-10.0-1.44","test",",","",",","",""
"null","<div style=""color:white; font-size:60px;"">+</div>","null","html-keyboard-response","303","471767","0.0-10.0-0.45","fixation","","","","",""
"1007.8599999978906","Stimuli/Hangul_F71.bmp","190","image-keyboard-response","304","472775","0.0-10.0-1.45","test",".","",".","",""
"null","<div style=""color:white; font-size:60px;"">+</div>","null","html-keyboard-response","305","473776","0.0-10.0-0.46","fixation","","","","",""
"957.1149999974295","Stimuli/Hangul_F69.bmp","190","image-keyboard-response","306","474734","0.0-10.0-1.46","test",".","",".","",""
"null","<div style=""color:white; font-size:60px;"">+</div>","null","html-keyboard-response","307","475735","0.0-10.0-0.47","fixation","","","","",""
"928.3649999997579","Stimuli/Hangul_F65.bmp","190","image-keyboard-response","308","476664","0.0-10.0-1.47","test",".","",".","",""
"null","<div style=""color:white; font-size:60px;"">+</div>","null","html-keyboard-response","309","477666","0.0-10.0-0.48","fixation","","","","",""
"1105.7549999968614","Stimuli/Hangul_M66.bmp","188","image-keyboard-response","310","478772","0.0-10.0-1.48","test",",","",",","",""
"null","<div style=""color:white; font-size:60px;"">+</div>","null","html-keyboard-response","311","479774","0.0-10.0-0.49","fixation","","","","",""
"1020.1400000078138","Stimuli/Hangul_M67.bmp","190","image-keyboard-response","312","480795","0.0-10.0-1.49","test",",","",".","",""
"3408.274999994319","<p style=""color:white;"">One more block to go! Please take a moment to rest.</p> <p style=""color:white;"">When you are ready to continue with block 4 of 4, press the space bar.</p> ","32","html-keyboard-response","313","484204","0.0-11.0","","","","","",""
"null","<div style=""color:white; font-size:60px;"">+</div>","null","html-keyboard-response","314","487206","0.0-12.0-0.0","fixation","","","","",""
"2597.670000002836","Stimuli/Hangul_F90.bmp","188","image-keyboard-response","315","489805","0.0-12.0-1.0","test",".","",",","",""
"null","<div style=""color:white; font-size:60px;"">+</div>","null","html-keyboard-response","316","490806","0.0-12.0-0.1","fixation","","","","",""
"985.6650000001537","Stimuli/Hangul_F87.bmp","190","image-keyboard-response","317","491793","0.0-12.0-1.1","test",".","",".","",""
"null","<div style=""color:white; font-size:60px;"">+</div>","null","html-keyboard-response","318","492794","0.0-12.0-0.2","fixation","","","","",""
"1040.7799999957206","Stimuli/Hangul_F92.bmp","190","image-keyboard-response","319","493835","0.0-12.0-1.2","test",".","",".","",""
"null","<div style=""color:white; font-size:60px;"">+</div>","null","html-keyboard-response","320","494837","0.0-12.0-0.3","fixation","","","","",""
"970.050000003539","Stimuli/Hangul_M81.bmp","188","image-keyboard-response","321","495808","0.0-12.0-1.3","test",",","",",","",""
"null","<div style=""color:white; font-size:60px;"">+</div>","null","html-keyboard-response","322","496810","0.0-12.0-0.4","fixation","","","","",""
"1080.100000006496","Stimuli/Hangul_M91.bmp","188","image-keyboard-response","323","497891","0.0-12.0-1.4","test",",","",",","",""
"null","<div style=""color:white; font-size:60px;"">+</div>","null","html-keyboard-response","324","498893","0.0-12.0-0.5","fixation","","","","",""
"1751.6950000135694","Stimuli/Hangul_F98.bmp","190","image-keyboard-response","325","500645","0.0-12.0-1.5","test",".","",".","",""
"null","<div style=""color:white; font-size:60px;"">+</div>","null","html-keyboard-response","326","501647","0.0-12.0-0.6","fixation","","","","",""
"943.1900000054156","Stimuli/Hangul_M87.bmp","190","image-keyboard-response","327","502592","0.0-12.0-1.6","test",",","",".","",""
"null","<div style=""color:white; font-size:60px;"">+</div>","null","html-keyboard-response","328","503595","0.0-12.0-0.7","fixation","","","","",""
"1093.7700000067707","Stimuli/Hangul_M94.bmp","188","image-keyboard-response","329","504689","0.0-12.0-1.7","test",",","",",","",""
"null","<div style=""color:white; font-size:60px;"">+</div>","null","html-keyboard-response","330","505691","0.0-12.0-0.8","fixation","","","","",""
"920.1900000043679","Stimuli/Hangul_F75.bmp","190","image-keyboard-response","331","506612","0.0-12.0-1.8","test",".","",".","",""
"null","<div style=""color:white; font-size:60px;"">+</div>","null","html-keyboard-response","332","507613","0.0-12.0-0.9","fixation","","","","",""
"890.7800000015413","Stimuli/Hangul_M92.bmp","188","image-keyboard-response","333","508506","0.0-12.0-1.9","test",",","",",","",""
"null","<div style=""color:white; font-size:60px;"">+</div>","null","html-keyboard-response","334","509507","0.0-12.0-0.10","fixation","","","","",""
"933.5100000025705","Stimuli/Hangul_F77.bmp","190","image-keyboard-response","335","510441","0.0-12.0-1.10","test",".","",".","",""
"null","<div style=""color:white; font-size:60px;"">+</div>","null","html-keyboard-response","336","511443","0.0-12.0-0.11","fixation","","","","",""
"980.4599999915808","Stimuli/Hangul_F97.bmp","190","image-keyboard-response","337","512424","0.0-12.0-1.11","test",".","",".","",""
"null","<div style=""color:white; font-size:60px;"">+</div>","null","html-keyboard-response","338","513426","0.0-12.0-0.12","fixation","","","","",""
"954.394999993383","Stimuli/Hangul_M89.bmp","188","image-keyboard-response","339","514381","0.0-12.0-1.12","test",",","",",","",""
"null","<div style=""color:white; font-size:60px;"">+</div>","null","html-keyboard-response","340","515381","0.0-12.0-0.13","fixation","","","","",""
"850.4699999903096","Stimuli/Hangul_F94.bmp","190","image-keyboard-response","341","516232","0.0-12.0-1.13","test",".","",".","",""
"null","<div style=""color:white; font-size:60px;"">+</div>","null","html-keyboard-response","342","517234","0.0-12.0-0.14","fixation","","","","",""
"883.9949999965029","Stimuli/Hangul_F85.bmp","188","image-keyboard-response","343","518118","0.0-12.0-1.14","test",".","",",","",""
"null","<div style=""color:white; font-size:60px;"">+</div>","null","html-keyboard-response","344","519120","0.0-12.0-0.15","fixation","","","","",""
"1014.4500000023982","Stimuli/Hangul_M98.bmp","188","image-keyboard-response","345","520135","0.0-12.0-1.15","test",",","",",","",""
"null","<div style=""color:white; font-size:60px;"">+</div>","null","html-keyboard-response","346","521135","0.0-12.0-0.16","fixation","","","","",""
"1006.6999999980908","Stimuli/Hangul_M76.bmp","188","image-keyboard-response","347","522143","0.0-12.0-1.16","test",",","",",","",""
"null","<div style=""color:white; font-size:60px;"">+</div>","null","html-keyboard-response","348","523144","0.0-12.0-0.17","fixation","","","","",""
"926.5500000037719","Stimuli/Hangul_F88.bmp","190","image-keyboard-response","349","524071","0.0-12.0-1.17","test",".","",".","",""
"null","<div style=""color:white; font-size:60px;"">+</div>","null","html-keyboard-response","350","525073","0.0-12.0-0.18","fixation","","","","",""
"846.3200000114739","Stimuli/Hangul_F76.bmp","190","image-keyboard-response","351","525920","0.0-12.0-1.18","test",".","",".","",""
"null","<div style=""color:white; font-size:60px;"">+</div>","null","html-keyboard-response","352","526922","0.0-12.0-0.19","fixation","","","","",""
"1231.6649999993388","Stimuli/Hangul_M97.bmp","188","image-keyboard-response","353","528154","0.0-12.0-1.19","test",",","",",","",""
"null","<div style=""color:white; font-size:60px;"">+</div>","null","html-keyboard-response","354","529156","0.0-12.0-0.20","fixation","","","","",""
"860.7449999981327","Stimuli/Hangul_F93.bmp","190","image-keyboard-response","355","530017","0.0-12.0-1.20","test",".","",".","",""
"null","<div style=""color:white; font-size:60px;"">+</div>","null","html-keyboard-response","356","531018","0.0-12.0-0.21","fixation","","","","",""
"878.1299999973271","Stimuli/Hangul_F86.bmp","190","image-keyboard-response","357","531897","0.0-12.0-1.21","test",".","",".","",""
"null","<div style=""color:white; font-size:60px;"">+</div>","null","html-keyboard-response","358","532899","0.0-12.0-0.22","fixation","","","","",""
"1147.6050000055693","Stimuli/Hangul_M95.bmp","188","image-keyboard-response","359","534047","0.0-12.0-1.22","test",",","",",","",""
"null","<div style=""color:white; font-size:60px;"">+</div>","null","html-keyboard-response","360","535049","0.0-12.0-0.23","fixation","","","","",""
"1020.3599999949802","Stimuli/Hangul_M79.bmp","188","image-keyboard-response","361","536070","0.0-12.0-1.23","test",",","",",","",""
"null","<div style=""color:white; font-size:60px;"">+</div>","null","html-keyboard-response","362","537071","0.0-12.0-0.24","fixation","","","","",""
"1009.2000000004191","Stimuli/Hangul_M90.bmp","188","image-keyboard-response","363","538081","0.0-12.0-1.24","test",",","",",","",""
"null","<div style=""color:white; font-size:60px;"">+</div>","null","html-keyboard-response","364","539082","0.0-12.0-0.25","fixation","","","","",""
"1162.3499999986961","Stimuli/Hangul_F91.bmp","188","image-keyboard-response","365","540244","0.0-12.0-1.25","test",".","",",","",""
"null","<div style=""color:white; font-size:60px;"">+</div>","null","html-keyboard-response","366","541246","0.0-12.0-0.26","fixation","","","","",""
"1063.2750000077067","Stimuli/Hangul_M96.bmp","188","image-keyboard-response","367","542310","0.0-12.0-1.26","test",",","",",","",""
"null","<div style=""color:white; font-size:60px;"">+</div>","null","html-keyboard-response","368","543311","0.0-12.0-0.27","fixation","","","","",""
"1033.3350000000792","Stimuli/Hangul_M83.bmp","188","image-keyboard-response","369","544345","0.0-12.0-1.27","test",",","",",","",""
"null","<div style=""color:white; font-size:60px;"">+</div>","null","html-keyboard-response","370","545346","0.0-12.0-0.28","fixation","","","","",""
"966.9600000052014","Stimuli/Hangul_F79.bmp","190","image-keyboard-response","371","546313","0.0-12.0-1.28","test",".","",".","",""
"null","<div style=""color:white; font-size:60px;"">+</div>","null","html-keyboard-response","372","547314","0.0-12.0-0.29","fixation","","","","",""
"1031.3099999912083","Stimuli/Hangul_F95.bmp","190","image-keyboard-response","373","548346","0.0-12.0-1.29","test",".","",".","",""
"null","<div style=""color:white; font-size:60px;"">+</div>","null","html-keyboard-response","374","549347","0.0-12.0-0.30","fixation","","","","",""
"963.2850000052713","Stimuli/Hangul_F81.bmp","190","image-keyboard-response","375","550311","0.0-12.0-1.30","test",".","",".","",""
"null","<div style=""color:white; font-size:60px;"">+</div>","null","html-keyboard-response","376","551313","0.0-12.0-0.31","fixation","","","","",""
"928.9199999911943","Stimuli/Hangul_M78.bmp","188","image-keyboard-response","377","552242","0.0-12.0-1.31","test",",","",",","",""
"null","<div style=""color:white; font-size:60px;"">+</div>","null","html-keyboard-response","378","553244","0.0-12.0-0.32","fixation","","","","",""
"1106.2999999994645","Stimuli/Hangul_F78.bmp","190","image-keyboard-response","379","554351","0.0-12.0-1.32","test",".","",".","",""
"null","<div style=""color:white; font-size:60px;"">+</div>","null","html-keyboard-response","380","555352","0.0-12.0-0.33","fixation","","","","",""
"969.7900000028312","Stimuli/Hangul_M88.bmp","188","image-keyboard-response","381","556322","0.0-12.0-1.33","test",",","",",","",""
"null","<div style=""color:white; font-size:60px;"">+</div>","null","html-keyboard-response","382","557323","0.0-12.0-0.34","fixation","","","","",""
"1164.7250000096392","Stimuli/Hangul_M93.bmp","188","image-keyboard-response","383","558489","0.0-12.0-1.34","test",",","",",","",""
"null","<div style=""color:white; font-size:60px;"">+</div>","null","html-keyboard-response","384","559490","0.0-12.0-0.35","fixation","","","","",""
"1189.2799999914132","Stimuli/Hangul_F82.bmp","190","image-keyboard-response","385","560680","0.0-12.0-1.35","test",".","",".","",""
"null","<div style=""color:white; font-size:60px;"">+</div>","null","html-keyboard-response","386","561682","0.0-12.0-0.36","fixation","","","","",""
"1016.8049999920186","Stimuli/Hangul_F89.bmp","190","image-keyboard-response","387","562699","0.0-12.0-1.36","test",".","",".","",""
"null","<div style=""color:white; font-size:60px;"">+</div>","null","html-keyboard-response","388","563701","0.0-12.0-0.37","fixation","","","","",""
"929.1950000042561","Stimuli/Hangul_F84.bmp","190","image-keyboard-response","389","564630","0.0-12.0-1.37","test",".","",".","",""
"null","<div style=""color:white; font-size:60px;"">+</div>","null","html-keyboard-response","390","565631","0.0-12.0-0.38","fixation","","","","",""
"882.7349999919534","Stimuli/Hangul_F80.bmp","190","image-keyboard-response","391","566515","0.0-12.0-1.38","test",".","",".","",""
"null","<div style=""color:white; font-size:60px;"">+</div>","null","html-keyboard-response","392","567516","0.0-12.0-0.39","fixation","","","","",""
"825.0399999960791","Stimuli/Hangul_M84.bmp","190","image-keyboard-response","393","568342","0.0-12.0-1.39","test",",","",".","",""
"null","<div style=""color:white; font-size:60px;"">+</div>","null","html-keyboard-response","394","569343","0.0-12.0-0.40","fixation","","","","",""
"1109.5499999937601","Stimuli/Hangul_M86.bmp","188","image-keyboard-response","395","570453","0.0-12.0-1.40","test",",","",",","",""
"null","<div style=""color:white; font-size:60px;"">+</div>","null","html-keyboard-response","396","571455","0.0-12.0-0.41","fixation","","","","",""
"1389.2249999917112","Stimuli/Hangul_M82.bmp","188","image-keyboard-response","397","572845","0.0-12.0-1.41","test",",","",",","",""
"null","<div style=""color:white; font-size:60px;"">+</div>","null","html-keyboard-response","398","573847","0.0-12.0-0.42","fixation","","","","",""
"1150.2450000116369","Stimuli/Hangul_M77.bmp","188","image-keyboard-response","399","574998","0.0-12.0-1.42","test",",","",",","",""
"null","<div style=""color:white; font-size:60px;"">+</div>","null","html-keyboard-response","400","575999","0.0-12.0-0.43","fixation","","","","",""
"1900.3850000008242","Stimuli/Hangul_M80.bmp","188","image-keyboard-response","401","577900","0.0-12.0-1.43","test",",","",",","",""
"null","<div style=""color:white; font-size:60px;"">+</div>","null","html-keyboard-response","402","578902","0.0-12.0-0.44","fixation","","","","",""
"1600.0400000048103","Stimuli/Hangul_F99.bmp","188","image-keyboard-response","403","580503","0.0-12.0-1.44","test",".","",",","",""
"null","<div style=""color:white; font-size:60px;"">+</div>","null","html-keyboard-response","404","581504","0.0-12.0-0.45","fixation","","","","",""
"988.3649999974295","Stimuli/Hangul_M75.bmp","188","image-keyboard-response","405","582494","0.0-12.0-1.45","test",",","",",","",""
"null","<div style=""color:white; font-size:60px;"">+</div>","null","html-keyboard-response","406","583497","0.0-12.0-0.46","fixation","","","","",""
"1101.4850000065053","Stimuli/Hangul_F83.bmp","190","image-keyboard-response","407","584599","0.0-12.0-1.46","test",".","",".","",""
"null","<div style=""color:white; font-size:60px;"">+</div>","null","html-keyboard-response","408","585600","0.0-12.0-0.47","fixation","","","","",""
"1051.6199999983655","Stimuli/Hangul_M85.bmp","188","image-keyboard-response","409","586652","0.0-12.0-1.47","test",",","",",","",""
"null","<div style=""color:white; font-size:60px;"">+</div>","null","html-keyboard-response","410","587653","0.0-12.0-0.48","fixation","","","","",""
"965.555000002496","Stimuli/Hangul_M99.bmp","188","image-keyboard-response","411","588619","0.0-12.0-1.48","test",",","",",","",""
"null","<div style=""color:white; font-size:60px;"">+</div>","null","html-keyboard-response","412","589621","0.0-12.0-0.49","fixation","","","","",""
"1336.1600000062026","Stimuli/Hangul_F96.bmp","190","image-keyboard-response","413","590957","0.0-12.0-1.49","test",".","",".","",""
"2656.3349999923958","<p style=""color:white;"">Phase I of the experiment is complete.</p> <p style=""color:white;"">Press the space bar to proceed to Phase II of the experiment.</p> ","32","html-keyboard-response","414","593615","0.0-13.0","","","","","",""
"3673.689999995986","<p style=""color:white;"">Now we are interested in how well you can predict patterns in the series of figures. You will be asked to predict whether the next figure in the series is more male-like or female-like. When you see the <q>Next Figure</q> prompt, press the corresponding response keys to indicate your prediction: </p><p style=""color:white;""> Male &#8594 <q>,</q> (comma)</p><p style=""color:white;""> Female &#8594 <q>.</q> (period)</p><p style=""color:white;"">The actual figure will then appear on the screen. After you see the figure, please guess the assigned gender with response keys. </p><p style=""color:white;"">As before, you will receive 2 cents for correctly classifying each figure.</p><p style=""color:white;"">Press either response keys to continue.</p>","190","html-keyboard-response","415","599290","0.0-14.0","","","","","",""
"1691.915000003064","<p style=""color:white;"">PREDICTION BONUS</p> <p style=""color:white;"">Your prediction accuracy is the total number of correct predictions you make over the 200 trials.</p> <p style=""color:white;"">In addition to the 2 cents per correct figure classification, you have the chance to receive a bonus of 40 dollars IF your accuracy is above average relative to previous participants.</p><p style=""color:white;"">If your accuracy is below average relative to previous participants, then you will not receive the 40 dollar bonus.</p><p style=""color:white;"">Press the space bar to continue.</p>","32","html-keyboard-response","416","600983","0.0-15.0","","","","","",""
"1936.4150000037625","<p style=""color:white;"">Here are some examples.</p> <p style=""color:white;"">For each, predict whether the next figure looks more male-like or female-like. Then, when the figure appears, guess whether it looks more male-like or female-like and indicate your choice.</p> <p style=""color:white;"">Press the space bar to continue.</p>","32","html-keyboard-response","417","602920","0.0-16.0","","","","","",""
"5066.359999997076","<p style=""color:white;""> Next Figure: Male or Female? </p>","188","html-keyboard-response","418","609989","0.0-17.0-0.0","prediction_train","","","",",",""
"null","<div style=""color:white; font-size:60px;"">+</div>","null","html-keyboard-response","419","610991","0.0-17.0-1.0","fixation","","","","",""
"1914.470000003348","Stimuli/Hangul_E0.bmp","188","image-keyboard-response","420","612906","0.0-17.0-2.0","c2_train",",","","","",","
"1496.4599999948405","<p style=""color:white;""> Next Figure: Male or Female? </p>","188","html-keyboard-response","421","614403","0.0-17.0-0.1","prediction_train","","","",",",""
"null","<div style=""color:white; font-size:60px;"">+</div>","null","html-keyboard-response","422","615405","0.0-17.0-1.1","fixation","","","","",""
"626.4550000050804","Stimuli/Hangul_E1.bmp","188","image-keyboard-response","423","616032","0.0-17.0-2.1","c2_train",",","","","",","
"704.5649999927264","<p style=""color:white;""> Next Figure: Male or Female? </p>","188","html-keyboard-response","424","616737","0.0-17.0-0.2","prediction_train","","","",",",""
"null","<div style=""color:white; font-size:60px;"">+</div>","null","html-keyboard-response","425","617739","0.0-17.0-1.2","fixation","","","","",""
"200.02000000386033","Stimuli/Hangul_E2.bmp","190","image-keyboard-response","426","617939","0.0-17.0-2.2","c2_train",".","","","","."
"1507.6649999973597","<p style=""color:white;"">Let us begin! Press the space bar when you are ready to start block 1 of 4.</p> ","32","html-keyboard-response","427","619448","0.0-18.0","","","","","",""
"606.9200000056298","<p style=""color:white;""> Next Figure: Male or Female? </p>","188","html-keyboard-response","428","622056","0.0-19.0-0.0","prediction","","","",",",""
"null","<div style=""color:white; font-size:60px;"">+</div>","null","html-keyboard-response","429","623057","0.0-19.0-1.0","fixation","","","","",""
"3392.359999998007","Stimuli/Hangul_M11.bmp","188","image-keyboard-response","430","626450","0.0-19.0-2.0","c2_test",",","","","",","
"663.0949999962468","<p style=""color:white;""> Next Figure: Male or Female? </p>","188","html-keyboard-response","431","627114","0.0-19.0-0.1","prediction","","","",",",""
"null","<div style=""color:white; font-size:60px;"">+</div>","null","html-keyboard-response","432","628116","0.0-19.0-1.1","fixation","","","","",""
"606.3999999896623","Stimuli/Hangul_F8.bmp","190","image-keyboard-response","433","628723","0.0-19.0-2.1","c2_test",".","","","","."
"379.3149999983143","<p style=""color:white;""> Next Figure: Male or Female? </p>","190","html-keyboard-response","434","629103","0.0-19.0-0.2","prediction","","","",".",""
"null","<div style=""color:white; font-size:60px;"">+</div>","null","html-keyboard-response","435","630105","0.0-19.0-1.2","fixation","","","","",""
"475.87000000930857","Stimuli/Hangul_F14.bmp","190","image-keyboard-response","436","630581","0.0-19.0-2.2","c2_test",".","","","","."
"205.52000000316184","<p style=""color:white;""> Next Figure: Male or Female? </p>","190","html-keyboard-response","437","630787","0.0-19.0-0.3","prediction","","","",".",""
"null","<div style=""color:white; font-size:60px;"">+</div>","null","html-keyboard-response","438","631789","0.0-19.0-1.3","fixation","","","","",""
"575.8850000129314","Stimuli/Hangul_F3.bmp","188","image-keyboard-response","439","632366","0.0-19.0-2.3","c2_test",".","","","",","
"195.16999999177642","<p style=""color:white;""> Next Figure: Male or Female? </p>","188","html-keyboard-response","440","632561","0.0-19.0-0.4","prediction","","","",",",""
"null","<div style=""color:white; font-size:60px;"">+</div>","null","html-keyboard-response","441","633563","0.0-19.0-1.4","fixation","","","","",""
"607.1499999961816","Stimuli/Hangul_F13.bmp","188","image-keyboard-response","442","634171","0.0-19.0-2.4","c2_test",".","","","",","
"151.86500000709202","<p style=""color:white;""> Next Figure: Male or Female? </p>","188","html-keyboard-response","443","634323","0.0-19.0-0.5","prediction","","","",",",""
"null","<div style=""color:white; font-size:60px;"">+</div>","null","html-keyboard-response","444","635325","0.0-19.0-1.5","fixation","","","","",""
"498.7250000122003","Stimuli/Hangul_M16.bmp","188","image-keyboard-response","445","635825","0.0-19.0-2.5","c2_test",",","","","",","
"159.29500000493135","<p style=""color:white;""> Next Figure: Male or Female? </p>","188","html-keyboard-response","446","635985","0.0-19.0-0.6","prediction","","","",",",""
"null","<div style=""color:white; font-size:60px;"">+</div>","null","html-keyboard-response","447","636986","0.0-19.0-1.6","fixation","","","","",""
"429.54500000632834","Stimuli/Hangul_M17.bmp","188","image-keyboard-response","448","637416","0.0-19.0-2.6","c2_test",",","","","",","
"159.12000001117121","<p style=""color:white;""> Next Figure: Male or Female? </p>","188","html-keyboard-response","449","637576","0.0-19.0-0.7","prediction","","","",",",""
"null","<div style=""color:white; font-size:60px;"">+</div>","null","html-keyboard-response","450","638577","0.0-19.0-1.7","fixation","","","","",""
"390.07999999739695","Stimuli/Hangul_M7.bmp","188","image-keyboard-response","451","638968","0.0-19.0-2.7","c2_test",",","","","",","
"154.20000000449363","<p style=""color:white;""> Next Figure: Male or Female? </p>","188","html-keyboard-response","452","639123","0.0-19.0-0.8","prediction","","","",",",""
"null","<div style=""color:white; font-size:60px;"">+</div>","null","html-keyboard-response","453","640124","0.0-19.0-1.8","fixation","","","","",""
"369.8549999971874","Stimuli/Hangul_F9.bmp","190","image-keyboard-response","454","640495","0.0-19.0-2.8","c2_test",".","","","","."
"146.22500000405125","<p style=""color:white;""> Next Figure: Male or Female? </p>","190","html-keyboard-response","455","640642","0.0-19.0-0.9","prediction","","","",".",""
"null","<div style=""color:white; font-size:60px;"">+</div>","null","html-keyboard-response","456","641644","0.0-19.0-1.9","fixation","","","","",""
"533.2150000031106","Stimuli/Hangul_F12.bmp","188","image-keyboard-response","457","642177","0.0-19.0-2.9","c2_test",".","","","",","
"130.96500000392552","<p style=""color:white;""> Next Figure: Male or Female? </p>","188","html-keyboard-response","458","642309","0.0-19.0-0.10","prediction","","","",",",""
"null","<div style=""color:white; font-size:60px;"">+</div>","null","html-keyboard-response","459","643310","0.0-19.0-1.10","fixation","","","","",""
"409.95999998995103","Stimuli/Hangul_M2.bmp","188","image-keyboard-response","460","643721","0.0-19.0-2.10","c2_test",",","","","",","
"121.88500000047497","<p style=""color:white;""> Next Figure: Male or Female? </p>","188","html-keyboard-response","461","643843","0.0-19.0-0.11","prediction","","","",",",""
"null","<div style=""color:white; font-size:60px;"">+</div>","null","html-keyboard-response","462","644845","0.0-19.0-1.11","fixation","","","","",""
"832.2299999999814","Stimuli/Hangul_F19.bmp","188","image-keyboard-response","463","645677","0.0-19.0-2.11","c2_test",".","","","",","
"133.27999999455642","<p style=""color:white;""> Next Figure: Male or Female? </p>","188","html-keyboard-response","464","645811","0.0-19.0-0.12","prediction","","","",",",""
"null","<div style=""color:white; font-size:60px;"">+</div>","null","html-keyboard-response","465","646812","0.0-19.0-1.12","fixation","","","","",""
"486.6299999994226","Stimuli/Hangul_F23.bmp","188","image-keyboard-response","466","647300","0.0-19.0-2.12","c2_test",".","","","",","
"520.250000001397","<p style=""color:white;""> Next Figure: Male or Female? </p>","190","html-keyboard-response","467","647821","0.0-19.0-0.13","prediction","","","",".",""
"null","<div style=""color:white; font-size:60px;"">+</div>","null","html-keyboard-response","468","648823","0.0-19.0-1.13","fixation","","","","",""
"640.3449999925215","Stimuli/Hangul_F4.bmp","190","image-keyboard-response","469","649464","0.0-19.0-2.13","c2_test",".","","","","."
"117.01000000175554","<p style=""color:white;""> Next Figure: Male or Female? </p>","190","html-keyboard-response","470","649583","0.0-19.0-0.14","prediction","","","",".",""
"null","<div style=""color:white; font-size:60px;"">+</div>","null","html-keyboard-response","471","650585","0.0-19.0-1.14","fixation","","","","",""
"448.59999998880085","Stimuli/Hangul_F7.bmp","188","image-keyboard-response","472","651034","0.0-19.0-2.14","c2_test",".","","","",","
"129.74499999836553","<p style=""color:white;""> Next Figure: Male or Female? </p>","188","html-keyboard-response","473","651164","0.0-19.0-0.15","prediction","","","",",",""
"null","<div style=""color:white; font-size:60px;"">+</div>","null","html-keyboard-response","474","652166","0.0-19.0-1.15","fixation","","","","",""
"420.5550000042422","Stimuli/Hangul_M0.bmp","188","image-keyboard-response","475","652588","0.0-19.0-2.15","c2_test",",","","","",","
"115.31500000273809","<p style=""color:white;""> Next Figure: Male or Female? </p>","188","html-keyboard-response","476","652703","0.0-19.0-0.16","prediction","","","",",",""
"null","<div style=""color:white; font-size:60px;"">+</div>","null","html-keyboard-response","477","653705","0.0-19.0-1.16","fixation","","","","",""
"549.5599999994738","Stimuli/Hangul_M23.bmp","188","image-keyboard-response","478","654255","0.0-19.0-2.16","c2_test",",","","","",","
"129.94500000786502","<p style=""color:white;""> Next Figure: Male or Female? </p>","188","html-keyboard-response","479","654386","0.0-19.0-0.17","prediction","","","",",",""
"null","<div style=""color:white; font-size:60px;"">+</div>","null","html-keyboard-response","480","655387","0.0-19.0-1.17","fixation","","","","",""
"496.04499999259133","Stimuli/Hangul_M22.bmp","188","image-keyboard-response","481","655884","0.0-19.0-2.17","c2_test",",","","","",","
"314.1800000012154","<p style=""color:white;""> Next Figure: Male or Female? </p>","188","html-keyboard-response","482","656199","0.0-19.0-0.18","prediction","","","",",",""
"null","<div style=""color:white; font-size:60px;"">+</div>","null","html-keyboard-response","483","657200","0.0-19.0-1.18","fixation","","","","",""
"706.1899999971502","Stimuli/Hangul_M13.bmp","188","image-keyboard-response","484","657907","0.0-19.0-2.18","c2_test",",","","","",","
"131.1849999910919","<p style=""color:white;""> Next Figure: Male or Female? </p>","188","html-keyboard-response","485","658039","0.0-19.0-0.19","prediction","","","",",",""
"null","<div style=""color:white; font-size:60px;"">+</div>","null","html-keyboard-response","486","659040","0.0-19.0-1.19","fixation","","","","",""
"600.1850000029663","Stimuli/Hangul_M24.bmp","188","image-keyboard-response","487","659641","0.0-19.0-2.19","c2_test",",","","","",","
"116.37500001234002","<p style=""color:white;""> Next Figure: Male or Female? </p>","188","html-keyboard-response","488","659758","0.0-19.0-0.20","prediction","","","",",",""
"null","<div style=""color:white; font-size:60px;"">+</div>","null","html-keyboard-response","489","660760","0.0-19.0-1.20","fixation","","","","",""
"898.7650000053691","Stimuli/Hangul_F22.bmp","188","image-keyboard-response","490","661659","0.0-19.0-2.20","c2_test",".","","","",","
"123.36000001232605","<p style=""color:white;""> Next Figure: Male or Female? </p>","188","html-keyboard-response","491","661783","0.0-19.0-0.21","prediction","","","",",",""
"null","<div style=""color:white; font-size:60px;"">+</div>","null","html-keyboard-response","492","662785","0.0-19.0-1.21","fixation","","","","",""
"597.0150000066496","Stimuli/Hangul_M14.bmp","188","image-keyboard-response","493","663382","0.0-19.0-2.21","c2_test",",","","","",","
"138.36499999160878","<p style=""color:white;""> Next Figure: Male or Female? </p>","188","html-keyboard-response","494","663521","0.0-19.0-0.22","prediction","","","",",",""
"null","<div style=""color:white; font-size:60px;"">+</div>","null","html-keyboard-response","495","664522","0.0-19.0-1.22","fixation","","","","",""
"475.88500000711065","Stimuli/Hangul_F5.bmp","188","image-keyboard-response","496","664999","0.0-19.0-2.22","c2_test",".","","","",","
"134.28500000736676","<p style=""color:white;""> Next Figure: Male or Female? </p>","188","html-keyboard-response","497","665133","0.0-19.0-0.23","prediction","","","",",",""
"null","<div style=""color:white; font-size:60px;"">+</div>","null","html-keyboard-response","498","666135","0.0-19.0-1.23","fixation","","","","",""
"875.3149999974994","Stimuli/Hangul_F15.bmp","188","image-keyboard-response","499","667011","0.0-19.0-2.23","c2_test",".","","","",","
"206.384999997681","<p style=""color:white;""> Next Figure: Male or Female? </p>","190","html-keyboard-response","500","667218","0.0-19.0-0.24","prediction","","","",".",""
"null","<div style=""color:white; font-size:60px;"">+</div>","null","html-keyboard-response","501","668218","0.0-19.0-1.24","fixation","","","","",""
"502.93499999679625","Stimuli/Hangul_F11.bmp","188","image-keyboard-response","502","668722","0.0-19.0-2.24","c2_test",".","","","",","
"113.32999999285676","<p style=""color:white;""> Next Figure: Male or Female? </p>","190","html-keyboard-response","503","668836","0.0-19.0-0.25","prediction","","","",".",""
"null","<div style=""color:white; font-size:60px;"">+</div>","null","html-keyboard-response","504","669837","0.0-19.0-1.25","fixation","","","","",""
"451.85500000661705","Stimuli/Hangul_M10.bmp","188","image-keyboard-response","505","670290","0.0-19.0-2.25","c2_test",",","","","",","
"115.26500000036322","<p style=""color:white;""> Next Figure: Male or Female? </p>","188","html-keyboard-response","506","670406","0.0-19.0-0.26","prediction","","","",",",""
"null","<div style=""color:white; font-size:60px;"">+</div>","null","html-keyboard-response","507","671408","0.0-19.0-1.26","fixation","","","","",""
"1205.6250000023283","Stimuli/Hangul_F20.bmp","188","image-keyboard-response","508","672614","0.0-19.0-2.26","c2_test",".","","","",","
"121.37500000244472","<p style=""color:white;""> Next Figure: Male or Female? </p>","188","html-keyboard-response","509","672736","0.0-19.0-0.27","prediction","","","",",",""
"null","<div style=""color:white; font-size:60px;"">+</div>","null","html-keyboard-response","510","673737","0.0-19.0-1.27","fixation","","","","",""
"594.9749999999767","Stimuli/Hangul_F6.bmp","188","image-keyboard-response","511","674332","0.0-19.0-2.27","c2_test",".","","","",","
"124.46000000636559","<p style=""color:white;""> Next Figure: Male or Female? </p>","188","html-keyboard-response","512","674458","0.0-19.0-0.28","prediction","","","",",",""
"null","<div style=""color:white; font-size:60px;"">+</div>","null","html-keyboard-response","513","675459","0.0-19.0-1.28","fixation","","","","",""
"552.5399999896763","Stimuli/Hangul_M1.bmp","188","image-keyboard-response","514","676013","0.0-19.0-2.28","c2_test",",","","","",","
"146.00500000233296","<p style=""color:white;""> Next Figure: Male or Female? </p>","188","html-keyboard-response","515","676159","0.0-19.0-0.29","prediction","","","",",",""
"null","<div style=""color:white; font-size:60px;"">+</div>","null","html-keyboard-response","516","677161","0.0-19.0-1.29","fixation","","","","",""
"644.0699999948265","Stimuli/Hangul_F10.bmp","190","image-keyboard-response","517","677806","0.0-19.0-2.29","c2_test",".","","","","."
"118.46499999228399","<p style=""color:white;""> Next Figure: Male or Female? </p>","190","html-keyboard-response","518","677925","0.0-19.0-0.30","prediction","","","",".",""
"null","<div style=""color:white; font-size:60px;"">+</div>","null","html-keyboard-response","519","678926","0.0-19.0-1.30","fixation","","","","",""
"556.3050000055227","Stimuli/Hangul_F16.bmp","188","image-keyboard-response","520","679483","0.0-19.0-2.30","c2_test",".","","","",","
"147.4200000084238","<p style=""color:white;""> Next Figure: Male or Female? </p>","188","html-keyboard-response","521","679632","0.0-19.0-0.31","prediction","","","",",",""
"null","<div style=""color:white; font-size:60px;"">+</div>","null","html-keyboard-response","522","680633","0.0-19.0-1.31","fixation","","","","",""
"821.8350000097416","Stimuli/Hangul_M20.bmp","190","image-keyboard-response","523","681456","0.0-19.0-2.31","c2_test",",","","","","."
"155.83999999216758","<p style=""color:white;""> Next Figure: Male or Female? </p>","190","html-keyboard-response","524","681613","0.0-19.0-0.32","prediction","","","",".",""
"null","<div style=""color:white; font-size:60px;"">+</div>","null","html-keyboard-response","525","682615","0.0-19.0-1.32","fixation","","","","",""
"648.2600000017555","Stimuli/Hangul_F0.bmp","188","image-keyboard-response","526","683264","0.0-19.0-2.32","c2_test",".","","","",","
"134.89000000117812","<p style=""color:white;""> Next Figure: Male or Female? </p>","188","html-keyboard-response","527","683400","0.0-19.0-0.33","prediction","","","",",",""
"null","<div style=""color:white; font-size:60px;"">+</div>","null","html-keyboard-response","528","684403","0.0-19.0-1.33","fixation","","","","",""
"1038.139999989653","Stimuli/Hangul_M9.bmp","188","image-keyboard-response","529","685442","0.0-19.0-2.33","c2_test",",","","","",","
"364.15999999735504","<p style=""color:white;""> Next Figure: Male or Female? </p>","190","html-keyboard-response","530","685807","0.0-19.0-0.34","prediction","","","",".",""
"null","<div style=""color:white; font-size:60px;"">+</div>","null","html-keyboard-response","531","686809","0.0-19.0-1.34","fixation","","","","",""
"398.3850000076927","Stimuli/Hangul_M8.bmp","188","image-keyboard-response","532","687208","0.0-19.0-2.34","c2_test",",","","","",","
"318.0199999915203","<p style=""color:white;""> Next Figure: Male or Female? </p>","188","html-keyboard-response","533","687526","0.0-19.0-0.35","prediction","","","",",",""
"null","<div style=""color:white; font-size:60px;"">+</div>","null","html-keyboard-response","534","688528","0.0-19.0-1.35","fixation","","","","",""
"494.78500000259373","Stimuli/Hangul_F2.bmp","188","image-keyboard-response","535","689023","0.0-19.0-2.35","c2_test",".","","","",","
"187.1099999989383","<p style=""color:white;""> Next Figure: Male or Female? </p>","188","html-keyboard-response","536","689211","0.0-19.0-0.36","prediction","","","",",",""
"null","<div style=""color:white; font-size:60px;"">+</div>","null","html-keyboard-response","537","690212","0.0-19.0-1.36","fixation","","","","",""
"530.3249999997206","Stimuli/Hangul_F18.bmp","190","image-keyboard-response","538","690743","0.0-19.0-2.36","c2_test",".","","","","."
"144.2349999997532","<p style=""color:white;""> Next Figure: Male or Female? </p>","190","html-keyboard-response","539","690888","0.0-19.0-0.37","prediction","","","",".",""
"null","<div style=""color:white; font-size:60px;"">+</div>","null","html-keyboard-response","540","691890","0.0-19.0-1.37","fixation","","","","",""
"875.8499999967171","Stimuli/Hangul_M15.bmp","188","image-keyboard-response","541","692767","0.0-19.0-2.37","c2_test",",","","","",","
"145.87999999639578","<p style=""color:white;""> Next Figure: Male or Female? </p>","188","html-keyboard-response","542","692913","0.0-19.0-0.38","prediction","","","",",",""
"null","<div style=""color:white; font-size:60px;"">+</div>","null","html-keyboard-response","543","693915","0.0-19.0-1.38","fixation","","","","",""
"823.3999999938533","Stimuli/Hangul_M19.bmp","188","image-keyboard-response","544","694739","0.0-19.0-2.38","c2_test",",","","","",","
"148.9900000015041","<p style=""color:white;""> Next Figure: Male or Female? </p>","188","html-keyboard-response","545","694889","0.0-19.0-0.39","prediction","","","",",",""
"null","<div style=""color:white; font-size:60px;"">+</div>","null","html-keyboard-response","546","695890","0.0-19.0-1.39","fixation","","","","",""
"584.4850000139559","Stimuli/Hangul_M6.bmp","188","image-keyboard-response","547","696475","0.0-19.0-2.39","c2_test",",","","","",","
"161.20000000228174","<p style=""color:white;""> Next Figure: Male or Female? </p>","188","html-keyboard-response","548","696637","0.0-19.0-0.40","prediction","","","",",",""
"null","<div style=""color:white; font-size:60px;"">+</div>","null","html-keyboard-response","549","697638","0.0-19.0-1.40","fixation","","","","",""
"438.00500000361353","Stimuli/Hangul_F1.bmp","190","image-keyboard-response","550","698077","0.0-19.0-2.40","c2_test",".","","","","."
"151.13499999279156","<p style=""color:white;""> Next Figure: Male or Female? </p>","190","html-keyboard-response","551","698229","0.0-19.0-0.41","prediction","","","",".",""
"null","<div style=""color:white; font-size:60px;"">+</div>","null","html-keyboard-response","552","699231","0.0-19.0-1.41","fixation","","","","",""
"492.43500000739004","Stimuli/Hangul_M5.bmp","188","image-keyboard-response","553","699724","0.0-19.0-2.41","c2_test",",","","","",","
"146.44500000576954","<p style=""color:white;""> Next Figure: Male or Female? </p>","188","html-keyboard-response","554","699871","0.0-19.0-0.42","prediction","","","",",",""
"null","<div style=""color:white; font-size:60px;"">+</div>","null","html-keyboard-response","555","700872","0.0-19.0-1.42","fixation","","","","",""
"628.3100000000559","Stimuli/Hangul_M18.bmp","188","image-keyboard-response","556","701501","0.0-19.0-2.42","c2_test",",","","","",","
"173.21999999694526","<p style=""color:white;""> Next Figure: Male or Female? </p>","188","html-keyboard-response","557","701675","0.0-19.0-0.43","prediction","","","",",",""
"null","<div style=""color:white; font-size:60px;"">+</div>","null","html-keyboard-response","558","702676","0.0-19.0-1.43","fixation","","","","",""
"658.0799999937881","Stimuli/Hangul_F24.bmp","188","image-keyboard-response","559","703334","0.0-19.0-2.43","c2_test",".","","","",","
"140.19499999994878","<p style=""color:white;""> Next Figure: Male or Female? </p>","188","html-keyboard-response","560","703475","0.0-19.0-0.44","prediction","","","",",",""
"null","<div style=""color:white; font-size:60px;"">+</div>","null","html-keyboard-response","561","704476","0.0-19.0-1.44","fixation","","","","",""
"614.3299999966985","Stimuli/Hangul_M4.bmp","188","image-keyboard-response","562","705091","0.0-19.0-2.44","c2_test",",","","","",","
"142.32499999343418","<p style=""color:white;""> Next Figure: Male or Female? </p>","188","html-keyboard-response","563","705234","0.0-19.0-0.45","prediction","","","",",",""
"null","<div style=""color:white; font-size:60px;"">+</div>","null","html-keyboard-response","564","706236","0.0-19.0-1.45","fixation","","","","",""
"462.069999994128","Stimuli/Hangul_F21.bmp","190","image-keyboard-response","565","706698","0.0-19.0-2.45","c2_test",".","","","","."
"131.20499999786261","<p style=""color:white;""> Next Figure: Male or Female? </p>","190","html-keyboard-response","566","706831","0.0-19.0-0.46","prediction","","","",".",""
"null","<div style=""color:white; font-size:60px;"">+</div>","null","html-keyboard-response","567","707832","0.0-19.0-1.46","fixation","","","","",""
"494.8350000049686","Stimuli/Hangul_M12.bmp","188","image-keyboard-response","568","708328","0.0-19.0-2.46","c2_test",",","","","",","
"121.66499999875668","<p style=""color:white;""> Next Figure: Male or Female? </p>","188","html-keyboard-response","569","708450","0.0-19.0-0.47","prediction","","","",",",""
"null","<div style=""color:white; font-size:60px;"">+</div>","null","html-keyboard-response","570","709452","0.0-19.0-1.47","fixation","","","","",""
"563.5200000106124","Stimuli/Hangul_M21.bmp","188","image-keyboard-response","571","710016","0.0-19.0-2.47","c2_test",",","","","",","
"130.40000000910368","<p style=""color:white;""> Next Figure: Male or Female? </p>","188","html-keyboard-response","572","710147","0.0-19.0-0.48","prediction","","","",",",""
"null","<div style=""color:white; font-size:60px;"">+</div>","null","html-keyboard-response","573","711148","0.0-19.0-1.48","fixation","","","","",""
"448.0150000017602","Stimuli/Hangul_F17.bmp","188","image-keyboard-response","574","711597","0.0-19.0-2.48","c2_test",".","","","",","
"132.2599999984959","<p style=""color:white;""> Next Figure: Male or Female? </p>","188","html-keyboard-response","575","711730","0.0-19.0-0.49","prediction","","","",",",""
"null","<div style=""color:white; font-size:60px;"">+</div>","null","html-keyboard-response","576","712731","0.0-19.0-1.49","fixation","","","","",""
"696.7099999892525","Stimuli/Hangul_M3.bmp","188","image-keyboard-response","577","713428","0.0-19.0-2.49","c2_test",",","","","",","
"1056.9249999971362","<p style=""color:white;"">Good job, block 1 complete! Please take a moment to rest.</p> <p style=""color:white;"">When you are ready to continue with block 2 of 4, press the space bar.</p> ","32","html-keyboard-response","578","714486","0.0-20.0","","","","","",""
"194.4400000065798","<p style=""color:white;""> Next Figure: Male or Female? </p>","188","html-keyboard-response","579","716682","0.0-21.0-0.0","prediction","","","",",",""
"null","<div style=""color:white; font-size:60px;"">+</div>","null","html-keyboard-response","580","717683","0.0-21.0-1.0","fixation","","","","",""
"466.5099999983795","Stimuli/Hangul_M43.bmp","188","image-keyboard-response","581","718151","0.0-21.0-2.0","c2_test",",","","","",","
"131.19499999447726","<p style=""color:white;""> Next Figure: Male or Female? </p>","188","html-keyboard-response","582","718282","0.0-21.0-0.1","prediction","","","",",",""
"null","<div style=""color:white; font-size:60px;"">+</div>","null","html-keyboard-response","583","719284","0.0-21.0-1.1","fixation","","","","",""
"386.4800000010291","Stimuli/Hangul_M38.bmp","188","image-keyboard-response","584","719671","0.0-21.0-2.1","c2_test",",","","","",","
"100.85500001150649","<p style=""color:white;""> Next Figure: Male or Female? </p>","188","html-keyboard-response","585","719772","0.0-21.0-0.2","prediction","","","",",",""
"null","<div style=""color:white; font-size:60px;"">+</div>","null","html-keyboard-response","586","720774","0.0-21.0-1.2","fixation","","","","",""
"502.2049999970477","Stimuli/Hangul_F32.bmp","190","image-keyboard-response","587","721277","0.0-21.0-2.2","c2_test",".","","","","."
"117.28999999468215","<p style=""color:white;""> Next Figure: Male or Female? </p>","190","html-keyboard-response","588","721395","0.0-21.0-0.3","prediction","","","",".",""
"null","<div style=""color:white; font-size:60px;"">+</div>","null","html-keyboard-response","589","722396","0.0-21.0-1.3","fixation","","","","",""
"500.8149999921443","Stimuli/Hangul_F42.bmp","190","image-keyboard-response","590","722898","0.0-21.0-2.3","c2_test",".","","","","."
"105.29000000678934","<p style=""color:white;""> Next Figure: Male or Female? </p>","190","html-keyboard-response","591","723004","0.0-21.0-0.4","prediction","","","",".",""
"null","<div style=""color:white; font-size:60px;"">+</div>","null","html-keyboard-response","592","724006","0.0-21.0-1.4","fixation","","","","",""
"441.56500000099186","Stimuli/Hangul_F39.bmp","190","image-keyboard-response","593","724448","0.0-21.0-2.4","c2_test",".","","","","."
"131.3850000005914","<p style=""color:white;""> Next Figure: Male or Female? </p>","190","html-keyboard-response","594","724580","0.0-21.0-0.5","prediction","","","",".",""
"null","<div style=""color:white; font-size:60px;"">+</div>","null","html-keyboard-response","595","725581","0.0-21.0-1.5","fixation","","","","",""
"436.22999999206513","Stimuli/Hangul_M37.bmp","188","image-keyboard-response","596","726018","0.0-21.0-2.5","c2_test",",","","","",","
"317.28499999735504","<p style=""color:white;""> Next Figure: Male or Female? </p>","188","html-keyboard-response","597","726336","0.0-21.0-0.6","prediction","","","",",",""
"null","<div style=""color:white; font-size:60px;"">+</div>","null","html-keyboard-response","598","727338","0.0-21.0-1.6","fixation","","","","",""
"396.72499999869615","Stimuli/Hangul_M32.bmp","188","image-keyboard-response","599","727735","0.0-21.0-2.6","c2_test",",","","","",","
"134.5699999947101","<p style=""color:white;""> Next Figure: Male or Female? </p>","188","html-keyboard-response","600","727870","0.0-21.0-0.7","prediction","","","",",",""
"null","<div style=""color:white; font-size:60px;"">+</div>","null","html-keyboard-response","601","728872","0.0-21.0-1.7","fixation","","","","",""
"431.429999996908","Stimuli/Hangul_F34.bmp","190","image-keyboard-response","602","729304","0.0-21.0-2.7","c2_test",".","","","","."
"112.29000000457745","<p style=""color:white;""> Next Figure: Male or Female? </p>","190","html-keyboard-response","603","729417","0.0-21.0-0.8","prediction","","","",".",""
"null","<div style=""color:white; font-size:60px;"">+</div>","null","html-keyboard-response","604","730419","0.0-21.0-1.8","fixation","","","","",""
"457.04000000841916","Stimuli/Hangul_F30.bmp","190","image-keyboard-response","605","730877","0.0-21.0-2.8","c2_test",".","","","","."
"123.17500000062864","<p style=""color:white;""> Next Figure: Male or Female? </p>","190","html-keyboard-response","606","731000","0.0-21.0-0.9","prediction","","","",".",""
"null","<div style=""color:white; font-size:60px;"">+</div>","null","html-keyboard-response","607","732002","0.0-21.0-1.9","fixation","","","","",""
"528.2900000020163","Stimuli/Hangul_F41.bmp","188","image-keyboard-response","608","732531","0.0-21.0-2.9","c2_test",".","","","",","
"100.31000000890344","<p style=""color:white;""> Next Figure: Male or Female? </p>","188","html-keyboard-response","609","732632","0.0-21.0-0.10","prediction","","","",",",""
"null","<div style=""color:white; font-size:60px;"">+</div>","null","html-keyboard-response","610","733634","0.0-21.0-1.10","fixation","","","","",""
"417.0249999879161","Stimuli/Hangul_M26.bmp","190","image-keyboard-response","611","734052","0.0-21.0-2.10","c2_test",",","","","","."
"244.1850000031991","<p style=""color:white;""> Next Figure: Male or Female? </p>","188","html-keyboard-response","612","734297","0.0-21.0-0.11","prediction","","","",",",""
"null","<div style=""color:white; font-size:60px;"">+</div>","null","html-keyboard-response","613","735298","0.0-21.0-1.11","fixation","","","","",""
"591.870000003837","Stimuli/Hangul_F48.bmp","188","image-keyboard-response","614","735891","0.0-21.0-2.11","c2_test",".","","","",","
"129.22500001150183","<p style=""color:white;""> Next Figure: Male or Female? </p>","190","html-keyboard-response","615","736021","0.0-21.0-0.12","prediction","","","",".",""
"null","<div style=""color:white; font-size:60px;"">+</div>","null","html-keyboard-response","616","737022","0.0-21.0-1.12","fixation","","","","",""
"373.4499999991385","Stimuli/Hangul_F26.bmp","188","image-keyboard-response","617","737396","0.0-21.0-2.12","c2_test",".","","","",","
"110.22999999113381","<p style=""color:white;""> Next Figure: Male or Female? </p>","188","html-keyboard-response","618","737507","0.0-21.0-0.13","prediction","","","",",",""
"null","<div style=""color:white; font-size:60px;"">+</div>","null","html-keyboard-response","619","738508","0.0-21.0-1.13","fixation","","","","",""
"456.9750000082422","Stimuli/Hangul_M27.bmp","188","image-keyboard-response","620","738966","0.0-21.0-2.13","c2_test",",","","","",","
"138.4200000029523","<p style=""color:white;""> Next Figure: Male or Female? </p>","188","html-keyboard-response","621","739105","0.0-21.0-0.14","prediction","","","",",",""
"null","<div style=""color:white; font-size:60px;"">+</div>","null","html-keyboard-response","622","740107","0.0-21.0-1.14","fixation","","","","",""
"551.1350000015227","Stimuli/Hangul_M44.bmp","188","image-keyboard-response","623","740659","0.0-21.0-2.14","c2_test",",","","","",","
"171.01000000548083","<p style=""color:white;""> Next Figure: Male or Female? </p>","188","html-keyboard-response","624","740831","0.0-21.0-0.15","prediction","","","",",",""
"null","<div style=""color:white; font-size:60px;"">+</div>","null","html-keyboard-response","625","741833","0.0-21.0-1.15","fixation","","","","",""
"586.1399999994319","Stimuli/Hangul_M49.bmp","188","image-keyboard-response","626","742420","0.0-21.0-2.15","c2_test",",","","","",","
"259.0550000022631","<p style=""color:white;""> Next Figure: Male or Female? </p>","188","html-keyboard-response","627","742679","0.0-21.0-0.16","prediction","","","",",",""
"null","<div style=""color:white; font-size:60px;"">+</div>","null","html-keyboard-response","628","743680","0.0-21.0-1.16","fixation","","","","",""
"642.3249999934342","Stimuli/Hangul_M28.bmp","188","image-keyboard-response","629","744323","0.0-21.0-2.16","c2_test",",","","","",","
"177.30500000470784","<p style=""color:white;""> Next Figure: Male or Female? </p>","188","html-keyboard-response","630","744501","0.0-21.0-0.17","prediction","","","",",",""
"null","<div style=""color:white; font-size:60px;"">+</div>","null","html-keyboard-response","631","745503","0.0-21.0-1.17","fixation","","","","",""
"575.9450000041397","Stimuli/Hangul_F33.bmp","190","image-keyboard-response","632","746079","0.0-21.0-2.17","c2_test",".","","","","."
"180.71000000054482","<p style=""color:white;""> Next Figure: Male or Female? </p>","190","html-keyboard-response","633","746261","0.0-21.0-0.18","prediction","","","",".",""
"null","<div style=""color:white; font-size:60px;"">+</div>","null","html-keyboard-response","634","747262","0.0-21.0-1.18","fixation","","","","",""
"474.8450000042794","Stimuli/Hangul_M47.bmp","188","image-keyboard-response","635","747738","0.0-21.0-2.18","c2_test",",","","","",","
"158.31500000786036","<p style=""color:white;""> Next Figure: Male or Female? </p>","188","html-keyboard-response","636","747897","0.0-21.0-0.19","prediction","","","",",",""
"null","<div style=""color:white; font-size:60px;"">+</div>","null","html-keyboard-response","637","748898","0.0-21.0-1.19","fixation","","","","",""
"953.6799999914365","Stimuli/Hangul_M33.bmp","188","image-keyboard-response","638","749852","0.0-21.0-2.19","c2_test",",","","","",","
"199.1849999903934","<p style=""color:white;""> Next Figure: Male or Female? </p>","188","html-keyboard-response","639","750052","0.0-21.0-0.20","prediction","","","",",",""
"null","<div style=""color:white; font-size:60px;"">+</div>","null","html-keyboard-response","640","751052","0.0-21.0-1.20","fixation","","","","",""
"930.5849999946076","Stimuli/Hangul_F28.bmp","188","image-keyboard-response","641","751984","0.0-21.0-2.20","c2_test",".","","","",","
"180.76499999733642","<p style=""color:white;""> Next Figure: Male or Female? </p>","190","html-keyboard-response","642","752166","0.0-21.0-0.21","prediction","","","",".",""
"null","<div style=""color:white; font-size:60px;"">+</div>","null","html-keyboard-response","643","753167","0.0-21.0-1.21","fixation","","","","",""
"749.8449999984587","Stimuli/Hangul_M42.bmp","188","image-keyboard-response","644","753918","0.0-21.0-2.21","c2_test",",","","","",","
"222.55999999470077","<p style=""color:white;""> Next Figure: Male or Female? </p>","190","html-keyboard-response","645","754142","0.0-21.0-0.22","prediction","","","",".",""
"null","<div style=""color:white; font-size:60px;"">+</div>","null","html-keyboard-response","646","755143","0.0-21.0-1.22","fixation","","","","",""
"626.5550000098301","Stimuli/Hangul_M36.bmp","188","image-keyboard-response","647","755773","0.0-21.0-2.22","c2_test",",","","","",","
"182.86000000080094","<p style=""color:white;""> Next Figure: Male or Female? </p>","190","html-keyboard-response","648","755956","0.0-21.0-0.23","prediction","","","",".",""
"null","<div style=""color:white; font-size:60px;"">+</div>","null","html-keyboard-response","649","756958","0.0-21.0-1.23","fixation","","","","",""
"700.8650000061607","Stimuli/Hangul_M48.bmp","188","image-keyboard-response","650","757659","0.0-21.0-2.23","c2_test",",","","","",","
"109.26500000641681","<p style=""color:white;""> Next Figure: Male or Female? </p>","188","html-keyboard-response","651","757769","0.0-21.0-0.24","prediction","","","",",",""
"null","<div style=""color:white; font-size:60px;"">+</div>","null","html-keyboard-response","652","758771","0.0-21.0-1.24","fixation","","","","",""
"381.2400000024354","Stimuli/Hangul_F38.bmp","188","image-keyboard-response","653","759153","0.0-21.0-2.24","c2_test",".","","","",","
"140.17999998759478","<p style=""color:white;""> Next Figure: Male or Female? </p>","188","html-keyboard-response","654","759293","0.0-21.0-0.25","prediction","","","",",",""
"null","<div style=""color:white; font-size:60px;"">+</div>","null","html-keyboard-response","655","760295","0.0-21.0-1.25","fixation","","","","",""
"370.80499999865424","Stimuli/Hangul_F47.bmp","188","image-keyboard-response","656","760667","0.0-21.0-2.25","c2_test",".","","","",","
