"rt","stimulus","key_press","trial_type","trial_index","time_elapsed","internal_node_id","test_part","correct_response","C1_train","C1","A","C2"
"2594","<p style=""color:white;"">Welcome to the experiment! Press any key to begin.</p>","32","html-keyboard-response","0","2616","0.0-0.0","","","","","",""
"60628","<p style=""color:white;"">You will see a series of abstract figures. They are adaptations of signs in the Korean alphabet, but that is not important for this study. </p><p style=""color:white;"">Abstract figures sometimes have a more masculine or feminine shape. Here, each figure has already been assigned a gender as <q>Male</q> or <q>Female</q> by a panel of respondents in a pilot study. The respondents were not given specific instructions on how to do this, but were only told to use their intuition and to take into account the entire configuration of the stimulus. </p><p style=""color:white;"">Your task now is to guess the assigned gender of each figure. Please press the corresponding response keys to indicate your choice: </p><p style=""color:white;""> Male &#8594 <q>,</q> (comma)</p><p style=""color:white;""> Female &#8594 <q>.</q> (period)</p><p style=""color:white;"">Press either response keys to continue.</p>","188","html-keyboard-response","1","63259","0.0-1.0","","","","","",""
"8967","<p style=""color:white;"">Your choice is correct if it matches the gender assigned by the majority of respondents in the pilot study.</p> <p style=""color:white;"">For each correct choice you will receive 2 cents. There will be 200 trials divided into 4 blocks of 50 trials. You will be able to take a break after every 50 trials.</p> <p style=""color:white;"">Press the space bar to continue.</p>","32","html-keyboard-response","2","72238","0.0-2.0","","","","","",""
"3623","<p style=""color:white;"">Here are some examples.</p> <p style=""color:white;"">For each, guess whether the assigned figure is male-like or female-like and indicate your choice by pressing either response keys.</p> <p style=""color:white;"">Press the space bar to continue.</p>","32","html-keyboard-response","3","75873","0.0-3.0","","","","","",""
"null","<div style=""color:white; font-size:60px;"">+</div>","null","html-keyboard-response","4","78893","0.0-4.0-0.0","fixation","","","","",""
"2468","Stimuli/Hangul_E1.bmp","188","image-keyboard-response","5","81369","0.0-4.0-1.0","c1_train",",",",","","",""
"null","<div style=""color:white; font-size:60px;"">+</div>","null","html-keyboard-response","6","82394","0.0-4.0-0.1","fixation","","","","",""
"1737","Stimuli/Hangul_E2.bmp","190","image-keyboard-response","7","84146","0.0-4.0-1.1","c1_train",".",".","","",""
"null","<div style=""color:white; font-size:60px;"">+</div>","null","html-keyboard-response","8","85164","0.0-4.0-0.2","fixation","","","","",""
"1620","Stimuli/Hangul_E0.bmp","188","image-keyboard-response","9","86795","0.0-4.0-1.2","c1_train",",",",","","",""
"1610","<p style=""color:white;"">Let us begin! Press the space bar when you are ready to start block 1 of 4.</p> ","32","html-keyboard-response","10","88411","0.0-5.0","","","","","",""
"null","<div style=""color:white; font-size:60px;"">+</div>","null","html-keyboard-response","11","91445","0.0-6.0-0.0","fixation","","","","",""
"2736","Stimuli/Hangul_M8.bmp","188","image-keyboard-response","12","94194","0.0-6.0-1.0","test",",","",",","",""
"null","<div style=""color:white; font-size:60px;"">+</div>","null","html-keyboard-response","13","95203","0.0-6.0-0.1","fixation","","","","",""
"1843","Stimuli/Hangul_F23.bmp","188","image-keyboard-response","14","97056","0.0-6.0-1.1","test",".","",",","",""
"null","<div style=""color:white; font-size:60px;"">+</div>","null","html-keyboard-response","15","98074","0.0-6.0-0.2","fixation","","","","",""
"1829","Stimuli/Hangul_M12.bmp","188","image-keyboard-response","16","99916","0.0-6.0-1.2","test",",","",",","",""
"null","<div style=""color:white; font-size:60px;"">+</div>","null","html-keyboard-response","17","100924","0.0-6.0-0.3","fixation","","","","",""
"1687","Stimuli/Hangul_F8.bmp","190","image-keyboard-response","18","102621","0.0-6.0-1.3","test",".","",".","",""
"null","<div style=""color:white; font-size:60px;"">+</div>","null","html-keyboard-response","19","103639","0.0-6.0-0.4","fixation","","","","",""
"1799","Stimuli/Hangul_M4.bmp","188","image-keyboard-response","20","105450","0.0-6.0-1.4","test",",","",",","",""
"null","<div style=""color:white; font-size:60px;"">+</div>","null","html-keyboard-response","21","106457","0.0-6.0-0.5","fixation","","","","",""
"1539","Stimuli/Hangul_F21.bmp","190","image-keyboard-response","22","108001","0.0-6.0-1.5","test",".","",".","",""
"null","<div style=""color:white; font-size:60px;"">+</div>","null","html-keyboard-response","23","109003","0.0-6.0-0.6","fixation","","","","",""
"1743","Stimuli/Hangul_M10.bmp","188","image-keyboard-response","24","110755","0.0-6.0-1.6","test",",","",",","",""
"null","<div style=""color:white; font-size:60px;"">+</div>","null","html-keyboard-response","25","111764","0.0-6.0-0.7","fixation","","","","",""
"2110","Stimuli/Hangul_F11.bmp","188","image-keyboard-response","26","113886","0.0-6.0-1.7","test",".","",",","",""
"null","<div style=""color:white; font-size:60px;"">+</div>","null","html-keyboard-response","27","114893","0.0-6.0-0.8","fixation","","","","",""
"1766","Stimuli/Hangul_M23.bmp","190","image-keyboard-response","28","116669","0.0-6.0-1.8","test",",","",".","",""
"null","<div style=""color:white; font-size:60px;"">+</div>","null","html-keyboard-response","29","117693","0.0-6.0-0.9","fixation","","","","",""
"2065","Stimuli/Hangul_M24.bmp","190","image-keyboard-response","30","119765","0.0-6.0-1.9","test",",","",".","",""
"null","<div style=""color:white; font-size:60px;"">+</div>","null","html-keyboard-response","31","120773","0.0-6.0-0.10","fixation","","","","",""
"2087","Stimuli/Hangul_F16.bmp","190","image-keyboard-response","32","122871","0.0-6.0-1.10","test",".","",".","",""
"null","<div style=""color:white; font-size:60px;"">+</div>","null","html-keyboard-response","33","123894","0.0-6.0-0.11","fixation","","","","",""
"1839","Stimuli/Hangul_F17.bmp","188","image-keyboard-response","34","125742","0.0-6.0-1.11","test",".","",",","",""
"null","<div style=""color:white; font-size:60px;"">+</div>","null","html-keyboard-response","35","126758","0.0-6.0-0.12","fixation","","","","",""
"1604","Stimuli/Hangul_M5.bmp","190","image-keyboard-response","36","128366","0.0-6.0-1.12","test",",","",".","",""
"null","<div style=""color:white; font-size:60px;"">+</div>","null","html-keyboard-response","37","129375","0.0-6.0-0.13","fixation","","","","",""
"1682","Stimuli/Hangul_M3.bmp","188","image-keyboard-response","38","131061","0.0-6.0-1.13","test",",","",",","",""
"null","<div style=""color:white; font-size:60px;"">+</div>","null","html-keyboard-response","39","132073","0.0-6.0-0.14","fixation","","","","",""
"1435","Stimuli/Hangul_F22.bmp","190","image-keyboard-response","40","133516","0.0-6.0-1.14","test",".","",".","",""
"null","<div style=""color:white; font-size:60px;"">+</div>","null","html-keyboard-response","41","134534","0.0-6.0-0.15","fixation","","","","",""
"1599","Stimuli/Hangul_M11.bmp","190","image-keyboard-response","42","136138","0.0-6.0-1.15","test",",","",".","",""
"null","<div style=""color:white; font-size:60px;"">+</div>","null","html-keyboard-response","43","137154","0.0-6.0-0.16","fixation","","","","",""
"1569","Stimuli/Hangul_F20.bmp","190","image-keyboard-response","44","138733","0.0-6.0-1.16","test",".","",".","",""
"null","<div style=""color:white; font-size:60px;"">+</div>","null","html-keyboard-response","45","139754","0.0-6.0-0.17","fixation","","","","",""
"1713","Stimuli/Hangul_F9.bmp","188","image-keyboard-response","46","141477","0.0-6.0-1.17","test",".","",",","",""
"null","<div style=""color:white; font-size:60px;"">+</div>","null","html-keyboard-response","47","142494","0.0-6.0-0.18","fixation","","","","",""
"2253","Stimuli/Hangul_F13.bmp","188","image-keyboard-response","48","144754","0.0-6.0-1.18","test",".","",",","",""
"null","<div style=""color:white; font-size:60px;"">+</div>","null","html-keyboard-response","49","145773","0.0-6.0-0.19","fixation","","","","",""
"1923","Stimuli/Hangul_M9.bmp","190","image-keyboard-response","50","147702","0.0-6.0-1.19","test",",","",".","",""
"null","<div style=""color:white; font-size:60px;"">+</div>","null","html-keyboard-response","51","148718","0.0-6.0-0.20","fixation","","","","",""
"1751","Stimuli/Hangul_M7.bmp","190","image-keyboard-response","52","150484","0.0-6.0-1.20","test",",","",".","",""
"null","<div style=""color:white; font-size:60px;"">+</div>","null","html-keyboard-response","53","151493","0.0-6.0-0.21","fixation","","","","",""
"1861","Stimuli/Hangul_M0.bmp","190","image-keyboard-response","54","153373","0.0-6.0-1.21","test",",","",".","",""
"null","<div style=""color:white; font-size:60px;"">+</div>","null","html-keyboard-response","55","154389","0.0-6.0-0.22","fixation","","","","",""
"2042","Stimuli/Hangul_F3.bmp","188","image-keyboard-response","56","156439","0.0-6.0-1.22","test",".","",",","",""
"null","<div style=""color:white; font-size:60px;"">+</div>","null","html-keyboard-response","57","157453","0.0-6.0-0.23","fixation","","","","",""
"1747","Stimuli/Hangul_F5.bmp","188","image-keyboard-response","58","159207","0.0-6.0-1.23","test",".","",",","",""
"null","<div style=""color:white; font-size:60px;"">+</div>","null","html-keyboard-response","59","160224","0.0-6.0-0.24","fixation","","","","",""
"3638","Stimuli/Hangul_F7.bmp","190","image-keyboard-response","60","163873","0.0-6.0-1.24","test",".","",".","",""
"null","<div style=""color:white; font-size:60px;"">+</div>","null","html-keyboard-response","61","164893","0.0-6.0-0.25","fixation","","","","",""
"1964","Stimuli/Hangul_F14.bmp","190","image-keyboard-response","62","166873","0.0-6.0-1.25","test",".","",".","",""
"null","<div style=""color:white; font-size:60px;"">+</div>","null","html-keyboard-response","63","167888","0.0-6.0-0.26","fixation","","","","",""
"2860","Stimuli/Hangul_M22.bmp","188","image-keyboard-response","64","170769","0.0-6.0-1.26","test",",","",",","",""
"null","<div style=""color:white; font-size:60px;"">+</div>","null","html-keyboard-response","65","171784","0.0-6.0-0.27","fixation","","","","",""
"1822","Stimuli/Hangul_M21.bmp","190","image-keyboard-response","66","173623","0.0-6.0-1.27","test",",","",".","",""
"null","<div style=""color:white; font-size:60px;"">+</div>","null","html-keyboard-response","67","174644","0.0-6.0-0.28","fixation","","","","",""
"1808","Stimuli/Hangul_F2.bmp","190","image-keyboard-response","68","176463","0.0-6.0-1.28","test",".","",".","",""
"null","<div style=""color:white; font-size:60px;"">+</div>","null","html-keyboard-response","69","177474","0.0-6.0-0.29","fixation","","","","",""
"1716","Stimuli/Hangul_F4.bmp","190","image-keyboard-response","70","179200","0.0-6.0-1.29","test",".","",".","",""
"null","<div style=""color:white; font-size:60px;"">+</div>","null","html-keyboard-response","71","180215","0.0-6.0-0.30","fixation","","","","",""
"1668","Stimuli/Hangul_F19.bmp","190","image-keyboard-response","72","181891","0.0-6.0-1.30","test",".","",".","",""
"null","<div style=""color:white; font-size:60px;"">+</div>","null","html-keyboard-response","73","182914","0.0-6.0-0.31","fixation","","","","",""
"1903","Stimuli/Hangul_F15.bmp","190","image-keyboard-response","74","184824","0.0-6.0-1.31","test",".","",".","",""
"null","<div style=""color:white; font-size:60px;"">+</div>","null","html-keyboard-response","75","185831","0.0-6.0-0.32","fixation","","","","",""
"2141","Stimuli/Hangul_M19.bmp","188","image-keyboard-response","76","187984","0.0-6.0-1.32","test",",","",",","",""
"null","<div style=""color:white; font-size:60px;"">+</div>","null","html-keyboard-response","77","189003","0.0-6.0-0.33","fixation","","","","",""
"1747","Stimuli/Hangul_M16.bmp","188","image-keyboard-response","78","190763","0.0-6.0-1.33","test",",","",",","",""
"null","<div style=""color:white; font-size:60px;"">+</div>","null","html-keyboard-response","79","191786","0.0-6.0-0.34","fixation","","","","",""
"1636","Stimuli/Hangul_F10.bmp","190","image-keyboard-response","80","193436","0.0-6.0-1.34","test",".","",".","",""
"null","<div style=""color:white; font-size:60px;"">+</div>","null","html-keyboard-response","81","194470","0.0-6.0-0.35","fixation","","","","",""
"1658","Stimuli/Hangul_M18.bmp","188","image-keyboard-response","82","196132","0.0-6.0-1.35","test",",","",",","",""
"null","<div style=""color:white; font-size:60px;"">+</div>","null","html-keyboard-response","83","197144","0.0-6.0-0.36","fixation","","","","",""
"2404","Stimuli/Hangul_M6.bmp","190","image-keyboard-response","84","199559","0.0-6.0-1.36","test",",","",".","",""
"null","<div style=""color:white; font-size:60px;"">+</div>","null","html-keyboard-response","85","200583","0.0-6.0-0.37","fixation","","","","",""
"1696","Stimuli/Hangul_F12.bmp","190","image-keyboard-response","86","202288","0.0-6.0-1.37","test",".","",".","",""
"null","<div style=""color:white; font-size:60px;"">+</div>","null","html-keyboard-response","87","203304","0.0-6.0-0.38","fixation","","","","",""
"2057","Stimuli/Hangul_F24.bmp","188","image-keyboard-response","88","205371","0.0-6.0-1.38","test",".","",",","",""
"null","<div style=""color:white; font-size:60px;"">+</div>","null","html-keyboard-response","89","206394","0.0-6.0-0.39","fixation","","","","",""
"2231","Stimuli/Hangul_F1.bmp","190","image-keyboard-response","90","208633","0.0-6.0-1.39","test",".","",".","",""
"null","<div style=""color:white; font-size:60px;"">+</div>","null","html-keyboard-response","91","209655","0.0-6.0-0.40","fixation","","","","",""
"2652","Stimuli/Hangul_M17.bmp","190","image-keyboard-response","92","212312","0.0-6.0-1.40","test",",","",".","",""
"null","<div style=""color:white; font-size:60px;"">+</div>","null","html-keyboard-response","93","213333","0.0-6.0-0.41","fixation","","","","",""
"2865","Stimuli/Hangul_M14.bmp","188","image-keyboard-response","94","216208","0.0-6.0-1.41","test",",","",",","",""
"null","<div style=""color:white; font-size:60px;"">+</div>","null","html-keyboard-response","95","217215","0.0-6.0-0.42","fixation","","","","",""
"2044","Stimuli/Hangul_M2.bmp","188","image-keyboard-response","96","219268","0.0-6.0-1.42","test",",","",",","",""
"null","<div style=""color:white; font-size:60px;"">+</div>","null","html-keyboard-response","97","220283","0.0-6.0-0.43","fixation","","","","",""
"2774","Stimuli/Hangul_F18.bmp","190","image-keyboard-response","98","223071","0.0-6.0-1.43","test",".","",".","",""
"null","<div style=""color:white; font-size:60px;"">+</div>","null","html-keyboard-response","99","224090","0.0-6.0-0.44","fixation","","","","",""
"3272","Stimuli/Hangul_F6.bmp","190","image-keyboard-response","100","227394","0.0-6.0-1.44","test",".","",".","",""
"null","<div style=""color:white; font-size:60px;"">+</div>","null","html-keyboard-response","101","228415","0.0-6.0-0.45","fixation","","","","",""
"2154","Stimuli/Hangul_F0.bmp","190","image-keyboard-response","102","230594","0.0-6.0-1.45","test",".","",".","",""
"null","<div style=""color:white; font-size:60px;"">+</div>","null","html-keyboard-response","103","231598","0.0-6.0-0.46","fixation","","","","",""
"1820","Stimuli/Hangul_M13.bmp","190","image-keyboard-response","104","233427","0.0-6.0-1.46","test",",","",".","",""
"null","<div style=""color:white; font-size:60px;"">+</div>","null","html-keyboard-response","105","234444","0.0-6.0-0.47","fixation","","","","",""
"1711","Stimuli/Hangul_M1.bmp","190","image-keyboard-response","106","236168","0.0-6.0-1.47","test",",","",".","",""
"null","<div style=""color:white; font-size:60px;"">+</div>","null","html-keyboard-response","107","237184","0.0-6.0-0.48","fixation","","","","",""
"2708","Stimuli/Hangul_M15.bmp","190","image-keyboard-response","108","239906","0.0-6.0-1.48","test",",","",".","",""
"null","<div style=""color:white; font-size:60px;"">+</div>","null","html-keyboard-response","109","240934","0.0-6.0-0.49","fixation","","","","",""
"2098","Stimuli/Hangul_M20.bmp","188","image-keyboard-response","110","243047","0.0-6.0-1.49","test",",","",",","",""
"12896","<p style=""color:white;"">Good job, block 1 complete! Please take a moment to rest.</p> <p style=""color:white;"">When you are ready to continue with block 2 of 4, press the space bar.</p> ","32","html-keyboard-response","111","255950","0.0-7.0","","","","","",""
"null","<div style=""color:white; font-size:60px;"">+</div>","null","html-keyboard-response","112","258965","0.0-8.0-0.0","fixation","","","","",""
"2131","Stimuli/Hangul_F34.bmp","190","image-keyboard-response","113","261104","0.0-8.0-1.0","test",".","",".","",""
"null","<div style=""color:white; font-size:60px;"">+</div>","null","html-keyboard-response","114","262123","0.0-8.0-0.1","fixation","","","","",""
"1445","Stimuli/Hangul_M35.bmp","190","image-keyboard-response","115","263578","0.0-8.0-1.1","test",",","",".","",""
"null","<div style=""color:white; font-size:60px;"">+</div>","null","html-keyboard-response","116","264595","0.0-8.0-0.2","fixation","","","","",""
"1740","Stimuli/Hangul_M36.bmp","190","image-keyboard-response","117","266345","0.0-8.0-1.2","test",",","",".","",""
"null","<div style=""color:white; font-size:60px;"">+</div>","null","html-keyboard-response","118","267351","0.0-8.0-0.3","fixation","","","","",""
"1668","Stimuli/Hangul_F29.bmp","190","image-keyboard-response","119","269022","0.0-8.0-1.3","test",".","",".","",""
"null","<div style=""color:white; font-size:60px;"">+</div>","null","html-keyboard-response","120","270042","0.0-8.0-0.4","fixation","","","","",""
"1661","Stimuli/Hangul_M43.bmp","190","image-keyboard-response","121","271728","0.0-8.0-1.4","test",",","",".","",""
"null","<div style=""color:white; font-size:60px;"">+</div>","null","html-keyboard-response","122","272743","0.0-8.0-0.5","fixation","","","","",""
"2834","Stimuli/Hangul_M42.bmp","188","image-keyboard-response","123","275583","0.0-8.0-1.5","test",",","",",","",""
"null","<div style=""color:white; font-size:60px;"">+</div>","null","html-keyboard-response","124","276596","0.0-8.0-0.6","fixation","","","","",""
"1736","Stimuli/Hangul_M32.bmp","190","image-keyboard-response","125","278340","0.0-8.0-1.6","test",",","",".","",""
"null","<div style=""color:white; font-size:60px;"">+</div>","null","html-keyboard-response","126","279356","0.0-8.0-0.7","fixation","","","","",""
"1643","Stimuli/Hangul_F39.bmp","190","image-keyboard-response","127","281015","0.0-8.0-1.7","test",".","",".","",""
"null","<div style=""color:white; font-size:60px;"">+</div>","null","html-keyboard-response","128","282033","0.0-8.0-0.8","fixation","","","","",""
"1793","Stimuli/Hangul_M26.bmp","190","image-keyboard-response","129","283831","0.0-8.0-1.8","test",",","",".","",""
"null","<div style=""color:white; font-size:60px;"">+</div>","null","html-keyboard-response","130","284855","0.0-8.0-0.9","fixation","","","","",""
"1822","Stimuli/Hangul_F35.bmp","190","image-keyboard-response","131","286689","0.0-8.0-1.9","test",".","",".","",""
"null","<div style=""color:white; font-size:60px;"">+</div>","null","html-keyboard-response","132","287698","0.0-8.0-0.10","fixation","","","","",""
"2232","Stimuli/Hangul_F48.bmp","190","image-keyboard-response","133","289940","0.0-8.0-1.10","test",".","",".","",""
"null","<div style=""color:white; font-size:60px;"">+</div>","null","html-keyboard-response","134","290954","0.0-8.0-0.11","fixation","","","","",""
"3262","Stimuli/Hangul_M44.bmp","190","image-keyboard-response","135","294226","0.0-8.0-1.11","test",",","",".","",""
"null","<div style=""color:white; font-size:60px;"">+</div>","null","html-keyboard-response","136","295248","0.0-8.0-0.12","fixation","","","","",""
"2144","Stimuli/Hangul_F49.bmp","188","image-keyboard-response","137","297398","0.0-8.0-1.12","test",".","",",","",""
"null","<div style=""color:white; font-size:60px;"">+</div>","null","html-keyboard-response","138","298415","0.0-8.0-0.13","fixation","","","","",""
"1676","Stimuli/Hangul_F28.bmp","190","image-keyboard-response","139","300102","0.0-8.0-1.13","test",".","",".","",""
"null","<div style=""color:white; font-size:60px;"">+</div>","null","html-keyboard-response","140","301113","0.0-8.0-0.14","fixation","","","","",""
"1711","Stimuli/Hangul_F33.bmp","190","image-keyboard-response","141","302831","0.0-8.0-1.14","test",".","",".","",""
"null","<div style=""color:white; font-size:60px;"">+</div>","null","html-keyboard-response","142","303854","0.0-8.0-0.15","fixation","","","","",""
"1752","Stimuli/Hangul_F40.bmp","190","image-keyboard-response","143","305619","0.0-8.0-1.15","test",".","",".","",""
"null","<div style=""color:white; font-size:60px;"">+</div>","null","html-keyboard-response","144","306633","0.0-8.0-0.16","fixation","","","","",""
"1658","Stimuli/Hangul_F32.bmp","190","image-keyboard-response","145","308301","0.0-8.0-1.16","test",".","",".","",""
"null","<div style=""color:white; font-size:60px;"">+</div>","null","html-keyboard-response","146","309305","0.0-8.0-0.17","fixation","","","","",""
"1951","Stimuli/Hangul_F38.bmp","190","image-keyboard-response","147","311270","0.0-8.0-1.17","test",".","",".","",""
"null","<div style=""color:white; font-size:60px;"">+</div>","null","html-keyboard-response","148","312294","0.0-8.0-0.18","fixation","","","","",""
"1734","Stimuli/Hangul_F31.bmp","190","image-keyboard-response","149","314038","0.0-8.0-1.18","test",".","",".","",""
"null","<div style=""color:white; font-size:60px;"">+</div>","null","html-keyboard-response","150","315065","0.0-8.0-0.19","fixation","","","","",""
"2939","Stimuli/Hangul_M25.bmp","188","image-keyboard-response","151","318021","0.0-8.0-1.19","test",",","",",","",""
"null","<div style=""color:white; font-size:60px;"">+</div>","null","html-keyboard-response","152","319035","0.0-8.0-0.20","fixation","","","","",""
"1936","Stimuli/Hangul_M27.bmp","190","image-keyboard-response","153","320985","0.0-8.0-1.20","test",",","",".","",""
"null","<div style=""color:white; font-size:60px;"">+</div>","null","html-keyboard-response","154","321994","0.0-8.0-0.21","fixation","","","","",""
"2084","Stimuli/Hangul_M48.bmp","188","image-keyboard-response","155","324085","0.0-8.0-1.21","test",",","",",","",""
"null","<div style=""color:white; font-size:60px;"">+</div>","null","html-keyboard-response","156","325094","0.0-8.0-0.22","fixation","","","","",""
"1622","Stimuli/Hangul_F44.bmp","190","image-keyboard-response","157","326726","0.0-8.0-1.22","test",".","",".","",""
"null","<div style=""color:white; font-size:60px;"">+</div>","null","html-keyboard-response","158","327728","0.0-8.0-0.23","fixation","","","","",""
"1914","Stimuli/Hangul_F47.bmp","190","image-keyboard-response","159","329649","0.0-8.0-1.23","test",".","",".","",""
"null","<div style=""color:white; font-size:60px;"">+</div>","null","html-keyboard-response","160","330664","0.0-8.0-0.24","fixation","","","","",""
"1878","Stimuli/Hangul_M41.bmp","188","image-keyboard-response","161","332554","0.0-8.0-1.24","test",",","",",","",""
"null","<div style=""color:white; font-size:60px;"">+</div>","null","html-keyboard-response","162","333574","0.0-8.0-0.25","fixation","","","","",""
"1944","Stimuli/Hangul_M33.bmp","190","image-keyboard-response","163","335528","0.0-8.0-1.25","test",",","",".","",""
"null","<div style=""color:white; font-size:60px;"">+</div>","null","html-keyboard-response","164","336534","0.0-8.0-0.26","fixation","","","","",""
"2839","Stimuli/Hangul_M49.bmp","188","image-keyboard-response","165","339385","0.0-8.0-1.26","test",",","",",","",""
"null","<div style=""color:white; font-size:60px;"">+</div>","null","html-keyboard-response","166","340405","0.0-8.0-0.27","fixation","","","","",""
"1815","Stimuli/Hangul_F46.bmp","188","image-keyboard-response","167","342228","0.0-8.0-1.27","test",".","",",","",""
"null","<div style=""color:white; font-size:60px;"">+</div>","null","html-keyboard-response","168","343239","0.0-8.0-0.28","fixation","","","","",""
"1665","Stimuli/Hangul_F37.bmp","190","image-keyboard-response","169","344914","0.0-8.0-1.28","test",".","",".","",""
"null","<div style=""color:white; font-size:60px;"">+</div>","null","html-keyboard-response","170","345924","0.0-8.0-0.29","fixation","","","","",""
"1768","Stimuli/Hangul_F26.bmp","188","image-keyboard-response","171","347701","0.0-8.0-1.29","test",".","",",","",""
"null","<div style=""color:white; font-size:60px;"">+</div>","null","html-keyboard-response","172","348738","0.0-8.0-0.30","fixation","","","","",""
"1648","Stimuli/Hangul_F45.bmp","190","image-keyboard-response","173","350391","0.0-8.0-1.30","test",".","",".","",""
"null","<div style=""color:white; font-size:60px;"">+</div>","null","html-keyboard-response","174","351414","0.0-8.0-0.31","fixation","","","","",""
"1709","Stimuli/Hangul_M38.bmp","190","image-keyboard-response","175","353135","0.0-8.0-1.31","test",",","",".","",""
"null","<div style=""color:white; font-size:60px;"">+</div>","null","html-keyboard-response","176","354155","0.0-8.0-0.32","fixation","","","","",""
"1814","Stimuli/Hangul_M39.bmp","190","image-keyboard-response","177","355980","0.0-8.0-1.32","test",",","",".","",""
"null","<div style=""color:white; font-size:60px;"">+</div>","null","html-keyboard-response","178","356984","0.0-8.0-0.33","fixation","","","","",""
"1867","Stimuli/Hangul_M37.bmp","190","image-keyboard-response","179","358857","0.0-8.0-1.33","test",",","",".","",""
"null","<div style=""color:white; font-size:60px;"">+</div>","null","html-keyboard-response","180","359874","0.0-8.0-0.34","fixation","","","","",""
"1644","Stimuli/Hangul_M31.bmp","190","image-keyboard-response","181","361530","0.0-8.0-1.34","test",",","",".","",""
"null","<div style=""color:white; font-size:60px;"">+</div>","null","html-keyboard-response","182","362544","0.0-8.0-0.35","fixation","","","","",""
"1892","Stimuli/Hangul_M46.bmp","188","image-keyboard-response","183","364446","0.0-8.0-1.35","test",",","",",","",""
"null","<div style=""color:white; font-size:60px;"">+</div>","null","html-keyboard-response","184","365463","0.0-8.0-0.36","fixation","","","","",""
"1598","Stimuli/Hangul_F27.bmp","190","image-keyboard-response","185","367073","0.0-8.0-1.36","test",".","",".","",""
"null","<div style=""color:white; font-size:60px;"">+</div>","null","html-keyboard-response","186","368094","0.0-8.0-0.37","fixation","","","","",""
"1623","Stimuli/Hangul_M34.bmp","190","image-keyboard-response","187","369725","0.0-8.0-1.37","test",",","",".","",""
"null","<div style=""color:white; font-size:60px;"">+</div>","null","html-keyboard-response","188","370743","0.0-8.0-0.38","fixation","","","","",""
"1579","Stimuli/Hangul_F41.bmp","190","image-keyboard-response","189","372324","0.0-8.0-1.38","test",".","",".","",""
"null","<div style=""color:white; font-size:60px;"">+</div>","null","html-keyboard-response","190","373343","0.0-8.0-0.39","fixation","","","","",""
"2006","Stimuli/Hangul_M28.bmp","188","image-keyboard-response","191","375352","0.0-8.0-1.39","test",",","",",","",""
"null","<div style=""color:white; font-size:60px;"">+</div>","null","html-keyboard-response","192","376364","0.0-8.0-0.40","fixation","","","","",""
"1676","Stimuli/Hangul_F43.bmp","190","image-keyboard-response","193","378044","0.0-8.0-1.40","test",".","",".","",""
"null","<div style=""color:white; font-size:60px;"">+</div>","null","html-keyboard-response","194","379054","0.0-8.0-0.41","fixation","","","","",""
"1777","Stimuli/Hangul_F42.bmp","190","image-keyboard-response","195","380835","0.0-8.0-1.41","test",".","",".","",""
"null","<div style=""color:white; font-size:60px;"">+</div>","null","html-keyboard-response","196","381843","0.0-8.0-0.42","fixation","","","","",""
"1754","Stimuli/Hangul_F30.bmp","190","image-keyboard-response","197","383600","0.0-8.0-1.42","test",".","",".","",""
"null","<div style=""color:white; font-size:60px;"">+</div>","null","html-keyboard-response","198","384613","0.0-8.0-0.43","fixation","","","","",""
"1883","Stimuli/Hangul_M40.bmp","190","image-keyboard-response","199","386509","0.0-8.0-1.43","test",",","",".","",""
"null","<div style=""color:white; font-size:60px;"">+</div>","null","html-keyboard-response","200","387522","0.0-8.0-0.44","fixation","","","","",""
"1831","Stimuli/Hangul_M47.bmp","188","image-keyboard-response","201","389359","0.0-8.0-1.44","test",",","",",","",""
"null","<div style=""color:white; font-size:60px;"">+</div>","null","html-keyboard-response","202","390374","0.0-8.0-0.45","fixation","","","","",""
"1851","Stimuli/Hangul_M30.bmp","188","image-keyboard-response","203","392233","0.0-8.0-1.45","test",",","",",","",""
"null","<div style=""color:white; font-size:60px;"">+</div>","null","html-keyboard-response","204","393253","0.0-8.0-0.46","fixation","","","","",""
"1947","Stimuli/Hangul_F36.bmp","188","image-keyboard-response","205","395204","0.0-8.0-1.46","test",".","",",","",""
"null","<div style=""color:white; font-size:60px;"">+</div>","null","html-keyboard-response","206","396214","0.0-8.0-0.47","fixation","","","","",""
"1903","Stimuli/Hangul_M29.bmp","190","image-keyboard-response","207","398128","0.0-8.0-1.47","test",",","",".","",""
"null","<div style=""color:white; font-size:60px;"">+</div>","null","html-keyboard-response","208","399133","0.0-8.0-0.48","fixation","","","","",""
"1652","Stimuli/Hangul_F25.bmp","188","image-keyboard-response","209","400797","0.0-8.0-1.48","test",".","",",","",""
"null","<div style=""color:white; font-size:60px;"">+</div>","null","html-keyboard-response","210","401811","0.0-8.0-0.49","fixation","","","","",""
"1842","Stimuli/Hangul_M45.bmp","188","image-keyboard-response","211","403665","0.0-8.0-1.49","test",",","",",","",""
"55279","<p style=""color:white;"">Half way there! Please take a moment to rest.</p> <p style=""color:white;"">When you are ready to continue with block 3 of 4, press the space bar.</p> ","32","html-keyboard-response","212","458952","0.0-9.0","","","","","",""
"null","<div style=""color:white; font-size:60px;"">+</div>","null","html-keyboard-response","213","461976","0.0-10.0-0.0","fixation","","","","",""
"2142","Stimuli/Hangul_F51.bmp","190","image-keyboard-response","214","464153","0.0-10.0-1.0","test",".","",".","",""
"null","<div style=""color:white; font-size:60px;"">+</div>","null","html-keyboard-response","215","465178","0.0-10.0-0.1","fixation","","","","",""
"1586","Stimuli/Hangul_F66.bmp","190","image-keyboard-response","216","466775","0.0-10.0-1.1","test",".","",".","",""
"null","<div style=""color:white; font-size:60px;"">+</div>","null","html-keyboard-response","217","467786","0.0-10.0-0.2","fixation","","","","",""
"1858","Stimuli/Hangul_M70.bmp","190","image-keyboard-response","218","469658","0.0-10.0-1.2","test",",","",".","",""
"null","<div style=""color:white; font-size:60px;"">+</div>","null","html-keyboard-response","219","470675","0.0-10.0-0.3","fixation","","","","",""
"2934","Stimuli/Hangul_F56.bmp","190","image-keyboard-response","220","473628","0.0-10.0-1.3","test",".","",".","",""
"null","<div style=""color:white; font-size:60px;"">+</div>","null","html-keyboard-response","221","474654","0.0-10.0-0.4","fixation","","","","",""
"1852","Stimuli/Hangul_F74.bmp","190","image-keyboard-response","222","476516","0.0-10.0-1.4","test",".","",".","",""
"null","<div style=""color:white; font-size:60px;"">+</div>","null","html-keyboard-response","223","477534","0.0-10.0-0.5","fixation","","","","",""
"1613","Stimuli/Hangul_M51.bmp","190","image-keyboard-response","224","479152","0.0-10.0-1.5","test",",","",".","",""
"null","<div style=""color:white; font-size:60px;"">+</div>","null","html-keyboard-response","225","480174","0.0-10.0-0.6","fixation","","","","",""
"2042","Stimuli/Hangul_M66.bmp","190","image-keyboard-response","226","482220","0.0-10.0-1.6","test",",","",".","",""
"null","<div style=""color:white; font-size:60px;"">+</div>","null","html-keyboard-response","227","483233","0.0-10.0-0.7","fixation","","","","",""
"2133","Stimuli/Hangul_F65.bmp","190","image-keyboard-response","228","485370","0.0-10.0-1.7","test",".","",".","",""
"null","<div style=""color:white; font-size:60px;"">+</div>","null","html-keyboard-response","229","486383","0.0-10.0-0.8","fixation","","","","",""
"1646","Stimuli/Hangul_F73.bmp","190","image-keyboard-response","230","488038","0.0-10.0-1.8","test",".","",".","",""
"null","<div style=""color:white; font-size:60px;"">+</div>","null","html-keyboard-response","231","489065","0.0-10.0-0.9","fixation","","","","",""
"1974","Stimuli/Hangul_F72.bmp","190","image-keyboard-response","232","491051","0.0-10.0-1.9","test",".","",".","",""
"null","<div style=""color:white; font-size:60px;"">+</div>","null","html-keyboard-response","233","492074","0.0-10.0-0.10","fixation","","","","",""
"2643","Stimuli/Hangul_M69.bmp","190","image-keyboard-response","234","494732","0.0-10.0-1.10","test",",","",".","",""
"null","<div style=""color:white; font-size:60px;"">+</div>","null","html-keyboard-response","235","495754","0.0-10.0-0.11","fixation","","","","",""
"2368","Stimuli/Hangul_F53.bmp","188","image-keyboard-response","236","498130","0.0-10.0-1.11","test",".","",",","",""
"null","<div style=""color:white; font-size:60px;"">+</div>","null","html-keyboard-response","237","499154","0.0-10.0-0.12","fixation","","","","",""
"1750","Stimuli/Hangul_F71.bmp","190","image-keyboard-response","238","500913","0.0-10.0-1.12","test",".","",".","",""
"null","<div style=""color:white; font-size:60px;"">+</div>","null","html-keyboard-response","239","501924","0.0-10.0-0.13","fixation","","","","",""
"1696","Stimuli/Hangul_M54.bmp","188","image-keyboard-response","240","503627","0.0-10.0-1.13","test",",","",",","",""
"null","<div style=""color:white; font-size:60px;"">+</div>","null","html-keyboard-response","241","504643","0.0-10.0-0.14","fixation","","","","",""
"1576","Stimuli/Hangul_F54.bmp","188","image-keyboard-response","242","506230","0.0-10.0-1.14","test",".","",",","",""
"null","<div style=""color:white; font-size:60px;"">+</div>","null","html-keyboard-response","243","507282","0.0-10.0-0.15","fixation","","","","",""
"2428","Stimuli/Hangul_M74.bmp","188","image-keyboard-response","244","509721","0.0-10.0-1.15","test",",","",",","",""
"null","<div style=""color:white; font-size:60px;"">+</div>","null","html-keyboard-response","245","510740","0.0-10.0-0.16","fixation","","","","",""
"1692","Stimuli/Hangul_F69.bmp","190","image-keyboard-response","246","512444","0.0-10.0-1.16","test",".","",".","",""
"null","<div style=""color:white; font-size:60px;"">+</div>","null","html-keyboard-response","247","513460","0.0-10.0-0.17","fixation","","","","",""
"2269","Stimuli/Hangul_F63.bmp","188","image-keyboard-response","248","515741","0.0-10.0-1.17","test",".","",",","",""
"null","<div style=""color:white; font-size:60px;"">+</div>","null","html-keyboard-response","249","516754","0.0-10.0-0.18","fixation","","","","",""
"1862","Stimuli/Hangul_M60.bmp","188","image-keyboard-response","250","518628","0.0-10.0-1.18","test",",","",",","",""
"null","<div style=""color:white; font-size:60px;"">+</div>","null","html-keyboard-response","251","519645","0.0-10.0-0.19","fixation","","","","",""
"1594","Stimuli/Hangul_F67.bmp","188","image-keyboard-response","252","521253","0.0-10.0-1.19","test",".","",",","",""
"null","<div style=""color:white; font-size:60px;"">+</div>","null","html-keyboard-response","253","522267","0.0-10.0-0.20","fixation","","","","",""
"1735","Stimuli/Hangul_F64.bmp","190","image-keyboard-response","254","524024","0.0-10.0-1.20","test",".","",".","",""
"null","<div style=""color:white; font-size:60px;"">+</div>","null","html-keyboard-response","255","525044","0.0-10.0-0.21","fixation","","","","",""
"1839","Stimuli/Hangul_F59.bmp","190","image-keyboard-response","256","526897","0.0-10.0-1.21","test",".","",".","",""
"null","<div style=""color:white; font-size:60px;"">+</div>","null","html-keyboard-response","257","527915","0.0-10.0-0.22","fixation","","","","",""
"1910","Stimuli/Hangul_M63.bmp","190","image-keyboard-response","258","529836","0.0-10.0-1.22","test",",","",".","",""
"null","<div style=""color:white; font-size:60px;"">+</div>","null","html-keyboard-response","259","530865","0.0-10.0-0.23","fixation","","","","",""
"1814","Stimuli/Hangul_M57.bmp","190","image-keyboard-response","260","532690","0.0-10.0-1.23","test",",","",".","",""
"null","<div style=""color:white; font-size:60px;"">+</div>","null","html-keyboard-response","261","533715","0.0-10.0-0.24","fixation","","","","",""
"1624","Stimuli/Hangul_M71.bmp","188","image-keyboard-response","262","535345","0.0-10.0-1.24","test",",","",",","",""
"null","<div style=""color:white; font-size:60px;"">+</div>","null","html-keyboard-response","263","536354","0.0-10.0-0.25","fixation","","","","",""
"1686","Stimuli/Hangul_M73.bmp","188","image-keyboard-response","264","538056","0.0-10.0-1.25","test",",","",",","",""
"null","<div style=""color:white; font-size:60px;"">+</div>","null","html-keyboard-response","265","539063","0.0-10.0-0.26","fixation","","","","",""
"1615","Stimuli/Hangul_M53.bmp","188","image-keyboard-response","266","540681","0.0-10.0-1.26","test",",","",",","",""
"null","<div style=""color:white; font-size:60px;"">+</div>","null","html-keyboard-response","267","541705","0.0-10.0-0.27","fixation","","","","",""
"2494","Stimuli/Hangul_M55.bmp","188","image-keyboard-response","268","544209","0.0-10.0-1.27","test",",","",",","",""
"null","<div style=""color:white; font-size:60px;"">+</div>","null","html-keyboard-response","269","545228","0.0-10.0-0.28","fixation","","","","",""
"2905","Stimuli/Hangul_M65.bmp","188","image-keyboard-response","270","548137","0.0-10.0-1.28","test",",","",",","",""
"null","<div style=""color:white; font-size:60px;"">+</div>","null","html-keyboard-response","271","549153","0.0-10.0-0.29","fixation","","","","",""
"1683","Stimuli/Hangul_F68.bmp","190","image-keyboard-response","272","550846","0.0-10.0-1.29","test",".","",".","",""
"null","<div style=""color:white; font-size:60px;"">+</div>","null","html-keyboard-response","273","551864","0.0-10.0-0.30","fixation","","","","",""
"2805","Stimuli/Hangul_M58.bmp","188","image-keyboard-response","274","554679","0.0-10.0-1.30","test",",","",",","",""
"null","<div style=""color:white; font-size:60px;"">+</div>","null","html-keyboard-response","275","555701","0.0-10.0-0.31","fixation","","","","",""
"1907","Stimuli/Hangul_M50.bmp","190","image-keyboard-response","276","557615","0.0-10.0-1.31","test",",","",".","",""
"null","<div style=""color:white; font-size:60px;"">+</div>","null","html-keyboard-response","277","558636","0.0-10.0-0.32","fixation","","","","",""
"1814","Stimuli/Hangul_F62.bmp","188","image-keyboard-response","278","560459","0.0-10.0-1.32","test",".","",",","",""
"null","<div style=""color:white; font-size:60px;"">+</div>","null","html-keyboard-response","279","561475","0.0-10.0-0.33","fixation","","","","",""
"1707","Stimuli/Hangul_M62.bmp","188","image-keyboard-response","280","563195","0.0-10.0-1.33","test",",","",",","",""
"null","<div style=""color:white; font-size:60px;"">+</div>","null","html-keyboard-response","281","564213","0.0-10.0-0.34","fixation","","","","",""
"1954","Stimuli/Hangul_F57.bmp","190","image-keyboard-response","282","566173","0.0-10.0-1.34","test",".","",".","",""
"null","<div style=""color:white; font-size:60px;"">+</div>","null","html-keyboard-response","283","567176","0.0-10.0-0.35","fixation","","","","",""
"1705","Stimuli/Hangul_F50.bmp","188","image-keyboard-response","284","568887","0.0-10.0-1.35","test",".","",",","",""
"null","<div style=""color:white; font-size:60px;"">+</div>","null","html-keyboard-response","285","569900","0.0-10.0-0.36","fixation","","","","",""
"1670","Stimuli/Hangul_F55.bmp","188","image-keyboard-response","286","571576","0.0-10.0-1.36","test",".","",",","",""
"null","<div style=""color:white; font-size:60px;"">+</div>","null","html-keyboard-response","287","572594","0.0-10.0-0.37","fixation","","","","",""
"1769","Stimuli/Hangul_M67.bmp","190","image-keyboard-response","288","574378","0.0-10.0-1.37","test",",","",".","",""
"null","<div style=""color:white; font-size:60px;"">+</div>","null","html-keyboard-response","289","575394","0.0-10.0-0.38","fixation","","","","",""
"1669","Stimuli/Hangul_M56.bmp","188","image-keyboard-response","290","577076","0.0-10.0-1.38","test",",","",",","",""
"null","<div style=""color:white; font-size:60px;"">+</div>","null","html-keyboard-response","291","578105","0.0-10.0-0.39","fixation","","","","",""
"1774","Stimuli/Hangul_F61.bmp","188","image-keyboard-response","292","579895","0.0-10.0-1.39","test",".","",",","",""
"null","<div style=""color:white; font-size:60px;"">+</div>","null","html-keyboard-response","293","580910","0.0-10.0-0.40","fixation","","","","",""
"1753","Stimuli/Hangul_F60.bmp","190","image-keyboard-response","294","582673","0.0-10.0-1.40","test",".","",".","",""
"null","<div style=""color:white; font-size:60px;"">+</div>","null","html-keyboard-response","295","583684","0.0-10.0-0.41","fixation","","","","",""
"1674","Stimuli/Hangul_F70.bmp","188","image-keyboard-response","296","585365","0.0-10.0-1.41","test",".","",",","",""
"null","<div style=""color:white; font-size:60px;"">+</div>","null","html-keyboard-response","297","586384","0.0-10.0-0.42","fixation","","","","",""
"2374","Stimuli/Hangul_M64.bmp","188","image-keyboard-response","298","588764","0.0-10.0-1.42","test",",","",",","",""
"null","<div style=""color:white; font-size:60px;"">+</div>","null","html-keyboard-response","299","589773","0.0-10.0-0.43","fixation","","","","",""
"2808","Stimuli/Hangul_F58.bmp","188","image-keyboard-response","300","592587","0.0-10.0-1.43","test",".","",",","",""
"null","<div style=""color:white; font-size:60px;"">+</div>","null","html-keyboard-response","301","593604","0.0-10.0-0.44","fixation","","","","",""
"1705","Stimuli/Hangul_M61.bmp","188","image-keyboard-response","302","595323","0.0-10.0-1.44","test",",","",",","",""
"null","<div style=""color:white; font-size:60px;"">+</div>","null","html-keyboard-response","303","596335","0.0-10.0-0.45","fixation","","","","",""
"1650","Stimuli/Hangul_M72.bmp","188","image-keyboard-response","304","597991","0.0-10.0-1.45","test",",","",",","",""
"null","<div style=""color:white; font-size:60px;"">+</div>","null","html-keyboard-response","305","598995","0.0-10.0-0.46","fixation","","","","",""
"1568","Stimuli/Hangul_F52.bmp","188","image-keyboard-response","306","600568","0.0-10.0-1.46","test",".","",",","",""
"null","<div style=""color:white; font-size:60px;"">+</div>","null","html-keyboard-response","307","601598","0.0-10.0-0.47","fixation","","","","",""
"1813","Stimuli/Hangul_M68.bmp","190","image-keyboard-response","308","603436","0.0-10.0-1.47","test",",","",".","",""
"null","<div style=""color:white; font-size:60px;"">+</div>","null","html-keyboard-response","309","604464","0.0-10.0-0.48","fixation","","","","",""
"1971","Stimuli/Hangul_M59.bmp","188","image-keyboard-response","310","606455","0.0-10.0-1.48","test",",","",",","",""
"null","<div style=""color:white; font-size:60px;"">+</div>","null","html-keyboard-response","311","607529","0.0-10.0-0.49","fixation","","","","",""
"2366","Stimuli/Hangul_M52.bmp","190","image-keyboard-response","312","609908","0.0-10.0-1.49","test",",","",".","",""
"22002","<p style=""color:white;"">One more block to go! Please take a moment to rest.</p> <p style=""color:white;"">When you are ready to continue with block 4 of 4, press the space bar.</p> ","32","html-keyboard-response","313","631920","0.0-11.0","","","","","",""
"null","<div style=""color:white; font-size:60px;"">+</div>","null","html-keyboard-response","314","634964","0.0-12.0-0.0","fixation","","","","",""
"2659","Stimuli/Hangul_M88.bmp","188","image-keyboard-response","315","637647","0.0-12.0-1.0","test",",","",",","",""
"null","<div style=""color:white; font-size:60px;"">+</div>","null","html-keyboard-response","316","638664","0.0-12.0-0.1","fixation","","","","",""
"1634","Stimuli/Hangul_M86.bmp","188","image-keyboard-response","317","640309","0.0-12.0-1.1","test",",","",",","",""
"null","<div style=""color:white; font-size:60px;"">+</div>","null","html-keyboard-response","318","641324","0.0-12.0-0.2","fixation","","","","",""
"1752","Stimuli/Hangul_M92.bmp","188","image-keyboard-response","319","643092","0.0-12.0-1.2","test",",","",",","",""
"null","<div style=""color:white; font-size:60px;"">+</div>","null","html-keyboard-response","320","644116","0.0-12.0-0.3","fixation","","","","",""
"1797","Stimuli/Hangul_M78.bmp","190","image-keyboard-response","321","645925","0.0-12.0-1.3","test",",","",".","",""
"null","<div style=""color:white; font-size:60px;"">+</div>","null","html-keyboard-response","322","646945","0.0-12.0-0.4","fixation","","","","",""
"1709","Stimuli/Hangul_F79.bmp","190","image-keyboard-response","323","648665","0.0-12.0-1.4","test",".","",".","",""
"null","<div style=""color:white; font-size:60px;"">+</div>","null","html-keyboard-response","324","649675","0.0-12.0-0.5","fixation","","","","",""
"2043","Stimuli/Hangul_F81.bmp","190","image-keyboard-response","325","651768","0.0-12.0-1.5","test",".","",".","",""
"null","<div style=""color:white; font-size:60px;"">+</div>","null","html-keyboard-response","326","652775","0.0-12.0-0.6","fixation","","","","",""
"1928","Stimuli/Hangul_M96.bmp","188","image-keyboard-response","327","654718","0.0-12.0-1.6","test",",","",",","",""
"null","<div style=""color:white; font-size:60px;"">+</div>","null","html-keyboard-response","328","655734","0.0-12.0-0.7","fixation","","","","",""
"1821","Stimuli/Hangul_M98.bmp","188","image-keyboard-response","329","657562","0.0-12.0-1.7","test",",","",",","",""
"null","<div style=""color:white; font-size:60px;"">+</div>","null","html-keyboard-response","330","658585","0.0-12.0-0.8","fixation","","","","",""
"1595","Stimuli/Hangul_M79.bmp","188","image-keyboard-response","331","660191","0.0-12.0-1.8","test",",","",",","",""
"null","<div style=""color:white; font-size:60px;"">+</div>","null","html-keyboard-response","332","661214","0.0-12.0-0.9","fixation","","","","",""
"1881","Stimuli/Hangul_F83.bmp","190","image-keyboard-response","333","663113","0.0-12.0-1.9","test",".","",".","",""
"null","<div style=""color:white; font-size:60px;"">+</div>","null","html-keyboard-response","334","664125","0.0-12.0-0.10","fixation","","","","",""
"1670","Stimuli/Hangul_M75.bmp","188","image-keyboard-response","335","665826","0.0-12.0-1.10","test",",","",",","",""
"null","<div style=""color:white; font-size:60px;"">+</div>","null","html-keyboard-response","336","666844","0.0-12.0-0.11","fixation","","","","",""
"1985","Stimuli/Hangul_F90.bmp","190","image-keyboard-response","337","668840","0.0-12.0-1.11","test",".","",".","",""
"null","<div style=""color:white; font-size:60px;"">+</div>","null","html-keyboard-response","338","669866","0.0-12.0-0.12","fixation","","","","",""
"1811","Stimuli/Hangul_M87.bmp","190","image-keyboard-response","339","671701","0.0-12.0-1.12","test",",","",".","",""
"null","<div style=""color:white; font-size:60px;"">+</div>","null","html-keyboard-response","340","672705","0.0-12.0-0.13","fixation","","","","",""
"1710","Stimuli/Hangul_F76.bmp","190","image-keyboard-response","341","674425","0.0-12.0-1.13","test",".","",".","",""
"null","<div style=""color:white; font-size:60px;"">+</div>","null","html-keyboard-response","342","675449","0.0-12.0-0.14","fixation","","","","",""
"1907","Stimuli/Hangul_F96.bmp","190","image-keyboard-response","343","677361","0.0-12.0-1.14","test",".","",".","",""
"null","<div style=""color:white; font-size:60px;"">+</div>","null","html-keyboard-response","344","678376","0.0-12.0-0.15","fixation","","","","",""
"1927","Stimuli/Hangul_F87.bmp","188","image-keyboard-response","345","680312","0.0-12.0-1.15","test",".","",",","",""
"null","<div style=""color:white; font-size:60px;"">+</div>","null","html-keyboard-response","346","681316","0.0-12.0-0.16","fixation","","","","",""
"1738","Stimuli/Hangul_M83.bmp","188","image-keyboard-response","347","683066","0.0-12.0-1.16","test",",","",",","",""
"null","<div style=""color:white; font-size:60px;"">+</div>","null","html-keyboard-response","348","684073","0.0-12.0-0.17","fixation","","","","",""
"1714","Stimuli/Hangul_F77.bmp","190","image-keyboard-response","349","685793","0.0-12.0-1.17","test",".","",".","",""
"null","<div style=""color:white; font-size:60px;"">+</div>","null","html-keyboard-response","350","686804","0.0-12.0-0.18","fixation","","","","",""
"1725","Stimuli/Hangul_F93.bmp","190","image-keyboard-response","351","688535","0.0-12.0-1.18","test",".","",".","",""
"null","<div style=""color:white; font-size:60px;"">+</div>","null","html-keyboard-response","352","689545","0.0-12.0-0.19","fixation","","","","",""
"1767","Stimuli/Hangul_M82.bmp","188","image-keyboard-response","353","691321","0.0-12.0-1.19","test",",","",",","",""
"null","<div style=""color:white; font-size:60px;"">+</div>","null","html-keyboard-response","354","692344","0.0-12.0-0.20","fixation","","","","",""
"1534","Stimuli/Hangul_F75.bmp","190","image-keyboard-response","355","693883","0.0-12.0-1.20","test",".","",".","",""
"null","<div style=""color:white; font-size:60px;"">+</div>","null","html-keyboard-response","356","694895","0.0-12.0-0.21","fixation","","","","",""
"1780","Stimuli/Hangul_M93.bmp","188","image-keyboard-response","357","696684","0.0-12.0-1.21","test",",","",",","",""
"null","<div style=""color:white; font-size:60px;"">+</div>","null","html-keyboard-response","358","697689","0.0-12.0-0.22","fixation","","","","",""
"1542","Stimuli/Hangul_F95.bmp","190","image-keyboard-response","359","699239","0.0-12.0-1.22","test",".","",".","",""
"null","<div style=""color:white; font-size:60px;"">+</div>","null","html-keyboard-response","360","700254","0.0-12.0-0.23","fixation","","","","",""
"1742","Stimuli/Hangul_F85.bmp","188","image-keyboard-response","361","702007","0.0-12.0-1.23","test",".","",",","",""
"null","<div style=""color:white; font-size:60px;"">+</div>","null","html-keyboard-response","362","703015","0.0-12.0-0.24","fixation","","","","",""
"1806","Stimuli/Hangul_F98.bmp","188","image-keyboard-response","363","704829","0.0-12.0-1.24","test",".","",",","",""
"null","<div style=""color:white; font-size:60px;"">+</div>","null","html-keyboard-response","364","705855","0.0-12.0-0.25","fixation","","","","",""
"2203","Stimuli/Hangul_F86.bmp","190","image-keyboard-response","365","708071","0.0-12.0-1.25","test",".","",".","",""
"null","<div style=""color:white; font-size:60px;"">+</div>","null","html-keyboard-response","366","709085","0.0-12.0-0.26","fixation","","","","",""
"1609","Stimuli/Hangul_F88.bmp","190","image-keyboard-response","367","710705","0.0-12.0-1.26","test",".","",".","",""
"null","<div style=""color:white; font-size:60px;"">+</div>","null","html-keyboard-response","368","711709","0.0-12.0-0.27","fixation","","","","",""
"1659","Stimuli/Hangul_M90.bmp","188","image-keyboard-response","369","713374","0.0-12.0-1.27","test",",","",",","",""
"null","<div style=""color:white; font-size:60px;"">+</div>","null","html-keyboard-response","370","714392","0.0-12.0-0.28","fixation","","","","",""
"1756","Stimuli/Hangul_M89.bmp","188","image-keyboard-response","371","716156","0.0-12.0-1.28","test",",","",",","",""
"null","<div style=""color:white; font-size:60px;"">+</div>","null","html-keyboard-response","372","717174","0.0-12.0-0.29","fixation","","","","",""
"1784","Stimuli/Hangul_M97.bmp","188","image-keyboard-response","373","718970","0.0-12.0-1.29","test",",","",",","",""
"null","<div style=""color:white; font-size:60px;"">+</div>","null","html-keyboard-response","374","719994","0.0-12.0-0.30","fixation","","","","",""
"1839","Stimuli/Hangul_F89.bmp","190","image-keyboard-response","375","721844","0.0-12.0-1.30","test",".","",".","",""
"null","<div style=""color:white; font-size:60px;"">+</div>","null","html-keyboard-response","376","722864","0.0-12.0-0.31","fixation","","","","",""
"1724","Stimuli/Hangul_F94.bmp","190","image-keyboard-response","377","724599","0.0-12.0-1.31","test",".","",".","",""
"null","<div style=""color:white; font-size:60px;"">+</div>","null","html-keyboard-response","378","725615","0.0-12.0-0.32","fixation","","","","",""
"1762","Stimuli/Hangul_M76.bmp","188","image-keyboard-response","379","727386","0.0-12.0-1.32","test",",","",",","",""
"null","<div style=""color:white; font-size:60px;"">+</div>","null","html-keyboard-response","380","728437","0.0-12.0-0.33","fixation","","","","",""
"1619","Stimuli/Hangul_M85.bmp","190","image-keyboard-response","381","730082","0.0-12.0-1.33","test",",","",".","",""
"null","<div style=""color:white; font-size:60px;"">+</div>","null","html-keyboard-response","382","731115","0.0-12.0-0.34","fixation","","","","",""
"1840","Stimuli/Hangul_F82.bmp","190","image-keyboard-response","383","732975","0.0-12.0-1.34","test",".","",".","",""
"null","<div style=""color:white; font-size:60px;"">+</div>","null","html-keyboard-response","384","734005","0.0-12.0-0.35","fixation","","","","",""
"1754","Stimuli/Hangul_M84.bmp","190","image-keyboard-response","385","735776","0.0-12.0-1.35","test",",","",".","",""
"null","<div style=""color:white; font-size:60px;"">+</div>","null","html-keyboard-response","386","736784","0.0-12.0-0.36","fixation","","","","",""
"1756","Stimuli/Hangul_M80.bmp","188","image-keyboard-response","387","738545","0.0-12.0-1.36","test",",","",",","",""
"null","<div style=""color:white; font-size:60px;"">+</div>","null","html-keyboard-response","388","739554","0.0-12.0-0.37","fixation","","","","",""
"2773","Stimuli/Hangul_F78.bmp","190","image-keyboard-response","389","742335","0.0-12.0-1.37","test",".","",".","",""
"null","<div style=""color:white; font-size:60px;"">+</div>","null","html-keyboard-response","390","743346","0.0-12.0-0.38","fixation","","","","",""
"1825","Stimuli/Hangul_F84.bmp","188","image-keyboard-response","391","745193","0.0-12.0-1.38","test",".","",",","",""
"null","<div style=""color:white; font-size:60px;"">+</div>","null","html-keyboard-response","392","746205","0.0-12.0-0.39","fixation","","","","",""
"1821","Stimuli/Hangul_M94.bmp","188","image-keyboard-response","393","748037","0.0-12.0-1.39","test",",","",",","",""
"null","<div style=""color:white; font-size:60px;"">+</div>","null","html-keyboard-response","394","749045","0.0-12.0-0.40","fixation","","","","",""
"2897","Stimuli/Hangul_M99.bmp","188","image-keyboard-response","395","751956","0.0-12.0-1.40","test",",","",",","",""
"null","<div style=""color:white; font-size:60px;"">+</div>","null","html-keyboard-response","396","752987","0.0-12.0-0.41","fixation","","","","",""
"1899","Stimuli/Hangul_M95.bmp","188","image-keyboard-response","397","754897","0.0-12.0-1.41","test",",","",",","",""
"null","<div style=""color:white; font-size:60px;"">+</div>","null","html-keyboard-response","398","755906","0.0-12.0-0.42","fixation","","","","",""
"1793","Stimuli/Hangul_F92.bmp","190","image-keyboard-response","399","757710","0.0-12.0-1.42","test",".","",".","",""
"null","<div style=""color:white; font-size:60px;"">+</div>","null","html-keyboard-response","400","758722","0.0-12.0-0.43","fixation","","","","",""
"1621","Stimuli/Hangul_M91.bmp","188","image-keyboard-response","401","760353","0.0-12.0-1.43","test",",","",",","",""
"null","<div style=""color:white; font-size:60px;"">+</div>","null","html-keyboard-response","402","761366","0.0-12.0-0.44","fixation","","","","",""
"1892","Stimuli/Hangul_M77.bmp","188","image-keyboard-response","403","763270","0.0-12.0-1.44","test",",","",",","",""
"null","<div style=""color:white; font-size:60px;"">+</div>","null","html-keyboard-response","404","764284","0.0-12.0-0.45","fixation","","","","",""
"1742","Stimuli/Hangul_M81.bmp","188","image-keyboard-response","405","766042","0.0-12.0-1.45","test",",","",",","",""
"null","<div style=""color:white; font-size:60px;"">+</div>","null","html-keyboard-response","406","767055","0.0-12.0-0.46","fixation","","","","",""
"1618","Stimuli/Hangul_F80.bmp","190","image-keyboard-response","407","768683","0.0-12.0-1.46","test",".","",".","",""
"null","<div style=""color:white; font-size:60px;"">+</div>","null","html-keyboard-response","408","769705","0.0-12.0-0.47","fixation","","","","",""
"1934","Stimuli/Hangul_F91.bmp","190","image-keyboard-response","409","771643","0.0-12.0-1.47","test",".","",".","",""
"null","<div style=""color:white; font-size:60px;"">+</div>","null","html-keyboard-response","410","772654","0.0-12.0-0.48","fixation","","","","",""
"2144","Stimuli/Hangul_F97.bmp","190","image-keyboard-response","411","774808","0.0-12.0-1.48","test",".","",".","",""
"null","<div style=""color:white; font-size:60px;"">+</div>","null","html-keyboard-response","412","775826","0.0-12.0-0.49","fixation","","","","",""
"1720","Stimuli/Hangul_F99.bmp","188","image-keyboard-response","413","777555","0.0-12.0-1.49","test",".","",",","",""
"2953","<p style=""color:white;"">Phase I of the experiment is complete.</p> <p style=""color:white;"">Press the space bar to proceed to Phase II of the experiment.</p> ","32","html-keyboard-response","414","780518","0.0-13.0","","","","","",""
"18660","<p style=""color:white;"">Now we are interested in how well you can predict patterns in the series of figures. You will be asked to predict whether the next figure in the series is more male-like or female-like. When you see the <q>Next Figure</q> prompt, press the corresponding response keys to indicate your prediction: </p><p style=""color:white;""> Male &#8594 <q>,</q> (comma)</p><p style=""color:white;""> Female &#8594 <q>.</q> (period)</p><p style=""color:white;"">The actual figure will then appear on the screen. After you see the figure, please guess the assigned gender with response keys. </p><p style=""color:white;"">As before, you will receive 2 cents for correctly classifying each figure.</p><p style=""color:white;"">Press either response keys to continue.</p>","188","html-keyboard-response","415","801214","0.0-14.0","","","","","",""
"11510","<p style=""color:white;"">PREDICTION BONUS</p> <p style=""color:white;"">Your prediction accuracy is the total number of correct predictions you make over the 200 trials.</p> <p style=""color:white;"">In addition to the 2 cents per correct figure classification, you have the chance to receive a bonus of 40 dollars IF your accuracy is above average relative to previous participants.</p><p style=""color:white;"">If your accuracy is below average relative to previous participants, then you will not receive the 40 dollar bonus.</p><p style=""color:white;"">Press the space bar to continue.</p>","32","html-keyboard-response","416","812730","0.0-15.0","","","","","",""
"6342","<p style=""color:white;"">Here are some examples.</p> <p style=""color:white;"">For each, predict whether the next figure looks more male-like or female-like. Then, when the figure appears, guess whether it looks more male-like or female-like and indicate your choice.</p> <p style=""color:white;"">Press the space bar to continue.</p>","32","html-keyboard-response","417","819076","0.0-16.0","","","","","",""
"904","<p style=""color:white;""> Next Figure: Male or Female? </p>","188","html-keyboard-response","418","821993","0.0-17.0-0.0","prediction_train","","","",",",""
"null","<div style=""color:white; font-size:60px;"">+</div>","null","html-keyboard-response","419","823014","0.0-17.0-1.0","fixation","","","","",""
"2218","Stimuli/Hangul_E2.bmp","190","image-keyboard-response","420","825244","0.0-17.0-2.0","c2_train",".","","","","."
"2065","<p style=""color:white;""> Next Figure: Male or Female? </p>","190","html-keyboard-response","421","827314","0.0-17.0-0.1","prediction_train","","","",".",""
"null","<div style=""color:white; font-size:60px;"">+</div>","null","html-keyboard-response","422","828325","0.0-17.0-1.1","fixation","","","","",""
"906","Stimuli/Hangul_E0.bmp","188","image-keyboard-response","423","829241","0.0-17.0-2.1","c2_train",",","","","",","
"1135","<p style=""color:white;""> Next Figure: Male or Female? </p>","188","html-keyboard-response","424","830381","0.0-17.0-0.2","prediction_train","","","",",",""
"null","<div style=""color:white; font-size:60px;"">+</div>","null","html-keyboard-response","425","831396","0.0-17.0-1.2","fixation","","","","",""
"955","Stimuli/Hangul_E1.bmp","190","image-keyboard-response","426","832365","0.0-17.0-2.2","c2_train",",","","","","."
"3724","<p style=""color:white;"">Let us begin! Press the space bar when you are ready to start block 1 of 4.</p> ","32","html-keyboard-response","427","836095","0.0-18.0","","","","","",""
"412","<p style=""color:white;""> Next Figure: Male or Female? </p>","188","html-keyboard-response","428","838514","0.0-19.0-0.0","prediction","","","",",",""
"null","<div style=""color:white; font-size:60px;"">+</div>","null","html-keyboard-response","429","839525","0.0-19.0-1.0","fixation","","","","",""
"743","Stimuli/Hangul_M18.bmp","188","image-keyboard-response","430","840282","0.0-19.0-2.0","c2_test",",","","","",","
"1197","<p style=""color:white;""> Next Figure: Male or Female? </p>","188","html-keyboard-response","431","841488","0.0-19.0-0.1","prediction","","","",",",""
"null","<div style=""color:white; font-size:60px;"">+</div>","null","html-keyboard-response","432","842515","0.0-19.0-1.1","fixation","","","","",""
"597","Stimuli/Hangul_F23.bmp","188","image-keyboard-response","433","843126","0.0-19.0-2.1","c2_test",".","","","",","
"942","<p style=""color:white;""> Next Figure: Male or Female? </p>","188","html-keyboard-response","434","844073","0.0-19.0-0.2","prediction","","","",",",""
"null","<div style=""color:white; font-size:60px;"">+</div>","null","html-keyboard-response","435","845084","0.0-19.0-1.2","fixation","","","","",""
"677","Stimuli/Hangul_M6.bmp","188","image-keyboard-response","436","845775","0.0-19.0-2.2","c2_test",",","","","",","
"664","<p style=""color:white;""> Next Figure: Male or Female? </p>","188","html-keyboard-response","437","846442","0.0-19.0-0.3","prediction","","","",",",""
"null","<div style=""color:white; font-size:60px;"">+</div>","null","html-keyboard-response","438","847445","0.0-19.0-1.3","fixation","","","","",""
"785","Stimuli/Hangul_F0.bmp","188","image-keyboard-response","439","848234","0.0-19.0-2.3","c2_test",".","","","",","
"1136","<p style=""color:white;""> Next Figure: Male or Female? </p>","190","html-keyboard-response","440","849372","0.0-19.0-0.4","prediction","","","",".",""
"null","<div style=""color:white; font-size:60px;"">+</div>","null","html-keyboard-response","441","850376","0.0-19.0-1.4","fixation","","","","",""
"706","Stimuli/Hangul_M5.bmp","190","image-keyboard-response","442","851099","0.0-19.0-2.4","c2_test",",","","","","."
"916","<p style=""color:white;""> Next Figure: Male or Female? </p>","188","html-keyboard-response","443","852025","0.0-19.0-0.5","prediction","","","",",",""
"null","<div style=""color:white; font-size:60px;"">+</div>","null","html-keyboard-response","444","853036","0.0-19.0-1.5","fixation","","","","",""
"1009","Stimuli/Hangul_F20.bmp","190","image-keyboard-response","445","854047","0.0-19.0-2.5","c2_test",".","","","","."
"1033","<p style=""color:white;""> Next Figure: Male or Female? </p>","188","html-keyboard-response","446","855083","0.0-19.0-0.6","prediction","","","",",",""
"null","<div style=""color:white; font-size:60px;"">+</div>","null","html-keyboard-response","447","856093","0.0-19.0-1.6","fixation","","","","",""
"898","Stimuli/Hangul_F11.bmp","190","image-keyboard-response","448","856998","0.0-19.0-2.6","c2_test",".","","","","."
"819","<p style=""color:white;""> Next Figure: Male or Female? </p>","188","html-keyboard-response","449","857821","0.0-19.0-0.7","prediction","","","",",",""
"null","<div style=""color:white; font-size:60px;"">+</div>","null","html-keyboard-response","450","858833","0.0-19.0-1.7","fixation","","","","",""
"710","Stimuli/Hangul_F24.bmp","190","image-keyboard-response","451","859550","0.0-19.0-2.7","c2_test",".","","","","."
"902","<p style=""color:white;""> Next Figure: Male or Female? </p>","190","html-keyboard-response","452","860460","0.0-19.0-0.8","prediction","","","",".",""
"null","<div style=""color:white; font-size:60px;"">+</div>","null","html-keyboard-response","453","861476","0.0-19.0-1.8","fixation","","","","",""
"845","Stimuli/Hangul_F7.bmp","190","image-keyboard-response","454","862329","0.0-19.0-2.8","c2_test",".","","","","."
"1327","<p style=""color:white;""> Next Figure: Male or Female? </p>","190","html-keyboard-response","455","863664","0.0-19.0-0.9","prediction","","","",".",""
"null","<div style=""color:white; font-size:60px;"">+</div>","null","html-keyboard-response","456","864677","0.0-19.0-1.9","fixation","","","","",""
"746","Stimuli/Hangul_F17.bmp","190","image-keyboard-response","457","865434","0.0-19.0-2.9","c2_test",".","","","","."
"950","<p style=""color:white;""> Next Figure: Male or Female? </p>","188","html-keyboard-response","458","866393","0.0-19.0-0.10","prediction","","","",",",""
"null","<div style=""color:white; font-size:60px;"">+</div>","null","html-keyboard-response","459","867408","0.0-19.0-1.10","fixation","","","","",""
"600","Stimuli/Hangul_F16.bmp","188","image-keyboard-response","460","868017","0.0-19.0-2.10","c2_test",".","","","",","
"908","<p style=""color:white;""> Next Figure: Male or Female? </p>","190","html-keyboard-response","461","868959","0.0-19.0-0.11","prediction","","","",".",""
"null","<div style=""color:white; font-size:60px;"">+</div>","null","html-keyboard-response","462","869995","0.0-19.0-1.11","fixation","","","","",""
"280","Stimuli/Hangul_F21.bmp","190","image-keyboard-response","463","870283","0.0-19.0-2.11","c2_test",".","","","","."
"1248","<p style=""color:white;""> Next Figure: Male or Female? </p>","188","html-keyboard-response","464","871540","0.0-19.0-0.12","prediction","","","",",",""
"null","<div style=""color:white; font-size:60px;"">+</div>","null","html-keyboard-response","465","872566","0.0-19.0-1.12","fixation","","","","",""
"454","Stimuli/Hangul_M13.bmp","188","image-keyboard-response","466","873031","0.0-19.0-2.12","c2_test",",","","","",","
"966","<p style=""color:white;""> Next Figure: Male or Female? </p>","190","html-keyboard-response","467","874003","0.0-19.0-0.13","prediction","","","",".",""
"null","<div style=""color:white; font-size:60px;"">+</div>","null","html-keyboard-response","468","875025","0.0-19.0-1.13","fixation","","","","",""
"605","Stimuli/Hangul_F1.bmp","190","image-keyboard-response","469","875640","0.0-19.0-2.13","c2_test",".","","","","."
"886","<p style=""color:white;""> Next Figure: Male or Female? </p>","190","html-keyboard-response","470","876530","0.0-19.0-0.14","prediction","","","",".",""
"null","<div style=""color:white; font-size:60px;"">+</div>","null","html-keyboard-response","471","877554","0.0-19.0-1.14","fixation","","","","",""
"639","Stimuli/Hangul_M4.bmp","190","image-keyboard-response","472","878207","0.0-19.0-2.14","c2_test",",","","","","."
"907","<p style=""color:white;""> Next Figure: Male or Female? </p>","190","html-keyboard-response","473","879119","0.0-19.0-0.15","prediction","","","",".",""
"null","<div style=""color:white; font-size:60px;"">+</div>","null","html-keyboard-response","474","880146","0.0-19.0-1.15","fixation","","","","",""
"676","Stimuli/Hangul_F10.bmp","190","image-keyboard-response","475","880837","0.0-19.0-2.15","c2_test",".","","","","."
"981","<p style=""color:white;""> Next Figure: Male or Female? </p>","190","html-keyboard-response","476","881822","0.0-19.0-0.16","prediction","","","",".",""
"null","<div style=""color:white; font-size:60px;"">+</div>","null","html-keyboard-response","477","882829","0.0-19.0-1.16","fixation","","","","",""
"680","Stimuli/Hangul_F19.bmp","190","image-keyboard-response","478","883522","0.0-19.0-2.16","c2_test",".","","","","."
"891","<p style=""color:white;""> Next Figure: Male or Female? </p>","190","html-keyboard-response","479","884423","0.0-19.0-0.17","prediction","","","",".",""
"null","<div style=""color:white; font-size:60px;"">+</div>","null","html-keyboard-response","480","885444","0.0-19.0-1.17","fixation","","","","",""
"451","Stimuli/Hangul_M10.bmp","188","image-keyboard-response","481","885907","0.0-19.0-2.17","c2_test",",","","","",","
"1408","<p style=""color:white;""> Next Figure: Male or Female? </p>","188","html-keyboard-response","482","887318","0.0-19.0-0.18","prediction","","","",",",""
"null","<div style=""color:white; font-size:60px;"">+</div>","null","html-keyboard-response","483","888335","0.0-19.0-1.18","fixation","","","","",""
"700","Stimuli/Hangul_F12.bmp","188","image-keyboard-response","484","889044","0.0-19.0-2.18","c2_test",".","","","",","
"993","<p style=""color:white;""> Next Figure: Male or Female? </p>","188","html-keyboard-response","485","890043","0.0-19.0-0.19","prediction","","","",",",""
"null","<div style=""color:white; font-size:60px;"">+</div>","null","html-keyboard-response","486","891055","0.0-19.0-1.19","fixation","","","","",""
"473","Stimuli/Hangul_F15.bmp","188","image-keyboard-response","487","891540","0.0-19.0-2.19","c2_test",".","","","",","
"767","<p style=""color:white;""> Next Figure: Male or Female? </p>","188","html-keyboard-response","488","892315","0.0-19.0-0.20","prediction","","","",",",""
"null","<div style=""color:white; font-size:60px;"">+</div>","null","html-keyboard-response","489","893335","0.0-19.0-1.20","fixation","","","","",""
"625","Stimuli/Hangul_F3.bmp","190","image-keyboard-response","490","893972","0.0-19.0-2.20","c2_test",".","","","","."
"908","<p style=""color:white;""> Next Figure: Male or Female? </p>","188","html-keyboard-response","491","894886","0.0-19.0-0.21","prediction","","","",",",""
"null","<div style=""color:white; font-size:60px;"">+</div>","null","html-keyboard-response","492","895917","0.0-19.0-1.21","fixation","","","","",""
"754","Stimuli/Hangul_M12.bmp","190","image-keyboard-response","493","896683","0.0-19.0-2.21","c2_test",",","","","","."
"868","<p style=""color:white;""> Next Figure: Male or Female? </p>","188","html-keyboard-response","494","897558","0.0-19.0-0.22","prediction","","","",",",""
"null","<div style=""color:white; font-size:60px;"">+</div>","null","html-keyboard-response","495","898575","0.0-19.0-1.22","fixation","","","","",""
"738","Stimuli/Hangul_M9.bmp","190","image-keyboard-response","496","899323","0.0-19.0-2.22","c2_test",",","","","","."
"985","<p style=""color:white;""> Next Figure: Male or Female? </p>","188","html-keyboard-response","497","900314","0.0-19.0-0.23","prediction","","","",",",""
"null","<div style=""color:white; font-size:60px;"">+</div>","null","html-keyboard-response","498","901325","0.0-19.0-1.23","fixation","","","","",""
"660","Stimuli/Hangul_F14.bmp","190","image-keyboard-response","499","901988","0.0-19.0-2.23","c2_test",".","","","","."
"687","<p style=""color:white;""> Next Figure: Male or Female? </p>","188","html-keyboard-response","500","902678","0.0-19.0-0.24","prediction","","","",",",""
"null","<div style=""color:white; font-size:60px;"">+</div>","null","html-keyboard-response","501","903689","0.0-19.0-1.24","fixation","","","","",""
"672","Stimuli/Hangul_F5.bmp","190","image-keyboard-response","502","904363","0.0-19.0-2.24","c2_test",".","","","","."
"797","<p style=""color:white;""> Next Figure: Male or Female? </p>","188","html-keyboard-response","503","905162","0.0-19.0-0.25","prediction","","","",",",""
"null","<div style=""color:white; font-size:60px;"">+</div>","null","html-keyboard-response","504","906174","0.0-19.0-1.25","fixation","","","","",""
"817","Stimuli/Hangul_M16.bmp","188","image-keyboard-response","505","907005","0.0-19.0-2.25","c2_test",",","","","",","
"1016","<p style=""color:white;""> Next Figure: Male or Female? </p>","188","html-keyboard-response","506","908026","0.0-19.0-0.26","prediction","","","",",",""
"null","<div style=""color:white; font-size:60px;"">+</div>","null","html-keyboard-response","507","909044","0.0-19.0-1.26","fixation","","","","",""
"756","Stimuli/Hangul_M8.bmp","190","image-keyboard-response","508","909805","0.0-19.0-2.26","c2_test",",","","","","."
"857","<p style=""color:white;""> Next Figure: Male or Female? </p>","188","html-keyboard-response","509","910669","0.0-19.0-0.27","prediction","","","",",",""
"null","<div style=""color:white; font-size:60px;"">+</div>","null","html-keyboard-response","510","911677","0.0-19.0-1.27","fixation","","","","",""
"663","Stimuli/Hangul_M3.bmp","188","image-keyboard-response","511","912356","0.0-19.0-2.27","c2_test",",","","","",","
"787","<p style=""color:white;""> Next Figure: Male or Female? </p>","190","html-keyboard-response","512","913149","0.0-19.0-0.28","prediction","","","",".",""
"null","<div style=""color:white; font-size:60px;"">+</div>","null","html-keyboard-response","513","914164","0.0-19.0-1.28","fixation","","","","",""
"523","Stimuli/Hangul_M11.bmp","190","image-keyboard-response","514","914700","0.0-19.0-2.28","c2_test",",","","","","."
"690","<p style=""color:white;""> Next Figure: Male or Female? </p>","190","html-keyboard-response","515","915392","0.0-19.0-0.29","prediction","","","",".",""
"null","<div style=""color:white; font-size:60px;"">+</div>","null","html-keyboard-response","516","916416","0.0-19.0-1.29","fixation","","","","",""
"652","Stimuli/Hangul_M1.bmp","190","image-keyboard-response","517","917075","0.0-19.0-2.29","c2_test",",","","","","."
"565","<p style=""color:white;""> Next Figure: Male or Female? </p>","190","html-keyboard-response","518","917645","0.0-19.0-0.30","prediction","","","",".",""
"null","<div style=""color:white; font-size:60px;"">+</div>","null","html-keyboard-response","519","918666","0.0-19.0-1.30","fixation","","","","",""
"853","Stimuli/Hangul_M19.bmp","188","image-keyboard-response","520","919529","0.0-19.0-2.30","c2_test",",","","","",","
"1090","<p style=""color:white;""> Next Figure: Male or Female? </p>","188","html-keyboard-response","521","920625","0.0-19.0-0.31","prediction","","","",",",""
"null","<div style=""color:white; font-size:60px;"">+</div>","null","html-keyboard-response","522","921635","0.0-19.0-1.31","fixation","","","","",""
"667","Stimuli/Hangul_F18.bmp","190","image-keyboard-response","523","922313","0.0-19.0-2.31","c2_test",".","","","","."
"875","<p style=""color:white;""> Next Figure: Male or Female? </p>","188","html-keyboard-response","524","923191","0.0-19.0-0.32","prediction","","","",",",""
"null","<div style=""color:white; font-size:60px;"">+</div>","null","html-keyboard-response","525","924205","0.0-19.0-1.32","fixation","","","","",""
"743","Stimuli/Hangul_M23.bmp","190","image-keyboard-response","526","924960","0.0-19.0-2.32","c2_test",",","","","","."
"674","<p style=""color:white;""> Next Figure: Male or Female? </p>","188","html-keyboard-response","527","925640","0.0-19.0-0.33","prediction","","","",",",""
"null","<div style=""color:white; font-size:60px;"">+</div>","null","html-keyboard-response","528","926655","0.0-19.0-1.33","fixation","","","","",""
"529","Stimuli/Hangul_F6.bmp","188","image-keyboard-response","529","927195","0.0-19.0-2.33","c2_test",".","","","",","
"1068","<p style=""color:white;""> Next Figure: Male or Female? </p>","190","html-keyboard-response","530","928269","0.0-19.0-0.34","prediction","","","",".",""
"null","<div style=""color:white; font-size:60px;"">+</div>","null","html-keyboard-response","531","929274","0.0-19.0-1.34","fixation","","","","",""
"567","Stimuli/Hangul_F8.bmp","190","image-keyboard-response","532","929853","0.0-19.0-2.34","c2_test",".","","","","."
"517","<p style=""color:white;""> Next Figure: Male or Female? </p>","190","html-keyboard-response","533","930376","0.0-19.0-0.35","prediction","","","",".",""
"null","<div style=""color:white; font-size:60px;"">+</div>","null","html-keyboard-response","534","931385","0.0-19.0-1.35","fixation","","","","",""
"619","Stimuli/Hangul_M15.bmp","190","image-keyboard-response","535","932014","0.0-19.0-2.35","c2_test",",","","","","."
"656","<p style=""color:white;""> Next Figure: Male or Female? </p>","190","html-keyboard-response","536","932678","0.0-19.0-0.36","prediction","","","",".",""
"null","<div style=""color:white; font-size:60px;"">+</div>","null","html-keyboard-response","537","933686","0.0-19.0-1.36","fixation","","","","",""
"578","Stimuli/Hangul_F13.bmp","188","image-keyboard-response","538","934274","0.0-19.0-2.36","c2_test",".","","","",","
"789","<p style=""color:white;""> Next Figure: Male or Female? </p>","190","html-keyboard-response","539","935070","0.0-19.0-0.37","prediction","","","",".",""
"null","<div style=""color:white; font-size:60px;"">+</div>","null","html-keyboard-response","540","936085","0.0-19.0-1.37","fixation","","","","",""
"601","Stimuli/Hangul_M7.bmp","188","image-keyboard-response","541","936696","0.0-19.0-2.37","c2_test",",","","","",","
"902","<p style=""color:white;""> Next Figure: Male or Female? </p>","188","html-keyboard-response","542","937602","0.0-19.0-0.38","prediction","","","",",",""
"null","<div style=""color:white; font-size:60px;"">+</div>","null","html-keyboard-response","543","938615","0.0-19.0-1.38","fixation","","","","",""
"650","Stimuli/Hangul_M20.bmp","188","image-keyboard-response","544","939273","0.0-19.0-2.38","c2_test",",","","","",","
"599","<p style=""color:white;""> Next Figure: Male or Female? </p>","188","html-keyboard-response","545","939876","0.0-19.0-0.39","prediction","","","",",",""
"null","<div style=""color:white; font-size:60px;"">+</div>","null","html-keyboard-response","546","940884","0.0-19.0-1.39","fixation","","","","",""
"461","Stimuli/Hangul_F4.bmp","188","image-keyboard-response","547","941357","0.0-19.0-2.39","c2_test",".","","","",","
"910","<p style=""color:white;""> Next Figure: Male or Female? </p>","188","html-keyboard-response","548","942272","0.0-19.0-0.40","prediction","","","",",",""
"null","<div style=""color:white; font-size:60px;"">+</div>","null","html-keyboard-response","549","943294","0.0-19.0-1.40","fixation","","","","",""
"585","Stimuli/Hangul_M0.bmp","190","image-keyboard-response","550","943892","0.0-19.0-2.40","c2_test",",","","","","."
"675","<p style=""color:white;""> Next Figure: Male or Female? </p>","188","html-keyboard-response","551","944575","0.0-19.0-0.41","prediction","","","",",",""
"null","<div style=""color:white; font-size:60px;"">+</div>","null","html-keyboard-response","552","945585","0.0-19.0-1.41","fixation","","","","",""
"970","Stimuli/Hangul_M2.bmp","188","image-keyboard-response","553","946563","0.0-19.0-2.41","c2_test",",","","","",","
"609","<p style=""color:white;""> Next Figure: Male or Female? </p>","188","html-keyboard-response","554","947175","0.0-19.0-0.42","prediction","","","",",",""
"null","<div style=""color:white; font-size:60px;"">+</div>","null","html-keyboard-response","555","948185","0.0-19.0-1.42","fixation","","","","",""
"695","Stimuli/Hangul_F22.bmp","190","image-keyboard-response","556","948888","0.0-19.0-2.42","c2_test",".","","","","."
"812","<p style=""color:white;""> Next Figure: Male or Female? </p>","188","html-keyboard-response","557","949704","0.0-19.0-0.43","prediction","","","",",",""
"null","<div style=""color:white; font-size:60px;"">+</div>","null","html-keyboard-response","558","950715","0.0-19.0-1.43","fixation","","","","",""
"460","Stimuli/Hangul_M24.bmp","188","image-keyboard-response","559","951220","0.0-19.0-2.43","c2_test",",","","","",","
"654","<p style=""color:white;""> Next Figure: Male or Female? </p>","188","html-keyboard-response","560","951877","0.0-19.0-0.44","prediction","","","",",",""
"null","<div style=""color:white; font-size:60px;"">+</div>","null","html-keyboard-response","561","952895","0.0-19.0-1.44","fixation","","","","",""
"543","Stimuli/Hangul_M22.bmp","188","image-keyboard-response","562","953451","0.0-19.0-2.44","c2_test",",","","","",","
"708","<p style=""color:white;""> Next Figure: Male or Female? </p>","188","html-keyboard-response","563","954165","0.0-19.0-0.45","prediction","","","",",",""
"null","<div style=""color:white; font-size:60px;"">+</div>","null","html-keyboard-response","564","955184","0.0-19.0-1.45","fixation","","","","",""
"716","Stimuli/Hangul_F9.bmp","188","image-keyboard-response","565","955910","0.0-19.0-2.45","c2_test",".","","","",","
"632","<p style=""color:white;""> Next Figure: Male or Female? </p>","190","html-keyboard-response","566","956548","0.0-19.0-0.46","prediction","","","",".",""
"null","<div style=""color:white; font-size:60px;"">+</div>","null","html-keyboard-response","567","957554","0.0-19.0-1.46","fixation","","","","",""
"664","Stimuli/Hangul_M17.bmp","190","image-keyboard-response","568","958228","0.0-19.0-2.46","c2_test",",","","","","."
"541","<p style=""color:white;""> Next Figure: Male or Female? </p>","190","html-keyboard-response","569","958770","0.0-19.0-0.47","prediction","","","",".",""
"null","<div style=""color:white; font-size:60px;"">+</div>","null","html-keyboard-response","570","959784","0.0-19.0-1.47","fixation","","","","",""
"631","Stimuli/Hangul_F2.bmp","190","image-keyboard-response","571","960425","0.0-19.0-2.47","c2_test",".","","","","."
"509","<p style=""color:white;""> Next Figure: Male or Female? </p>","190","html-keyboard-response","572","960938","0.0-19.0-0.48","prediction","","","",".",""
"null","<div style=""color:white; font-size:60px;"">+</div>","null","html-keyboard-response","573","961954","0.0-19.0-1.48","fixation","","","","",""
"631","Stimuli/Hangul_M14.bmp","188","image-keyboard-response","574","962596","0.0-19.0-2.48","c2_test",",","","","",","
"940","<p style=""color:white;""> Next Figure: Male or Female? </p>","188","html-keyboard-response","575","963542","0.0-19.0-0.49","prediction","","","",",",""
"null","<div style=""color:white; font-size:60px;"">+</div>","null","html-keyboard-response","576","964554","0.0-19.0-1.49","fixation","","","","",""
"756","Stimuli/Hangul_M21.bmp","188","image-keyboard-response","577","965322","0.0-19.0-2.49","c2_test",",","","","",","
"61104","<p style=""color:white;"">Good job, block 1 complete! Please take a moment to rest.</p> <p style=""color:white;"">When you are ready to continue with block 2 of 4, press the space bar.</p> ","32","html-keyboard-response","578","1026435","0.0-20.0","","","","","",""
"404","<p style=""color:white;""> Next Figure: Male or Female? </p>","188","html-keyboard-response","579","1028845","0.0-21.0-0.0","prediction","","","",",",""
"null","<div style=""color:white; font-size:60px;"">+</div>","null","html-keyboard-response","580","1029848","0.0-21.0-1.0","fixation","","","","",""
"725","Stimuli/Hangul_F42.bmp","190","image-keyboard-response","581","1030587","0.0-21.0-2.0","c2_test",".","","","","."
"564","<p style=""color:white;""> Next Figure: Male or Female? </p>","188","html-keyboard-response","582","1031156","0.0-21.0-0.1","prediction","","","",",",""
"null","<div style=""color:white; font-size:60px;"">+</div>","null","html-keyboard-response","583","1032160","0.0-21.0-1.1","fixation","","","","",""
"650","Stimuli/Hangul_M46.bmp","190","image-keyboard-response","584","1032821","0.0-21.0-2.1","c2_test",",","","","","."
"720","<p style=""color:white;""> Next Figure: Male or Female? </p>","188","html-keyboard-response","585","1033547","0.0-21.0-0.2","prediction","","","",",",""
"null","<div style=""color:white; font-size:60px;"">+</div>","null","html-keyboard-response","586","1034566","0.0-21.0-1.2","fixation","","","","",""
"449","Stimuli/Hangul_F40.bmp","188","image-keyboard-response","587","1035025","0.0-21.0-2.2","c2_test",".","","","",","
"767","<p style=""color:white;""> Next Figure: Male or Female? </p>","188","html-keyboard-response","588","1035797","0.0-21.0-0.3","prediction","","","",",",""
"null","<div style=""color:white; font-size:60px;"">+</div>","null","html-keyboard-response","589","1036814","0.0-21.0-1.3","fixation","","","","",""
"745","Stimuli/Hangul_M31.bmp","188","image-keyboard-response","590","1037574","0.0-21.0-2.3","c2_test",",","","","",","
"842","<p style=""color:white;""> Next Figure: Male or Female? </p>","188","html-keyboard-response","591","1038424","0.0-21.0-0.4","prediction","","","",",",""
"null","<div style=""color:white; font-size:60px;"">+</div>","null","html-keyboard-response","592","1039456","0.0-21.0-1.4","fixation","","","","",""
"729","Stimuli/Hangul_F49.bmp","188","image-keyboard-response","593","1040194","0.0-21.0-2.4","c2_test",".","","","",","
"755","<p style=""color:white;""> Next Figure: Male or Female? </p>","190","html-keyboard-response","594","1040958","0.0-21.0-0.5","prediction","","","",".",""
"null","<div style=""color:white; font-size:60px;"">+</div>","null","html-keyboard-response","595","1041965","0.0-21.0-1.5","fixation","","","","",""
"815","Stimuli/Hangul_M47.bmp","188","image-keyboard-response","596","1042788","0.0-21.0-2.5","c2_test",",","","","",","
"1792","<p style=""color:white;""> Next Figure: Male or Female? </p>","188","html-keyboard-response","597","1044582","0.0-21.0-0.6","prediction","","","",",",""
"null","<div style=""color:white; font-size:60px;"">+</div>","null","html-keyboard-response","598","1045605","0.0-21.0-1.6","fixation","","","","",""
"750","Stimuli/Hangul_F36.bmp","188","image-keyboard-response","599","1046364","0.0-21.0-2.6","c2_test",".","","","",","
"515","<p style=""color:white;""> Next Figure: Male or Female? </p>","188","html-keyboard-response","600","1046885","0.0-21.0-0.7","prediction","","","",",",""
"null","<div style=""color:white; font-size:60px;"">+</div>","null","html-keyboard-response","601","1047894","0.0-21.0-1.7","fixation","","","","",""
"653","Stimuli/Hangul_F45.bmp","190","image-keyboard-response","602","1048560","0.0-21.0-2.7","c2_test",".","","","","."
"549","<p style=""color:white;""> Next Figure: Male or Female? </p>","188","html-keyboard-response","603","1049116","0.0-21.0-0.8","prediction","","","",",",""
"null","<div style=""color:white; font-size:60px;"">+</div>","null","html-keyboard-response","604","1050124","0.0-21.0-1.8","fixation","","","","",""
"499","Stimuli/Hangul_M39.bmp","188","image-keyboard-response","605","1050633","0.0-21.0-2.8","c2_test",",","","","",","
"1052","<p style=""color:white;""> Next Figure: Male or Female? </p>","190","html-keyboard-response","606","1051691","0.0-21.0-0.9","prediction","","","",".",""
"null","<div style=""color:white; font-size:60px;"">+</div>","null","html-keyboard-response","607","1052714","0.0-21.0-1.9","fixation","","","","",""
"574","Stimuli/Hangul_F32.bmp","190","image-keyboard-response","608","1053293","0.0-21.0-2.9","c2_test",".","","","","."
"831","<p style=""color:white;""> Next Figure: Male or Female? </p>","188","html-keyboard-response","609","1054131","0.0-21.0-0.10","prediction","","","",",",""
"null","<div style=""color:white; font-size:60px;"">+</div>","null","html-keyboard-response","610","1055154","0.0-21.0-1.10","fixation","","","","",""
"509","Stimuli/Hangul_M34.bmp","190","image-keyboard-response","611","1055676","0.0-21.0-2.10","c2_test",",","","","","."
"557","<p style=""color:white;""> Next Figure: Male or Female? </p>","188","html-keyboard-response","612","1056238","0.0-21.0-0.11","prediction","","","",",",""
"null","<div style=""color:white; font-size:60px;"">+</div>","null","html-keyboard-response","613","1057255","0.0-21.0-1.11","fixation","","","","",""
"655","Stimuli/Hangul_F35.bmp","190","image-keyboard-response","614","1057927","0.0-21.0-2.11","c2_test",".","","","","."
"887","<p style=""color:white;""> Next Figure: Male or Female? </p>","188","html-keyboard-response","615","1058823","0.0-21.0-0.12","prediction","","","",",",""
"null","<div style=""color:white; font-size:60px;"">+</div>","null","html-keyboard-response","616","1059834","0.0-21.0-1.12","fixation","","","","",""
"679","Stimuli/Hangul_F26.bmp","188","image-keyboard-response","617","1060518","0.0-21.0-2.12","c2_test",".","","","",","
"505","<p style=""color:white;""> Next Figure: Male or Female? </p>","188","html-keyboard-response","618","1061025","0.0-21.0-0.13","prediction","","","",",",""
"null","<div style=""color:white; font-size:60px;"">+</div>","null","html-keyboard-response","619","1062033","0.0-21.0-1.13","fixation","","","","",""
"473","Stimuli/Hangul_M36.bmp","188","image-keyboard-response","620","1062521","0.0-21.0-2.13","c2_test",",","","","",","
"742","<p style=""color:white;""> Next Figure: Male or Female? </p>","188","html-keyboard-response","621","1063271","0.0-21.0-0.14","prediction","","","",",",""
"null","<div style=""color:white; font-size:60px;"">+</div>","null","html-keyboard-response","622","1064285","0.0-21.0-1.14","fixation","","","","",""
"715","Stimuli/Hangul_M33.bmp","190","image-keyboard-response","623","1065010","0.0-21.0-2.14","c2_test",",","","","","."
"615","<p style=""color:white;""> Next Figure: Male or Female? </p>","188","html-keyboard-response","624","1065633","0.0-21.0-0.15","prediction","","","",",",""
"null","<div style=""color:white; font-size:60px;"">+</div>","null","html-keyboard-response","625","1066645","0.0-21.0-1.15","fixation","","","","",""
"778","Stimuli/Hangul_F28.bmp","190","image-keyboard-response","626","1067432","0.0-21.0-2.15","c2_test",".","","","","."
"566","<p style=""color:white;""> Next Figure: Male or Female? </p>","188","html-keyboard-response","627","1068000","0.0-21.0-0.16","prediction","","","",",",""
"null","<div style=""color:white; font-size:60px;"">+</div>","null","html-keyboard-response","628","1069004","0.0-21.0-1.16","fixation","","","","",""
"560","Stimuli/Hangul_F31.bmp","190","image-keyboard-response","629","1069567","0.0-21.0-2.16","c2_test",".","","","","."
"573","<p style=""color:white;""> Next Figure: Male or Female? </p>","188","html-keyboard-response","630","1070144","0.0-21.0-0.17","prediction","","","",",",""
"null","<div style=""color:white; font-size:60px;"">+</div>","null","html-keyboard-response","631","1071155","0.0-21.0-1.17","fixation","","","","",""
"480","Stimuli/Hangul_F33.bmp","188","image-keyboard-response","632","1071648","0.0-21.0-2.17","c2_test",".","","","",","
"906","<p style=""color:white;""> Next Figure: Male or Female? </p>","188","html-keyboard-response","633","1072561","0.0-21.0-0.18","prediction","","","",",",""
"null","<div style=""color:white; font-size:60px;"">+</div>","null","html-keyboard-response","634","1073575","0.0-21.0-1.18","fixation","","","","",""
"972","Stimuli/Hangul_M25.bmp","188","image-keyboard-response","635","1074554","0.0-21.0-2.18","c2_test",",","","","",","
"963","<p style=""color:white;""> Next Figure: Male or Female? </p>","190","html-keyboard-response","636","1075520","0.0-21.0-0.19","prediction","","","",".",""
"null","<div style=""color:white; font-size:60px;"">+</div>","null","html-keyboard-response","637","1076535","0.0-21.0-1.19","fixation","","","","",""
"673","Stimuli/Hangul_F46.bmp","190","image-keyboard-response","638","1077217","0.0-21.0-2.19","c2_test",".","","","","."
"760","<p style=""color:white;""> Next Figure: Male or Female? </p>","190","html-keyboard-response","639","1077981","0.0-21.0-0.20","prediction","","","",".",""
"null","<div style=""color:white; font-size:60px;"">+</div>","null","html-keyboard-response","640","1078995","0.0-21.0-1.20","fixation","","","","",""
"728","Stimuli/Hangul_M42.bmp","190","image-keyboard-response","641","1079731","0.0-21.0-2.20","c2_test",",","","","","."
"545","<p style=""color:white;""> Next Figure: Male or Female? </p>","190","html-keyboard-response","642","1080278","0.0-21.0-0.21","prediction","","","",".",""
"null","<div style=""color:white; font-size:60px;"">+</div>","null","html-keyboard-response","643","1081286","0.0-21.0-1.21","fixation","","","","",""
"776","Stimuli/Hangul_M44.bmp","188","image-keyboard-response","644","1082072","0.0-21.0-2.21","c2_test",",","","","",","
"1535","<p style=""color:white;""> Next Figure: Male or Female? </p>","188","html-keyboard-response","645","1083613","0.0-21.0-0.22","prediction","","","",",",""
"null","<div style=""color:white; font-size:60px;"">+</div>","null","html-keyboard-response","646","1084637","0.0-21.0-1.22","fixation","","","","",""
"788","Stimuli/Hangul_F47.bmp","188","image-keyboard-response","647","1085452","0.0-21.0-2.22","c2_test",".","","","",","
"880","<p style=""color:white;""> Next Figure: Male or Female? </p>","188","html-keyboard-response","648","1086338","0.0-21.0-0.23","prediction","","","",",",""
"null","<div style=""color:white; font-size:60px;"">+</div>","null","html-keyboard-response","649","1087345","0.0-21.0-1.23","fixation","","","","",""
"667","Stimuli/Hangul_F29.bmp","190","image-keyboard-response","650","1088022","0.0-21.0-2.23","c2_test",".","","","","."
"674","<p style=""color:white;""> Next Figure: Male or Female? </p>","188","html-keyboard-response","651","1088702","0.0-21.0-0.24","prediction","","","",",",""
"null","<div style=""color:white; font-size:60px;"">+</div>","null","html-keyboard-response","652","1089709","0.0-21.0-1.24","fixation","","","","",""
"847","Stimuli/Hangul_M28.bmp","188","image-keyboard-response","653","1090561","0.0-21.0-2.24","c2_test",",","","","",","
"945","<p style=""color:white;""> Next Figure: Male or Female? </p>","188","html-keyboard-response","654","1091514","0.0-21.0-0.25","prediction","","","",",",""
"null","<div style=""color:white; font-size:60px;"">+</div>","null","html-keyboard-response","655","1092534","0.0-21.0-1.25","fixation","","","","",""
"639","Stimuli/Hangul_F44.bmp","190","image-keyboard-response","656","1093184","0.0-21.0-2.25","c2_test",".","","","","."
"1222","<p style=""color:white;""> Next Figure: Male or Female? </p>","188","html-keyboard-response","657","1094411","0.0-21.0-0.26","prediction","","","",",",""
"null","<div style=""color:white; font-size:60px;"">+</div>","null","html-keyboard-response","658","1095427","0.0-21.0-1.26","fixation","","","","",""
"885","Stimuli/Hangul_M48.bmp","188","image-keyboard-response","659","1096325","0.0-21.0-2.26","c2_test",",","","","",","
"608","<p style=""color:white;""> Next Figure: Male or Female? </p>","188","html-keyboard-response","660","1096939","0.0-21.0-0.27","prediction","","","",",",""
"null","<div style=""color:white; font-size:60px;"">+</div>","null","html-keyboard-response","661","1097959","0.0-21.0-1.27","fixation","","","","",""
"655","Stimuli/Hangul_M45.bmp","188","image-keyboard-response","662","1098618","0.0-21.0-2.27","c2_test",",","","","",","
"816","<p style=""color:white;""> Next Figure: Male or Female? </p>","188","html-keyboard-response","663","1099439","0.0-21.0-0.28","prediction","","","",",",""
"null","<div style=""color:white; font-size:60px;"">+</div>","null","html-keyboard-response","664","1100465","0.0-21.0-1.28","fixation","","","","",""
"599","Stimuli/Hangul_F34.bmp","190","image-keyboard-response","665","1101074","0.0-21.0-2.28","c2_test",".","","","","."
"614","<p style=""color:white;""> Next Figure: Male or Female? </p>","188","html-keyboard-response","666","1101691","0.0-21.0-0.29","prediction","","","",",",""
"null","<div style=""color:white; font-size:60px;"">+</div>","null","html-keyboard-response","667","1102712","0.0-21.0-1.29","fixation","","","","",""
"823","Stimuli/Hangul_M41.bmp","190","image-keyboard-response","668","1103553","0.0-21.0-2.29","c2_test",",","","","","."
"550","<p style=""color:white;""> Next Figure: Male or Female? </p>","188","html-keyboard-response","669","1104111","0.0-21.0-0.30","prediction","","","",",",""
"null","<div style=""color:white; font-size:60px;"">+</div>","null","html-keyboard-response","670","1105135","0.0-21.0-1.30","fixation","","","","",""
"945","Stimuli/Hangul_M27.bmp","188","image-keyboard-response","671","1106088","0.0-21.0-2.30","c2_test",",","","","",","
"601","<p style=""color:white;""> Next Figure: Male or Female? </p>","188","html-keyboard-response","672","1106692","0.0-21.0-0.31","prediction","","","",",",""
"null","<div style=""color:white; font-size:60px;"">+</div>","null","html-keyboard-response","673","1107704","0.0-21.0-1.31","fixation","","","","",""
"773","Stimuli/Hangul_F27.bmp","188","image-keyboard-response","674","1108484","0.0-21.0-2.31","c2_test",".","","","",","
"720","<p style=""color:white;""> Next Figure: Male or Female? </p>","188","html-keyboard-response","675","1109213","0.0-21.0-0.32","prediction","","","",",",""
"null","<div style=""color:white; font-size:60px;"">+</div>","null","html-keyboard-response","676","1110236","0.0-21.0-1.32","fixation","","","","",""
"780","Stimuli/Hangul_M37.bmp","190","image-keyboard-response","677","1111030","0.0-21.0-2.32","c2_test",",","","","","."
"838","<p style=""color:white;""> Next Figure: Male or Female? </p>","188","html-keyboard-response","678","1111875","0.0-21.0-0.33","prediction","","","",",",""
"null","<div style=""color:white; font-size:60px;"">+</div>","null","html-keyboard-response","679","1112884","0.0-21.0-1.33","fixation","","","","",""
"606","Stimuli/Hangul_F30.bmp","190","image-keyboard-response","680","1113499","0.0-21.0-2.33","c2_test",".","","","","."
"630","<p style=""color:white;""> Next Figure: Male or Female? </p>","188","html-keyboard-response","681","1114132","0.0-21.0-0.34","prediction","","","",",",""
"null","<div style=""color:white; font-size:60px;"">+</div>","null","html-keyboard-response","682","1115157","0.0-21.0-1.34","fixation","","","","",""
"845","Stimuli/Hangul_M35.bmp","190","image-keyboard-response","683","1116023","0.0-21.0-2.34","c2_test",",","","","","."
"561","<p style=""color:white;""> Next Figure: Male or Female? </p>","188","html-keyboard-response","684","1116588","0.0-21.0-0.35","prediction","","","",",",""
"null","<div style=""color:white; font-size:60px;"">+</div>","null","html-keyboard-response","685","1117595","0.0-21.0-1.35","fixation","","","","",""
"878","Stimuli/Hangul_F38.bmp","188","image-keyboard-response","686","1118480","0.0-21.0-2.35","c2_test",".","","","",","
"628","<p style=""color:white;""> Next Figure: Male or Female? </p>","188","html-keyboard-response","687","1119116","0.0-21.0-0.36","prediction","","","",",",""
"null","<div style=""color:white; font-size:60px;"">+</div>","null","html-keyboard-response","688","1120124","0.0-21.0-1.36","fixation","","","","",""
"726","Stimuli/Hangul_M38.bmp","188","image-keyboard-response","689","1120861","0.0-21.0-2.36","c2_test",",","","","",","
"556","<p style=""color:white;""> Next Figure: Male or Female? </p>","188","html-keyboard-response","690","1121423","0.0-21.0-0.37","prediction","","","",",",""
"null","<div style=""color:white; font-size:60px;"">+</div>","null","html-keyboard-response","691","1122434","0.0-21.0-1.37","fixation","","","","",""
"615","Stimuli/Hangul_M43.bmp","190","image-keyboard-response","692","1123061","0.0-21.0-2.37","c2_test",",","","","","."
