"rt","stimulus","key_press","trial_type","trial_index","time_elapsed","internal_node_id","test_part","correct_response","C1_train","C1","A","C2"
"23352.429999999003","<p style=""color:white;"">Welcome to the experiment! Press any key to begin.</p>","76","html-keyboard-response","0","23387","0.0-0.0","","","","","",""
"108417.79499998665","<p style=""color:white;"">You will see a series of abstract figures. They are adaptations of signs in the Korean alphabet, but that is not important for this study. </p><p style=""color:white;"">Abstract figures sometimes have a more masculine or feminine shape. Here, each figure has already been assigned a gender as <q>Male</q> or <q>Female</q> by a panel of respondents in a pilot study. The respondents were not given specific instructions on how to do this, but were only told to use their intuition and to take into account the entire configuration of the stimulus. </p><p style=""color:white;"">Your task now is to guess the assigned gender of each figure. Please press the corresponding response keys to indicate your choice: </p><p style=""color:white;""> Male &#8594 <q>,</q> (comma)</p><p style=""color:white;""> Female &#8594 <q>.</q> (period)</p><p style=""color:white;"">Press either response keys to continue.</p>","188","html-keyboard-response","1","131809","0.0-1.0","","","","","",""
"1380.6250000197906","<p style=""color:white;"">Your choice is correct if it matches the gender assigned by the majority of respondents in the pilot study.</p> <p style=""color:white;"">For each correct choice you will receive 2 cents. There will be 200 trials divided into 4 blocks of 50 trials. You will be able to take a break after every 50 trials.</p> <p style=""color:white;"">Press the space bar to continue.</p>","32","html-keyboard-response","2","133193","0.0-2.0","","","","","",""
"789.6099999779835","<p style=""color:white;"">Here are some examples.</p> <p style=""color:white;"">For each, guess whether the assigned figure is male-like or female-like and indicate your choice by pressing either response keys.</p> <p style=""color:white;"">Press the space bar to continue.</p>","32","html-keyboard-response","3","133986","0.0-3.0","","","","","",""
"null","<div style=""color:white; font-size:60px;"">+</div>","null","html-keyboard-response","4","136996","0.0-4.0-0.0","fixation","","","","",""
"1939.8950000177138","Stimuli/Hangul_E1.bmp","190","image-keyboard-response","5","138941","0.0-4.0-1.0","c1_train",",",".","","",""
"null","<div style=""color:white; font-size:60px;"">+</div>","null","html-keyboard-response","6","139951","0.0-4.0-0.1","fixation","","","","",""
"2304.4649999937974","Stimuli/Hangul_E2.bmp","188","image-keyboard-response","7","142261","0.0-4.0-1.1","c1_train",".",",","","",""
"null","<div style=""color:white; font-size:60px;"">+</div>","null","html-keyboard-response","8","143266","0.0-4.0-0.2","fixation","","","","",""
"2004.849999997532","Stimuli/Hangul_E0.bmp","188","image-keyboard-response","9","145275","0.0-4.0-1.2","c1_train",",",",","","",""
"2908.2000000053085","<p style=""color:white;"">Let us begin! Press the space bar when you are ready to start block 1 of 4.</p> ","32","html-keyboard-response","10","148186","0.0-5.0","","","","","",""
"null","<div style=""color:white; font-size:60px;"">+</div>","null","html-keyboard-response","11","151191","0.0-6.0-0.0","fixation","","","","",""
"2205.0950000120793","Stimuli/Hangul_F15.bmp","190","image-keyboard-response","12","153408","0.0-6.0-1.0","test",".","",".","",""
"null","<div style=""color:white; font-size:60px;"">+</div>","null","html-keyboard-response","13","154413","0.0-6.0-0.1","fixation","","","","",""
"1796.7000000062399","Stimuli/Hangul_F14.bmp","188","image-keyboard-response","14","156213","0.0-6.0-1.1","test",".","",",","",""
"null","<div style=""color:white; font-size:60px;"">+</div>","null","html-keyboard-response","15","157218","0.0-6.0-0.2","fixation","","","","",""
"1900.0649999943562","Stimuli/Hangul_F4.bmp","188","image-keyboard-response","16","159123","0.0-6.0-1.2","test",".","",",","",""
"null","<div style=""color:white; font-size:60px;"">+</div>","null","html-keyboard-response","17","160126","0.0-6.0-0.3","fixation","","","","",""
"2086.859999981243","Stimuli/Hangul_M12.bmp","188","image-keyboard-response","18","162217","0.0-6.0-1.3","test",",","",",","",""
"null","<div style=""color:white; font-size:60px;"">+</div>","null","html-keyboard-response","19","163221","0.0-6.0-0.4","fixation","","","","",""
"3106.4950000145473","Stimuli/Hangul_M17.bmp","190","image-keyboard-response","20","166330","0.0-6.0-1.4","test",",","",".","",""
"null","<div style=""color:white; font-size:60px;"">+</div>","null","html-keyboard-response","21","167336","0.0-6.0-0.5","fixation","","","","",""
"2240.7299999904353","Stimuli/Hangul_F16.bmp","188","image-keyboard-response","22","169582","0.0-6.0-1.5","test",".","",",","",""
"null","<div style=""color:white; font-size:60px;"">+</div>","null","html-keyboard-response","23","170589","0.0-6.0-0.6","fixation","","","","",""
"2878.8250000216067","Stimuli/Hangul_M1.bmp","188","image-keyboard-response","24","173470","0.0-6.0-1.6","test",",","",",","",""
"null","<div style=""color:white; font-size:60px;"">+</div>","null","html-keyboard-response","25","174504","0.0-6.0-0.7","fixation","","","","",""
"1827.385000011418","Stimuli/Hangul_F12.bmp","188","image-keyboard-response","26","176338","0.0-6.0-1.7","test",".","",",","",""
"null","<div style=""color:white; font-size:60px;"">+</div>","null","html-keyboard-response","27","177341","0.0-6.0-0.8","fixation","","","","",""
"1916.1399999866262","Stimuli/Hangul_M18.bmp","188","image-keyboard-response","28","179263","0.0-6.0-1.8","test",",","",",","",""
"null","<div style=""color:white; font-size:60px;"">+</div>","null","html-keyboard-response","29","180266","0.0-6.0-0.9","fixation","","","","",""
"2089.7300000069663","Stimuli/Hangul_F24.bmp","190","image-keyboard-response","30","182358","0.0-6.0-1.9","test",".","",".","",""
"null","<div style=""color:white; font-size:60px;"">+</div>","null","html-keyboard-response","31","183362","0.0-6.0-0.10","fixation","","","","",""
"3056.465000001481","Stimuli/Hangul_M23.bmp","188","image-keyboard-response","32","186422","0.0-6.0-1.10","test",",","",",","",""
"null","<div style=""color:white; font-size:60px;"">+</div>","null","html-keyboard-response","33","187424","0.0-6.0-0.11","fixation","","","","",""
"2675.2399999822956","Stimuli/Hangul_M16.bmp","190","image-keyboard-response","34","190102","0.0-6.0-1.11","test",",","",".","",""
"null","<div style=""color:white; font-size:60px;"">+</div>","null","html-keyboard-response","35","191107","0.0-6.0-0.12","fixation","","","","",""
"3041.2999999825843","Stimuli/Hangul_F10.bmp","188","image-keyboard-response","36","194152","0.0-6.0-1.12","test",".","",",","",""
"null","<div style=""color:white; font-size:60px;"">+</div>","null","html-keyboard-response","37","195154","0.0-6.0-0.13","fixation","","","","",""
"3280.0400000123773","Stimuli/Hangul_M5.bmp","188","image-keyboard-response","38","198438","0.0-6.0-1.13","test",",","",",","",""
"null","<div style=""color:white; font-size:60px;"">+</div>","null","html-keyboard-response","39","199441","0.0-6.0-0.14","fixation","","","","",""
"2066.9900000211783","Stimuli/Hangul_M14.bmp","188","image-keyboard-response","40","201518","0.0-6.0-1.14","test",",","",",","",""
"null","<div style=""color:white; font-size:60px;"">+</div>","null","html-keyboard-response","41","202522","0.0-6.0-0.15","fixation","","","","",""
"1894.3900000012945","Stimuli/Hangul_M2.bmp","190","image-keyboard-response","42","204419","0.0-6.0-1.15","test",",","",".","",""
"null","<div style=""color:white; font-size:60px;"">+</div>","null","html-keyboard-response","43","205432","0.0-6.0-0.16","fixation","","","","",""
"1983.715000009397","Stimuli/Hangul_F17.bmp","188","image-keyboard-response","44","207420","0.0-6.0-1.16","test",".","",",","",""
"null","<div style=""color:white; font-size:60px;"">+</div>","null","html-keyboard-response","45","208424","0.0-6.0-0.17","fixation","","","","",""
"1999.3300000205636","Stimuli/Hangul_M11.bmp","188","image-keyboard-response","46","210429","0.0-6.0-1.17","test",",","",",","",""
"null","<div style=""color:white; font-size:60px;"">+</div>","null","html-keyboard-response","47","211434","0.0-6.0-0.18","fixation","","","","",""
"2169.999999983702","Stimuli/Hangul_F19.bmp","190","image-keyboard-response","48","213606","0.0-6.0-1.18","test",".","",".","",""
"null","<div style=""color:white; font-size:60px;"">+</div>","null","html-keyboard-response","49","214614","0.0-6.0-0.19","fixation","","","","",""
"2306.749999988824","Stimuli/Hangul_M19.bmp","190","image-keyboard-response","50","216925","0.0-6.0-1.19","test",",","",".","",""
"null","<div style=""color:white; font-size:60px;"">+</div>","null","html-keyboard-response","51","217933","0.0-6.0-0.20","fixation","","","","",""
"291.25999999814667","Stimuli/Hangul_F20.bmp","190","image-keyboard-response","52","218228","0.0-6.0-1.20","test",".","",".","",""
"null","<div style=""color:white; font-size:60px;"">+</div>","null","html-keyboard-response","53","219231","0.0-6.0-0.21","fixation","","","","",""
"308.40000000898726","Stimuli/Hangul_M9.bmp","190","image-keyboard-response","54","219541","0.0-6.0-1.21","test",",","",".","",""
"null","<div style=""color:white; font-size:60px;"">+</div>","null","html-keyboard-response","55","220544","0.0-6.0-0.22","fixation","","","","",""
"2153.950000007171","Stimuli/Hangul_M21.bmp","188","image-keyboard-response","56","222700","0.0-6.0-1.22","test",",","",",","",""
"null","<div style=""color:white; font-size:60px;"">+</div>","null","html-keyboard-response","57","223703","0.0-6.0-0.23","fixation","","","","",""
"130.50999998813495","Stimuli/Hangul_M22.bmp","190","image-keyboard-response","58","223836","0.0-6.0-1.23","test",",","",".","",""
"null","<div style=""color:white; font-size:60px;"">+</div>","null","html-keyboard-response","59","224839","0.0-6.0-0.24","fixation","","","","",""
"10038.469999999506","Stimuli/Hangul_M15.bmp","190","image-keyboard-response","60","234879","0.0-6.0-1.24","test",",","",".","",""
"null","<div style=""color:white; font-size:60px;"">+</div>","null","html-keyboard-response","61","235886","0.0-6.0-0.25","fixation","","","","",""
"2738.4900000179186","Stimuli/Hangul_M13.bmp","190","image-keyboard-response","62","238629","0.0-6.0-1.25","test",",","",".","",""
"null","<div style=""color:white; font-size:60px;"">+</div>","null","html-keyboard-response","63","239634","0.0-6.0-0.26","fixation","","","","",""
"2011.255000019446","Stimuli/Hangul_M20.bmp","188","image-keyboard-response","64","241649","0.0-6.0-1.26","test",",","",",","",""
"null","<div style=""color:white; font-size:60px;"">+</div>","null","html-keyboard-response","65","242654","0.0-6.0-0.27","fixation","","","","",""
"4201.020000007702","Stimuli/Hangul_F6.bmp","188","image-keyboard-response","66","246858","0.0-6.0-1.27","test",".","",",","",""
"null","<div style=""color:white; font-size:60px;"">+</div>","null","html-keyboard-response","67","247862","0.0-6.0-0.28","fixation","","","","",""
"6953.890000004321","Stimuli/Hangul_F18.bmp","190","image-keyboard-response","68","254825","0.0-6.0-1.28","test",".","",".","",""
"null","<div style=""color:white; font-size:60px;"">+</div>","null","html-keyboard-response","69","255843","0.0-6.0-0.29","fixation","","","","",""
"3451.360000006389","Stimuli/Hangul_F5.bmp","190","image-keyboard-response","70","259317","0.0-6.0-1.29","test",".","",".","",""
"null","<div style=""color:white; font-size:60px;"">+</div>","null","html-keyboard-response","71","260322","0.0-6.0-0.30","fixation","","","","",""
"1382.819999998901","Stimuli/Hangul_F11.bmp","188","image-keyboard-response","72","261709","0.0-6.0-1.30","test",".","",",","",""
"null","<div style=""color:white; font-size:60px;"">+</div>","null","html-keyboard-response","73","262714","0.0-6.0-0.31","fixation","","","","",""
"2007.7000000164844","Stimuli/Hangul_F0.bmp","188","image-keyboard-response","74","264726","0.0-6.0-1.31","test",".","",",","",""
"null","<div style=""color:white; font-size:60px;"">+</div>","null","html-keyboard-response","75","265730","0.0-6.0-0.32","fixation","","","","",""
"8657.64499999932","Stimuli/Hangul_F23.bmp","188","image-keyboard-response","76","274389","0.0-6.0-1.32","test",".","",",","",""
"null","<div style=""color:white; font-size:60px;"">+</div>","null","html-keyboard-response","77","275393","0.0-6.0-0.33","fixation","","","","",""
"2388.7400000239722","Stimuli/Hangul_M4.bmp","188","image-keyboard-response","78","277786","0.0-6.0-1.33","test",",","",",","",""
"null","<div style=""color:white; font-size:60px;"">+</div>","null","html-keyboard-response","79","278792","0.0-6.0-0.34","fixation","","","","",""
"786.2050000112504","Stimuli/Hangul_M8.bmp","188","image-keyboard-response","80","279584","0.0-6.0-1.34","test",",","",",","",""
"null","<div style=""color:white; font-size:60px;"">+</div>","null","html-keyboard-response","81","280590","0.0-6.0-0.35","fixation","","","","",""
"1878.0299999925774","Stimuli/Hangul_F2.bmp","190","image-keyboard-response","82","282471","0.0-6.0-1.35","test",".","",".","",""
"null","<div style=""color:white; font-size:60px;"">+</div>","null","html-keyboard-response","83","283475","0.0-6.0-0.36","fixation","","","","",""
"1140.159999980824","Stimuli/Hangul_F22.bmp","190","image-keyboard-response","84","284623","0.0-6.0-1.36","test",".","",".","",""
"null","<div style=""color:white; font-size:60px;"">+</div>","null","html-keyboard-response","85","285629","0.0-6.0-0.37","fixation","","","","",""
"5101.25499998685","Stimuli/Hangul_M0.bmp","188","image-keyboard-response","86","290735","0.0-6.0-1.37","test",",","",",","",""
"null","<div style=""color:white; font-size:60px;"">+</div>","null","html-keyboard-response","87","291739","0.0-6.0-0.38","fixation","","","","",""
"778.3800000033807","Stimuli/Hangul_F8.bmp","190","image-keyboard-response","88","292521","0.0-6.0-1.38","test",".","",".","",""
"null","<div style=""color:white; font-size:60px;"">+</div>","null","html-keyboard-response","89","293548","0.0-6.0-0.39","fixation","","","","",""
"2259.025000006659","Stimuli/Hangul_F13.bmp","188","image-keyboard-response","90","295812","0.0-6.0-1.39","test",".","",",","",""
"null","<div style=""color:white; font-size:60px;"">+</div>","null","html-keyboard-response","91","296819","0.0-6.0-0.40","fixation","","","","",""
"487.2699999832548","Stimuli/Hangul_F3.bmp","188","image-keyboard-response","92","297309","0.0-6.0-1.40","test",".","",",","",""
"null","<div style=""color:white; font-size:60px;"">+</div>","null","html-keyboard-response","93","298313","0.0-6.0-0.41","fixation","","","","",""
"254.17500000912696","Stimuli/Hangul_M6.bmp","188","image-keyboard-response","94","298569","0.0-6.0-1.41","test",",","",",","",""
"null","<div style=""color:white; font-size:60px;"">+</div>","null","html-keyboard-response","95","299574","0.0-6.0-0.42","fixation","","","","",""
"599.4650000066031","Stimuli/Hangul_M7.bmp","190","image-keyboard-response","96","300175","0.0-6.0-1.42","test",",","",".","",""
"null","<div style=""color:white; font-size:60px;"">+</div>","null","html-keyboard-response","97","301179","0.0-6.0-0.43","fixation","","","","",""
"597.2949999850243","Stimuli/Hangul_F1.bmp","188","image-keyboard-response","98","301780","0.0-6.0-1.43","test",".","",",","",""
"null","<div style=""color:white; font-size:60px;"">+</div>","null","html-keyboard-response","99","302784","0.0-6.0-0.44","fixation","","","","",""
"770.4899999953341","Stimuli/Hangul_M24.bmp","188","image-keyboard-response","100","303556","0.0-6.0-1.44","test",",","",",","",""
"null","<div style=""color:white; font-size:60px;"">+</div>","null","html-keyboard-response","101","304559","0.0-6.0-0.45","fixation","","","","",""
"1047.4649999814574","Stimuli/Hangul_F7.bmp","190","image-keyboard-response","102","305608","0.0-6.0-1.45","test",".","",".","",""
"null","<div style=""color:white; font-size:60px;"">+</div>","null","html-keyboard-response","103","306613","0.0-6.0-0.46","fixation","","","","",""
"6289.450000011129","Stimuli/Hangul_F9.bmp","188","image-keyboard-response","104","312905","0.0-6.0-1.46","test",".","",",","",""
"null","<div style=""color:white; font-size:60px;"">+</div>","null","html-keyboard-response","105","313914","0.0-6.0-0.47","fixation","","","","",""
"4735.950000002049","Stimuli/Hangul_F21.bmp","188","image-keyboard-response","106","318657","0.0-6.0-1.47","test",".","",",","",""
"null","<div style=""color:white; font-size:60px;"">+</div>","null","html-keyboard-response","107","319662","0.0-6.0-0.48","fixation","","","","",""
"3869.215000013355","Stimuli/Hangul_M3.bmp","190","image-keyboard-response","108","323539","0.0-6.0-1.48","test",",","",".","",""
"null","<div style=""color:white; font-size:60px;"">+</div>","null","html-keyboard-response","109","324542","0.0-6.0-0.49","fixation","","","","",""
"2971.820000006119","Stimuli/Hangul_M10.bmp","188","image-keyboard-response","110","327524","0.0-6.0-1.49","test",",","",",","",""
"31625.85000001127","<p style=""color:white;"">Good job, block 1 complete! Please take a moment to rest.</p> <p style=""color:white;"">When you are ready to continue with block 2 of 4, press the space bar.</p> ","32","html-keyboard-response","111","359154","0.0-7.0","","","","","",""
"null","<div style=""color:white; font-size:60px;"">+</div>","null","html-keyboard-response","112","362168","0.0-8.0-0.0","fixation","","","","",""
"905.9800000104588","Stimuli/Hangul_F35.bmp","190","image-keyboard-response","113","363077","0.0-8.0-1.0","test",".","",".","",""
"null","<div style=""color:white; font-size:60px;"">+</div>","null","html-keyboard-response","114","364082","0.0-8.0-0.1","fixation","","","","",""
"535.9400000015739","Stimuli/Hangul_M36.bmp","188","image-keyboard-response","115","364622","0.0-8.0-1.1","test",",","",",","",""
"null","<div style=""color:white; font-size:60px;"">+</div>","null","html-keyboard-response","116","365625","0.0-8.0-0.2","fixation","","","","",""
"2877.7549999940675","Stimuli/Hangul_F38.bmp","190","image-keyboard-response","117","368504","0.0-8.0-1.2","test",".","",".","",""
"null","<div style=""color:white; font-size:60px;"">+</div>","null","html-keyboard-response","118","369507","0.0-8.0-0.3","fixation","","","","",""
"1704.4849999947473","Stimuli/Hangul_M29.bmp","188","image-keyboard-response","119","371219","0.0-8.0-1.3","test",",","",",","",""
"null","<div style=""color:white; font-size:60px;"">+</div>","null","html-keyboard-response","120","372223","0.0-8.0-0.4","fixation","","","","",""
"907.1399999957066","Stimuli/Hangul_F44.bmp","190","image-keyboard-response","121","373133","0.0-8.0-1.4","test",".","",".","",""
"null","<div style=""color:white; font-size:60px;"">+</div>","null","html-keyboard-response","122","374137","0.0-8.0-0.5","fixation","","","","",""
"5581.394999986514","Stimuli/Hangul_F37.bmp","188","image-keyboard-response","123","379720","0.0-8.0-1.5","test",".","",",","",""
"null","<div style=""color:white; font-size:60px;"">+</div>","null","html-keyboard-response","124","380725","0.0-8.0-0.6","fixation","","","","",""
"2157.5149999989662","Stimuli/Hangul_F43.bmp","188","image-keyboard-response","125","382896","0.0-8.0-1.6","test",".","",",","",""
"null","<div style=""color:white; font-size:60px;"">+</div>","null","html-keyboard-response","126","383899","0.0-8.0-0.7","fixation","","","","",""
"4232.064999989234","Stimuli/Hangul_F48.bmp","190","image-keyboard-response","127","388133","0.0-8.0-1.7","test",".","",".","",""
"null","<div style=""color:white; font-size:60px;"">+</div>","null","html-keyboard-response","128","389136","0.0-8.0-0.8","fixation","","","","",""
"4870.454999996582","Stimuli/Hangul_F25.bmp","188","image-keyboard-response","129","394009","0.0-8.0-1.8","test",".","",",","",""
"null","<div style=""color:white; font-size:60px;"">+</div>","null","html-keyboard-response","130","395014","0.0-8.0-0.9","fixation","","","","",""
"9208.75000001979","Stimuli/Hangul_F40.bmp","188","image-keyboard-response","131","404226","0.0-8.0-1.9","test",".","",",","",""
"null","<div style=""color:white; font-size:60px;"">+</div>","null","html-keyboard-response","132","405234","0.0-8.0-0.10","fixation","","","","",""
"1830.51999998861","Stimuli/Hangul_F36.bmp","190","image-keyboard-response","133","407069","0.0-8.0-1.10","test",".","",".","",""
"null","<div style=""color:white; font-size:60px;"">+</div>","null","html-keyboard-response","134","408072","0.0-8.0-0.11","fixation","","","","",""
"4050.5249999987427","Stimuli/Hangul_M35.bmp","190","image-keyboard-response","135","412124","0.0-8.0-1.11","test",",","",".","",""
"null","<div style=""color:white; font-size:60px;"">+</div>","null","html-keyboard-response","136","413129","0.0-8.0-0.12","fixation","","","","",""
"1318.7399999878835","Stimuli/Hangul_F41.bmp","188","image-keyboard-response","137","414451","0.0-8.0-1.12","test",".","",",","",""
"null","<div style=""color:white; font-size:60px;"">+</div>","null","html-keyboard-response","138","415455","0.0-8.0-0.13","fixation","","","","",""
"1673.0249999964144","Stimuli/Hangul_M34.bmp","188","image-keyboard-response","139","417131","0.0-8.0-1.13","test",",","",",","",""
"null","<div style=""color:white; font-size:60px;"">+</div>","null","html-keyboard-response","140","418135","0.0-8.0-0.14","fixation","","","","",""
"1749.3549999780953","Stimuli/Hangul_F45.bmp","188","image-keyboard-response","141","419887","0.0-8.0-1.14","test",".","",",","",""
"null","<div style=""color:white; font-size:60px;"">+</div>","null","html-keyboard-response","142","420890","0.0-8.0-0.15","fixation","","","","",""
"1785.009999992326","Stimuli/Hangul_M27.bmp","190","image-keyboard-response","143","422676","0.0-8.0-1.15","test",",","",".","",""
"null","<div style=""color:white; font-size:60px;"">+</div>","null","html-keyboard-response","144","423692","0.0-8.0-0.16","fixation","","","","",""
"1663.6600000201724","Stimuli/Hangul_M30.bmp","188","image-keyboard-response","145","425365","0.0-8.0-1.16","test",",","",",","",""
"null","<div style=""color:white; font-size:60px;"">+</div>","null","html-keyboard-response","146","426371","0.0-8.0-0.17","fixation","","","","",""
"1396.2100000062492","Stimuli/Hangul_F27.bmp","188","image-keyboard-response","147","427770","0.0-8.0-1.17","test",".","",",","",""
"null","<div style=""color:white; font-size:60px;"">+</div>","null","html-keyboard-response","148","428775","0.0-8.0-0.18","fixation","","","","",""
"715.7199999783188","Stimuli/Hangul_M43.bmp","188","image-keyboard-response","149","429498","0.0-8.0-1.18","test",",","",",","",""
"null","<div style=""color:white; font-size:60px;"">+</div>","null","html-keyboard-response","150","430502","0.0-8.0-0.19","fixation","","","","",""
"467.42999998969026","Stimuli/Hangul_F28.bmp","190","image-keyboard-response","151","430971","0.0-8.0-1.19","test",".","",".","",""
"null","<div style=""color:white; font-size:60px;"">+</div>","null","html-keyboard-response","152","431975","0.0-8.0-0.20","fixation","","","","",""
"1623.429999977816","Stimuli/Hangul_F34.bmp","188","image-keyboard-response","153","433605","0.0-8.0-1.20","test",".","",",","",""
"null","<div style=""color:white; font-size:60px;"">+</div>","null","html-keyboard-response","154","434609","0.0-8.0-0.21","fixation","","","","",""
"1719.8849999986123","Stimuli/Hangul_M47.bmp","190","image-keyboard-response","155","436334","0.0-8.0-1.21","test",",","",".","",""
"null","<div style=""color:white; font-size:60px;"">+</div>","null","html-keyboard-response","156","437338","0.0-8.0-0.22","fixation","","","","",""
"1657.8949999820907","Stimuli/Hangul_M37.bmp","188","image-keyboard-response","157","438998","0.0-8.0-1.22","test",",","",",","",""
"null","<div style=""color:white; font-size:60px;"">+</div>","null","html-keyboard-response","158","440001","0.0-8.0-0.23","fixation","","","","",""
"1862.6250000088476","Stimuli/Hangul_F31.bmp","188","image-keyboard-response","159","441866","0.0-8.0-1.23","test",".","",",","",""
"null","<div style=""color:white; font-size:60px;"">+</div>","null","html-keyboard-response","160","442870","0.0-8.0-0.24","fixation","","","","",""
"919.4750000024214","Stimuli/Hangul_F42.bmp","190","image-keyboard-response","161","443791","0.0-8.0-1.24","test",".","",".","",""
"null","<div style=""color:white; font-size:60px;"">+</div>","null","html-keyboard-response","162","444795","0.0-8.0-0.25","fixation","","","","",""
"185.45499999891035","Stimuli/Hangul_F32.bmp","190","image-keyboard-response","163","444987","0.0-8.0-1.25","test",".","",".","",""
"null","<div style=""color:white; font-size:60px;"">+</div>","null","html-keyboard-response","164","445992","0.0-8.0-0.26","fixation","","","","",""
"92.18999999575317","Stimuli/Hangul_M44.bmp","188","image-keyboard-response","165","446086","0.0-8.0-1.26","test",",","",",","",""
"null","<div style=""color:white; font-size:60px;"">+</div>","null","html-keyboard-response","166","447089","0.0-8.0-0.27","fixation","","","","",""
"341.9850000063889","Stimuli/Hangul_M40.bmp","188","image-keyboard-response","167","447432","0.0-8.0-1.27","test",",","",",","",""
"null","<div style=""color:white; font-size:60px;"">+</div>","null","html-keyboard-response","168","448435","0.0-8.0-0.28","fixation","","","","",""
"1597.6549999904819","Stimuli/Hangul_M38.bmp","190","image-keyboard-response","169","450035","0.0-8.0-1.28","test",",","",".","",""
"null","<div style=""color:white; font-size:60px;"">+</div>","null","html-keyboard-response","170","451038","0.0-8.0-0.29","fixation","","","","",""
"1725.2800000132993","Stimuli/Hangul_M46.bmp","188","image-keyboard-response","171","452766","0.0-8.0-1.29","test",",","",",","",""
"null","<div style=""color:white; font-size:60px;"">+</div>","null","html-keyboard-response","172","453782","0.0-8.0-0.30","fixation","","","","",""
"1569.8750000155997","Stimuli/Hangul_F33.bmp","188","image-keyboard-response","173","455355","0.0-8.0-1.30","test",".","",",","",""
"null","<div style=""color:white; font-size:60px;"">+</div>","null","html-keyboard-response","174","456358","0.0-8.0-0.31","fixation","","","","",""
"1507.819999998901","Stimuli/Hangul_M39.bmp","188","image-keyboard-response","175","457870","0.0-8.0-1.31","test",",","",",","",""
"null","<div style=""color:white; font-size:60px;"">+</div>","null","html-keyboard-response","176","458873","0.0-8.0-0.32","fixation","","","","",""
"1647.2599999979138","Stimuli/Hangul_F49.bmp","188","image-keyboard-response","177","460522","0.0-8.0-1.32","test",".","",",","",""
"null","<div style=""color:white; font-size:60px;"">+</div>","null","html-keyboard-response","178","461529","0.0-8.0-0.33","fixation","","","","",""
"3454.0949999936856","Stimuli/Hangul_F47.bmp","188","image-keyboard-response","179","464986","0.0-8.0-1.33","test",".","",",","",""
"null","<div style=""color:white; font-size:60px;"">+</div>","null","html-keyboard-response","180","465989","0.0-8.0-0.34","fixation","","","","",""
"135.04500000271946","Stimuli/Hangul_M32.bmp","188","image-keyboard-response","181","466134","0.0-8.0-1.34","test",",","",",","",""
"null","<div style=""color:white; font-size:60px;"">+</div>","null","html-keyboard-response","182","467136","0.0-8.0-0.35","fixation","","","","",""
"4237.105000007432","Stimuli/Hangul_M48.bmp","188","image-keyboard-response","183","471377","0.0-8.0-1.35","test",",","",",","",""
"null","<div style=""color:white; font-size:60px;"">+</div>","null","html-keyboard-response","184","472382","0.0-8.0-0.36","fixation","","","","",""
"4982.304999983171","Stimuli/Hangul_M31.bmp","188","image-keyboard-response","185","477367","0.0-8.0-1.36","test",",","",",","",""
"null","<div style=""color:white; font-size:60px;"">+</div>","null","html-keyboard-response","186","478384","0.0-8.0-0.37","fixation","","","","",""
"3584.5750000153203","Stimuli/Hangul_F26.bmp","188","image-keyboard-response","187","481971","0.0-8.0-1.37","test",".","",",","",""
"null","<div style=""color:white; font-size:60px;"">+</div>","null","html-keyboard-response","188","482975","0.0-8.0-0.38","fixation","","","","",""
"6007.7150000142865","Stimuli/Hangul_M41.bmp","190","image-keyboard-response","189","488989","0.0-8.0-1.38","test",",","",".","",""
"null","<div style=""color:white; font-size:60px;"">+</div>","null","html-keyboard-response","190","489998","0.0-8.0-0.39","fixation","","","","",""
"12960.159999987809","Stimuli/Hangul_F30.bmp","190","image-keyboard-response","191","502963","0.0-8.0-1.39","test",".","",".","",""
"null","<div style=""color:white; font-size:60px;"">+</div>","null","html-keyboard-response","192","503971","0.0-8.0-0.40","fixation","","","","",""
"3564.7400000016205","Stimuli/Hangul_M33.bmp","188","image-keyboard-response","193","507539","0.0-8.0-1.40","test",",","",",","",""
"null","<div style=""color:white; font-size:60px;"">+</div>","null","html-keyboard-response","194","508546","0.0-8.0-0.41","fixation","","","","",""
"5291.2950000027195","Stimuli/Hangul_F39.bmp","190","image-keyboard-response","195","513848","0.0-8.0-1.41","test",".","",".","",""
"null","<div style=""color:white; font-size:60px;"">+</div>","null","html-keyboard-response","196","514852","0.0-8.0-0.42","fixation","","","","",""
"7953.50000000326","Stimuli/Hangul_M45.bmp","188","image-keyboard-response","197","522809","0.0-8.0-1.42","test",",","",",","",""
"null","<div style=""color:white; font-size:60px;"">+</div>","null","html-keyboard-response","198","523814","0.0-8.0-0.43","fixation","","","","",""
"1058.5450000071432","Stimuli/Hangul_M49.bmp","188","image-keyboard-response","199","524875","0.0-8.0-1.43","test",",","",",","",""
"null","<div style=""color:white; font-size:60px;"">+</div>","null","html-keyboard-response","200","525881","0.0-8.0-0.44","fixation","","","","",""
"1236.735000013141","Stimuli/Hangul_M26.bmp","190","image-keyboard-response","201","527121","0.0-8.0-1.44","test",",","",".","",""
"null","<div style=""color:white; font-size:60px;"">+</div>","null","html-keyboard-response","202","528125","0.0-8.0-0.45","fixation","","","","",""
"370.9849999868311","Stimuli/Hangul_M28.bmp","190","image-keyboard-response","203","528503","0.0-8.0-1.45","test",",","",".","",""
"null","<div style=""color:white; font-size:60px;"">+</div>","null","html-keyboard-response","204","529504","0.0-8.0-0.46","fixation","","","","",""
"1267.2650000022259","Stimuli/Hangul_M25.bmp","190","image-keyboard-response","205","530775","0.0-8.0-1.46","test",",","",".","",""
"null","<div style=""color:white; font-size:60px;"">+</div>","null","html-keyboard-response","206","531780","0.0-8.0-0.47","fixation","","","","",""
"967.5200000056066","Stimuli/Hangul_F29.bmp","188","image-keyboard-response","207","532750","0.0-8.0-1.47","test",".","",",","",""
"null","<div style=""color:white; font-size:60px;"">+</div>","null","html-keyboard-response","208","533756","0.0-8.0-0.48","fixation","","","","",""
"355.82999998587184","Stimuli/Hangul_M42.bmp","190","image-keyboard-response","209","534114","0.0-8.0-1.48","test",",","",".","",""
"null","<div style=""color:white; font-size:60px;"">+</div>","null","html-keyboard-response","210","535117","0.0-8.0-0.49","fixation","","","","",""
"1100.6099999940488","Stimuli/Hangul_F46.bmp","188","image-keyboard-response","211","536220","0.0-8.0-1.49","test",".","",",","",""
"2927.8899999917485","<p style=""color:white;"">Half way there! Please take a moment to rest.</p> <p style=""color:white;"">When you are ready to continue with block 3 of 4, press the space bar.</p> ","32","html-keyboard-response","212","539152","0.0-9.0","","","","","",""
"null","<div style=""color:white; font-size:60px;"">+</div>","null","html-keyboard-response","213","542157","0.0-10.0-0.0","fixation","","","","",""
"1094.1700000257697","Stimuli/Hangul_F51.bmp","190","image-keyboard-response","214","543257","0.0-10.0-1.0","test",".","",".","",""
"null","<div style=""color:white; font-size:60px;"">+</div>","null","html-keyboard-response","215","544270","0.0-10.0-0.1","fixation","","","","",""
"1698.0549999861978","Stimuli/Hangul_M68.bmp","190","image-keyboard-response","216","545979","0.0-10.0-1.1","test",",","",".","",""
"null","<div style=""color:white; font-size:60px;"">+</div>","null","html-keyboard-response","217","546981","0.0-10.0-0.2","fixation","","","","",""
"1683.9800000016112","Stimuli/Hangul_F53.bmp","188","image-keyboard-response","218","548669","0.0-10.0-1.2","test",".","",",","",""
"null","<div style=""color:white; font-size:60px;"">+</div>","null","html-keyboard-response","219","549674","0.0-10.0-0.3","fixation","","","","",""
"1500.32000002102","Stimuli/Hangul_F67.bmp","190","image-keyboard-response","220","551176","0.0-10.0-1.3","test",".","",".","",""
"null","<div style=""color:white; font-size:60px;"">+</div>","null","html-keyboard-response","221","552180","0.0-10.0-0.4","fixation","","","","",""
"1565.3299999830779","Stimuli/Hangul_F60.bmp","188","image-keyboard-response","222","553749","0.0-10.0-1.4","test",".","",",","",""
"null","<div style=""color:white; font-size:60px;"">+</div>","null","html-keyboard-response","223","554754","0.0-10.0-0.5","fixation","","","","",""
"1277.5700000056531","Stimuli/Hangul_M61.bmp","190","image-keyboard-response","224","556036","0.0-10.0-1.5","test",",","",".","",""
"null","<div style=""color:white; font-size:60px;"">+</div>","null","html-keyboard-response","225","557038","0.0-10.0-0.6","fixation","","","","",""
"1739.4750000094064","Stimuli/Hangul_M67.bmp","190","image-keyboard-response","226","558779","0.0-10.0-1.6","test",",","",".","",""
"null","<div style=""color:white; font-size:60px;"">+</div>","null","html-keyboard-response","227","559783","0.0-10.0-0.7","fixation","","","","",""
"1663.830000004964","Stimuli/Hangul_F62.bmp","190","image-keyboard-response","228","561450","0.0-10.0-1.7","test",".","",".","",""
"null","<div style=""color:white; font-size:60px;"">+</div>","null","html-keyboard-response","229","562455","0.0-10.0-0.8","fixation","","","","",""
"1817.7549999963958","Stimuli/Hangul_F70.bmp","188","image-keyboard-response","230","564275","0.0-10.0-1.8","test",".","",",","",""
"null","<div style=""color:white; font-size:60px;"">+</div>","null","html-keyboard-response","231","565282","0.0-10.0-0.9","fixation","","","","",""
"1765.4599999950733","Stimuli/Hangul_F59.bmp","190","image-keyboard-response","232","567050","0.0-10.0-1.9","test",".","",".","",""
"null","<div style=""color:white; font-size:60px;"">+</div>","null","html-keyboard-response","233","568056","0.0-10.0-0.10","fixation","","","","",""
"1373.9699999860022","Stimuli/Hangul_F58.bmp","190","image-keyboard-response","234","569438","0.0-10.0-1.10","test",".","",".","",""
"null","<div style=""color:white; font-size:60px;"">+</div>","null","html-keyboard-response","235","570442","0.0-10.0-0.11","fixation","","","","",""
"902.074999990873","Stimuli/Hangul_F50.bmp","188","image-keyboard-response","236","571353","0.0-10.0-1.11","test",".","",",","",""
"null","<div style=""color:white; font-size:60px;"">+</div>","null","html-keyboard-response","237","572356","0.0-10.0-0.12","fixation","","","","",""
"1566.8899999873247","Stimuli/Hangul_F68.bmp","188","image-keyboard-response","238","573925","0.0-10.0-1.12","test",".","",",","",""
"null","<div style=""color:white; font-size:60px;"">+</div>","null","html-keyboard-response","239","574929","0.0-10.0-0.13","fixation","","","","",""
"1815.1150000048801","Stimuli/Hangul_F63.bmp","190","image-keyboard-response","240","576747","0.0-10.0-1.13","test",".","",".","",""
"null","<div style=""color:white; font-size:60px;"">+</div>","null","html-keyboard-response","241","577750","0.0-10.0-0.14","fixation","","","","",""
"5580.634999991162","Stimuli/Hangul_M73.bmp","190","image-keyboard-response","242","583335","0.0-10.0-1.14","test",",","",".","",""
"null","<div style=""color:white; font-size:60px;"">+</div>","null","html-keyboard-response","243","584340","0.0-10.0-0.15","fixation","","","","",""
"103.76999998698011","Stimuli/Hangul_F57.bmp","188","image-keyboard-response","244","584452","0.0-10.0-1.15","test",".","",",","",""
"null","<div style=""color:white; font-size:60px;"">+</div>","null","html-keyboard-response","245","585469","0.0-10.0-0.16","fixation","","","","",""
"635.2649999898858","Stimuli/Hangul_F61.bmp","190","image-keyboard-response","246","586117","0.0-10.0-1.16","test",".","",".","",""
"null","<div style=""color:white; font-size:60px;"">+</div>","null","html-keyboard-response","247","587121","0.0-10.0-0.17","fixation","","","","",""
"627.5050000112969","Stimuli/Hangul_M52.bmp","190","image-keyboard-response","248","587751","0.0-10.0-1.17","test",",","",".","",""
"null","<div style=""color:white; font-size:60px;"">+</div>","null","html-keyboard-response","249","588757","0.0-10.0-0.18","fixation","","","","",""
"1108.8849999941885","Stimuli/Hangul_M63.bmp","190","image-keyboard-response","250","589868","0.0-10.0-1.18","test",",","",".","",""
"null","<div style=""color:white; font-size:60px;"">+</div>","null","html-keyboard-response","251","590872","0.0-10.0-0.19","fixation","","","","",""
"390.76499998918734","Stimuli/Hangul_M64.bmp","188","image-keyboard-response","252","591264","0.0-10.0-1.19","test",",","",",","",""
"null","<div style=""color:white; font-size:60px;"">+</div>","null","html-keyboard-response","253","592268","0.0-10.0-0.20","fixation","","","","",""
"1433.9099999924656","Stimuli/Hangul_F72.bmp","190","image-keyboard-response","254","593704","0.0-10.0-1.20","test",".","",".","",""
"null","<div style=""color:white; font-size:60px;"">+</div>","null","html-keyboard-response","255","594708","0.0-10.0-0.21","fixation","","","","",""
"10073.769999988144","Stimuli/Hangul_M54.bmp","190","image-keyboard-response","256","604785","0.0-10.0-1.21","test",",","",".","",""
"null","<div style=""color:white; font-size:60px;"">+</div>","null","html-keyboard-response","257","605789","0.0-10.0-0.22","fixation","","","","",""
"1456.6200000117533","Stimuli/Hangul_M70.bmp","188","image-keyboard-response","258","607256","0.0-10.0-1.22","test",",","",",","",""
"null","<div style=""color:white; font-size:60px;"">+</div>","null","html-keyboard-response","259","608259","0.0-10.0-0.23","fixation","","","","",""
"193.1099999928847","Stimuli/Hangul_F69.bmp","188","image-keyboard-response","260","608454","0.0-10.0-1.23","test",".","",",","",""
"null","<div style=""color:white; font-size:60px;"">+</div>","null","html-keyboard-response","261","609463","0.0-10.0-0.24","fixation","","","","",""
"110.15999998198822","Stimuli/Hangul_F54.bmp","188","image-keyboard-response","262","609579","0.0-10.0-1.24","test",".","",",","",""
"null","<div style=""color:white; font-size:60px;"">+</div>","null","html-keyboard-response","263","610583","0.0-10.0-0.25","fixation","","","","",""
"3032.0900000224356","Stimuli/Hangul_F65.bmp","188","image-keyboard-response","264","613617","0.0-10.0-1.25","test",".","",",","",""
"null","<div style=""color:white; font-size:60px;"">+</div>","null","html-keyboard-response","265","614622","0.0-10.0-0.26","fixation","","","","",""
"3453.8750000065193","Stimuli/Hangul_M57.bmp","188","image-keyboard-response","266","618085","0.0-10.0-1.26","test",",","",",","",""
"null","<div style=""color:white; font-size:60px;"">+</div>","null","html-keyboard-response","267","619097","0.0-10.0-0.27","fixation","","","","",""
"260.11500001186505","Stimuli/Hangul_F74.bmp","188","image-keyboard-response","268","619362","0.0-10.0-1.27","test",".","",",","",""
"null","<div style=""color:white; font-size:60px;"">+</div>","null","html-keyboard-response","269","620367","0.0-10.0-0.28","fixation","","","","",""
"2457.105000008596","Stimuli/Hangul_M72.bmp","190","image-keyboard-response","270","622829","0.0-10.0-1.28","test",",","",".","",""
"null","<div style=""color:white; font-size:60px;"">+</div>","null","html-keyboard-response","271","623838","0.0-10.0-0.29","fixation","","","","",""
"997.7949999738485","Stimuli/Hangul_M56.bmp","190","image-keyboard-response","272","624839","0.0-10.0-1.29","test",",","",".","",""
"null","<div style=""color:white; font-size:60px;"">+</div>","null","html-keyboard-response","273","625844","0.0-10.0-0.30","fixation","","","","",""
"3352.0750000025146","Stimuli/Hangul_M51.bmp","190","image-keyboard-response","274","629201","0.0-10.0-1.30","test",",","",".","",""
"null","<div style=""color:white; font-size:60px;"">+</div>","null","html-keyboard-response","275","630233","0.0-10.0-0.31","fixation","","","","",""
"4062.754999991739","Stimuli/Hangul_M74.bmp","190","image-keyboard-response","276","634299","0.0-10.0-1.31","test",",","",".","",""
"null","<div style=""color:white; font-size:60px;"">+</div>","null","html-keyboard-response","277","635304","0.0-10.0-0.32","fixation","","","","",""
"562.6650000049267","Stimuli/Hangul_M62.bmp","188","image-keyboard-response","278","635880","0.0-10.0-1.32","test",",","",",","",""
"null","<div style=""color:white; font-size:60px;"">+</div>","null","html-keyboard-response","279","636883","0.0-10.0-0.33","fixation","","","","",""
"1445.22500000312","Stimuli/Hangul_M69.bmp","188","image-keyboard-response","280","638331","0.0-10.0-1.33","test",",","",",","",""
"null","<div style=""color:white; font-size:60px;"">+</div>","null","html-keyboard-response","281","639335","0.0-10.0-0.34","fixation","","","","",""
"1507.7949999831617","Stimuli/Hangul_F71.bmp","190","image-keyboard-response","282","640844","0.0-10.0-1.34","test",".","",".","",""
"null","<div style=""color:white; font-size:60px;"">+</div>","null","html-keyboard-response","283","641848","0.0-10.0-0.35","fixation","","","","",""
"512.3549999843817","Stimuli/Hangul_M59.bmp","190","image-keyboard-response","284","642364","0.0-10.0-1.35","test",",","",".","",""
"null","<div style=""color:white; font-size:60px;"">+</div>","null","html-keyboard-response","285","643369","0.0-10.0-0.36","fixation","","","","",""
"1709.774999995716","Stimuli/Hangul_M58.bmp","188","image-keyboard-response","286","645082","0.0-10.0-1.36","test",",","",",","",""
"null","<div style=""color:white; font-size:60px;"">+</div>","null","html-keyboard-response","287","646091","0.0-10.0-0.37","fixation","","","","",""
"1331.4050000044517","Stimuli/Hangul_M50.bmp","188","image-keyboard-response","288","647430","0.0-10.0-1.37","test",",","",",","",""
"null","<div style=""color:white; font-size:60px;"">+</div>","null","html-keyboard-response","289","648434","0.0-10.0-0.38","fixation","","","","",""
"1647.3399999958929","Stimuli/Hangul_F52.bmp","188","image-keyboard-response","290","650083","0.0-10.0-1.38","test",".","",",","",""
"null","<div style=""color:white; font-size:60px;"">+</div>","null","html-keyboard-response","291","651090","0.0-10.0-0.39","fixation","","","","",""
"1644.269999989774","Stimuli/Hangul_M60.bmp","188","image-keyboard-response","292","652739","0.0-10.0-1.39","test",",","",",","",""
"null","<div style=""color:white; font-size:60px;"">+</div>","null","html-keyboard-response","293","653749","0.0-10.0-0.40","fixation","","","","",""
"1620.070000004489","Stimuli/Hangul_M66.bmp","190","image-keyboard-response","294","655371","0.0-10.0-1.40","test",",","",".","",""
"null","<div style=""color:white; font-size:60px;"">+</div>","null","html-keyboard-response","295","656373","0.0-10.0-0.41","fixation","","","","",""
"1748.8249999878462","Stimuli/Hangul_F66.bmp","190","image-keyboard-response","296","658129","0.0-10.0-1.41","test",".","",".","",""
"null","<div style=""color:white; font-size:60px;"">+</div>","null","html-keyboard-response","297","659133","0.0-10.0-0.42","fixation","","","","",""
"1452.7150000212714","Stimuli/Hangul_M71.bmp","188","image-keyboard-response","298","660588","0.0-10.0-1.42","test",",","",",","",""
"null","<div style=""color:white; font-size:60px;"">+</div>","null","html-keyboard-response","299","661594","0.0-10.0-0.43","fixation","","","","",""
"1404.5599999953993","Stimuli/Hangul_F55.bmp","190","image-keyboard-response","300","663000","0.0-10.0-1.43","test",".","",".","",""
"null","<div style=""color:white; font-size:60px;"">+</div>","null","html-keyboard-response","301","664004","0.0-10.0-0.44","fixation","","","","",""
"1794.499999989057","Stimuli/Hangul_M65.bmp","190","image-keyboard-response","302","665801","0.0-10.0-1.44","test",",","",".","",""
"null","<div style=""color:white; font-size:60px;"">+</div>","null","html-keyboard-response","303","666806","0.0-10.0-0.45","fixation","","","","",""
"1632.8750000102445","Stimuli/Hangul_F56.bmp","190","image-keyboard-response","304","668440","0.0-10.0-1.45","test",".","",".","",""
"null","<div style=""color:white; font-size:60px;"">+</div>","null","html-keyboard-response","305","669447","0.0-10.0-0.46","fixation","","","","",""
"3430.3150000050664","Stimuli/Hangul_M55.bmp","190","image-keyboard-response","306","672881","0.0-10.0-1.46","test",",","",".","",""
"null","<div style=""color:white; font-size:60px;"">+</div>","null","html-keyboard-response","307","673888","0.0-10.0-0.47","fixation","","","","",""
"1192.6049999892712","Stimuli/Hangul_F73.bmp","190","image-keyboard-response","308","675085","0.0-10.0-1.47","test",".","",".","",""
"null","<div style=""color:white; font-size:60px;"">+</div>","null","html-keyboard-response","309","676090","0.0-10.0-0.48","fixation","","","","",""
"309.4800000253599","Stimuli/Hangul_F64.bmp","190","image-keyboard-response","310","676406","0.0-10.0-1.48","test",".","",".","",""
"null","<div style=""color:white; font-size:60px;"">+</div>","null","html-keyboard-response","311","677409","0.0-10.0-0.49","fixation","","","","",""
"2370.324999996228","Stimuli/Hangul_M53.bmp","190","image-keyboard-response","312","679782","0.0-10.0-1.49","test",",","",".","",""
"15080.020000023069","<p style=""color:white;"">One more block to go! Please take a moment to rest.</p> <p style=""color:white;"">When you are ready to continue with block 4 of 4, press the space bar.</p> ","32","html-keyboard-response","313","694865","0.0-11.0","","","","","",""
"null","<div style=""color:white; font-size:60px;"">+</div>","null","html-keyboard-response","314","697870","0.0-12.0-0.0","fixation","","","","",""
"331.6599999961909","Stimuli/Hangul_F99.bmp","188","image-keyboard-response","315","698205","0.0-12.0-1.0","test",".","",",","",""
"null","<div style=""color:white; font-size:60px;"">+</div>","null","html-keyboard-response","316","699212","0.0-12.0-0.1","fixation","","","","",""
"875.3650000144262","Stimuli/Hangul_M92.bmp","190","image-keyboard-response","317","700091","0.0-12.0-1.1","test",",","",".","",""
"null","<div style=""color:white; font-size:60px;"">+</div>","null","html-keyboard-response","318","701094","0.0-12.0-0.2","fixation","","","","",""
"1067.479999997886","Stimuli/Hangul_F94.bmp","190","image-keyboard-response","319","702164","0.0-12.0-1.2","test",".","",".","",""
"null","<div style=""color:white; font-size:60px;"">+</div>","null","html-keyboard-response","320","703170","0.0-12.0-0.3","fixation","","","","",""
"544.2000000039116","Stimuli/Hangul_F75.bmp","190","image-keyboard-response","321","703719","0.0-12.0-1.3","test",".","",".","",""
"null","<div style=""color:white; font-size:60px;"">+</div>","null","html-keyboard-response","322","704722","0.0-12.0-0.4","fixation","","","","",""
"328.08000000659376","Stimuli/Hangul_F88.bmp","188","image-keyboard-response","323","705052","0.0-12.0-1.4","test",".","",",","",""
"null","<div style=""color:white; font-size:60px;"">+</div>","null","html-keyboard-response","324","706057","0.0-12.0-0.5","fixation","","","","",""
"94.53999999095686","Stimuli/Hangul_M94.bmp","190","image-keyboard-response","325","706153","0.0-12.0-1.5","test",",","",".","",""
"null","<div style=""color:white; font-size:60px;"">+</div>","null","html-keyboard-response","326","707156","0.0-12.0-0.6","fixation","","","","",""
"1807.604999979958","Stimuli/Hangul_M86.bmp","190","image-keyboard-response","327","708965","0.0-12.0-1.6","test",",","",".","",""
"null","<div style=""color:white; font-size:60px;"">+</div>","null","html-keyboard-response","328","709971","0.0-12.0-0.7","fixation","","","","",""
"981.5149999922141","Stimuli/Hangul_M75.bmp","188","image-keyboard-response","329","710958","0.0-12.0-1.7","test",",","",",","",""
"null","<div style=""color:white; font-size:60px;"">+</div>","null","html-keyboard-response","330","711965","0.0-12.0-0.8","fixation","","","","",""
"442.17999998363666","Stimuli/Hangul_F81.bmp","188","image-keyboard-response","331","712410","0.0-12.0-1.8","test",".","",",","",""
"null","<div style=""color:white; font-size:60px;"">+</div>","null","html-keyboard-response","332","713416","0.0-12.0-0.9","fixation","","","","",""
"665.4700000071898","Stimuli/Hangul_M93.bmp","188","image-keyboard-response","333","714088","0.0-12.0-1.9","test",",","",",","",""
"null","<div style=""color:white; font-size:60px;"">+</div>","null","html-keyboard-response","334","715099","0.0-12.0-0.10","fixation","","","","",""
"3350.204999995185","Stimuli/Hangul_M78.bmp","190","image-keyboard-response","335","718452","0.0-12.0-1.10","test",",","",".","",""
"null","<div style=""color:white; font-size:60px;"">+</div>","null","html-keyboard-response","336","719456","0.0-12.0-0.11","fixation","","","","",""
"1360.6450000079349","Stimuli/Hangul_M80.bmp","188","image-keyboard-response","337","720822","0.0-12.0-1.11","test",",","",",","",""
"null","<div style=""color:white; font-size:60px;"">+</div>","null","html-keyboard-response","338","721835","0.0-12.0-0.12","fixation","","","","",""
"6940.6650000019","Stimuli/Hangul_F98.bmp","188","image-keyboard-response","339","728779","0.0-12.0-1.12","test",".","",",","",""
"null","<div style=""color:white; font-size:60px;"">+</div>","null","html-keyboard-response","340","729787","0.0-12.0-0.13","fixation","","","","",""
"2349.560000002384","Stimuli/Hangul_F82.bmp","190","image-keyboard-response","341","732141","0.0-12.0-1.13","test",".","",".","",""
"null","<div style=""color:white; font-size:60px;"">+</div>","null","html-keyboard-response","342","733147","0.0-12.0-0.14","fixation","","","","",""
"1788.925000000745","Stimuli/Hangul_M87.bmp","188","image-keyboard-response","343","734939","0.0-12.0-1.14","test",",","",",","",""
"null","<div style=""color:white; font-size:60px;"">+</div>","null","html-keyboard-response","344","735942","0.0-12.0-0.15","fixation","","","","",""
"1680.8799999998882","Stimuli/Hangul_M90.bmp","188","image-keyboard-response","345","737637","0.0-12.0-1.15","test",",","",",","",""
"null","<div style=""color:white; font-size:60px;"">+</div>","null","html-keyboard-response","346","738641","0.0-12.0-0.16","fixation","","","","",""
"2535.6050000118557","Stimuli/Hangul_F92.bmp","188","image-keyboard-response","347","741180","0.0-12.0-1.16","test",".","",",","",""
"null","<div style=""color:white; font-size:60px;"">+</div>","null","html-keyboard-response","348","742185","0.0-12.0-0.17","fixation","","","","",""
"716.4500000071712","Stimuli/Hangul_F89.bmp","188","image-keyboard-response","349","742904","0.0-12.0-1.17","test",".","",",","",""
"null","<div style=""color:white; font-size:60px;"">+</div>","null","html-keyboard-response","350","743907","0.0-12.0-0.18","fixation","","","","",""
"780.880000005709","Stimuli/Hangul_F97.bmp","190","image-keyboard-response","351","744689","0.0-12.0-1.18","test",".","",".","",""
"null","<div style=""color:white; font-size:60px;"">+</div>","null","html-keyboard-response","352","745696","0.0-12.0-0.19","fixation","","","","",""
"1587.100000004284","Stimuli/Hangul_F87.bmp","188","image-keyboard-response","353","747287","0.0-12.0-1.19","test",".","",",","",""
"null","<div style=""color:white; font-size:60px;"">+</div>","null","html-keyboard-response","354","748291","0.0-12.0-0.20","fixation","","","","",""
"4295.815000019502","Stimuli/Hangul_M79.bmp","190","image-keyboard-response","355","752591","0.0-12.0-1.20","test",",","",".","",""
"null","<div style=""color:white; font-size:60px;"">+</div>","null","html-keyboard-response","356","753600","0.0-12.0-0.21","fixation","","","","",""
"890.289999981178","Stimuli/Hangul_M95.bmp","188","image-keyboard-response","357","754493","0.0-12.0-1.21","test",",","",",","",""
"null","<div style=""color:white; font-size:60px;"">+</div>","null","html-keyboard-response","358","755499","0.0-12.0-0.22","fixation","","","","",""
"2197.359999991022","Stimuli/Hangul_M89.bmp","188","image-keyboard-response","359","757699","0.0-12.0-1.22","test",",","",",","",""
"null","<div style=""color:white; font-size:60px;"">+</div>","null","html-keyboard-response","360","758706","0.0-12.0-0.23","fixation","","","","",""
"1302.2650000057183","Stimuli/Hangul_F78.bmp","188","image-keyboard-response","361","760011","0.0-12.0-1.23","test",".","",",","",""
"null","<div style=""color:white; font-size:60px;"">+</div>","null","html-keyboard-response","362","761017","0.0-12.0-0.24","fixation","","","","",""
"840.6550000072457","Stimuli/Hangul_F86.bmp","188","image-keyboard-response","363","761863","0.0-12.0-1.24","test",".","",",","",""
"null","<div style=""color:white; font-size:60px;"">+</div>","null","html-keyboard-response","364","762868","0.0-12.0-0.25","fixation","","","","",""
"2168.169999989914","Stimuli/Hangul_M83.bmp","188","image-keyboard-response","365","765039","0.0-12.0-1.25","test",",","",",","",""
"null","<div style=""color:white; font-size:60px;"">+</div>","null","html-keyboard-response","366","766042","0.0-12.0-0.26","fixation","","","","",""
"2084.984999994049","Stimuli/Hangul_M81.bmp","188","image-keyboard-response","367","768136","0.0-12.0-1.26","test",",","",",","",""
"null","<div style=""color:white; font-size:60px;"">+</div>","null","html-keyboard-response","368","769138","0.0-12.0-0.27","fixation","","","","",""
"1217.6699999836273","Stimuli/Hangul_M97.bmp","188","image-keyboard-response","369","770357","0.0-12.0-1.27","test",",","",",","",""
"null","<div style=""color:white; font-size:60px;"">+</div>","null","html-keyboard-response","370","771367","0.0-12.0-0.28","fixation","","","","",""
"757.9350000014529","Stimuli/Hangul_F90.bmp","190","image-keyboard-response","371","772130","0.0-12.0-1.28","test",".","",".","",""
"null","<div style=""color:white; font-size:60px;"">+</div>","null","html-keyboard-response","372","773138","0.0-12.0-0.29","fixation","","","","",""
"780.0399999832734","Stimuli/Hangul_F77.bmp","190","image-keyboard-response","373","773929","0.0-12.0-1.29","test",".","",".","",""
"null","<div style=""color:white; font-size:60px;"">+</div>","null","html-keyboard-response","374","774934","0.0-12.0-0.30","fixation","","","","",""
"2076.2050000193994","Stimuli/Hangul_M82.bmp","188","image-keyboard-response","375","777016","0.0-12.0-1.30","test",",","",",","",""
"null","<div style=""color:white; font-size:60px;"">+</div>","null","html-keyboard-response","376","778022","0.0-12.0-0.31","fixation","","","","",""
"546.5750000148546","Stimuli/Hangul_M77.bmp","188","image-keyboard-response","377","778571","0.0-12.0-1.31","test",",","",",","",""
"null","<div style=""color:white; font-size:60px;"">+</div>","null","html-keyboard-response","378","779574","0.0-12.0-0.32","fixation","","","","",""
"1882.4250000179745","Stimuli/Hangul_F96.bmp","188","image-keyboard-response","379","781461","0.0-12.0-1.32","test",".","",",","",""
"null","<div style=""color:white; font-size:60px;"">+</div>","null","html-keyboard-response","380","782489","0.0-12.0-0.33","fixation","","","","",""
"1136.2150000059046","Stimuli/Hangul_F95.bmp","188","image-keyboard-response","381","783636","0.0-12.0-1.33","test",".","",",","",""
"null","<div style=""color:white; font-size:60px;"">+</div>","null","html-keyboard-response","382","784639","0.0-12.0-0.34","fixation","","","","",""
"2572.020000021439","Stimuli/Hangul_F91.bmp","188","image-keyboard-response","383","787213","0.0-12.0-1.34","test",".","",",","",""
"null","<div style=""color:white; font-size:60px;"">+</div>","null","html-keyboard-response","384","788218","0.0-12.0-0.35","fixation","","","","",""
"1699.6849999995902","Stimuli/Hangul_F80.bmp","188","image-keyboard-response","385","789922","0.0-12.0-1.35","test",".","",",","",""
"null","<div style=""color:white; font-size:60px;"">+</div>","null","html-keyboard-response","386","790939","0.0-12.0-0.36","fixation","","","","",""
"832.4950000096578","Stimuli/Hangul_F79.bmp","188","image-keyboard-response","387","791773","0.0-12.0-1.36","test",".","",",","",""
"null","<div style=""color:white; font-size:60px;"">+</div>","null","html-keyboard-response","388","792778","0.0-12.0-0.37","fixation","","","","",""
"1835.9749999945052","Stimuli/Hangul_M98.bmp","188","image-keyboard-response","389","794618","0.0-12.0-1.37","test",",","",",","",""
"null","<div style=""color:white; font-size:60px;"">+</div>","null","html-keyboard-response","390","795622","0.0-12.0-0.38","fixation","","","","",""
"1898.8349999999627","Stimuli/Hangul_F76.bmp","190","image-keyboard-response","391","797523","0.0-12.0-1.38","test",".","",".","",""
"null","<div style=""color:white; font-size:60px;"">+</div>","null","html-keyboard-response","392","798525","0.0-12.0-0.39","fixation","","","","",""
"1178.8300000189338","Stimuli/Hangul_M96.bmp","188","image-keyboard-response","393","799708","0.0-12.0-1.39","test",",","",",","",""
"null","<div style=""color:white; font-size:60px;"">+</div>","null","html-keyboard-response","394","800715","0.0-12.0-0.40","fixation","","","","",""
"283.68500000215136","Stimuli/Hangul_F93.bmp","190","image-keyboard-response","395","801002","0.0-12.0-1.40","test",".","",".","",""
"null","<div style=""color:white; font-size:60px;"">+</div>","null","html-keyboard-response","396","802005","0.0-12.0-0.41","fixation","","","","",""
"714.944999985164","Stimuli/Hangul_F83.bmp","190","image-keyboard-response","397","802722","0.0-12.0-1.41","test",".","",".","",""
"null","<div style=""color:white; font-size:60px;"">+</div>","null","html-keyboard-response","398","803731","0.0-12.0-0.42","fixation","","","","",""
"28.009999979985878","Stimuli/Hangul_M76.bmp","188","image-keyboard-response","399","803763","0.0-12.0-1.42","test",",","",",","",""
"null","<div style=""color:white; font-size:60px;"">+</div>","null","html-keyboard-response","400","804767","0.0-12.0-0.43","fixation","","","","",""
"2339.609999995446","Stimuli/Hangul_M84.bmp","188","image-keyboard-response","401","807109","0.0-12.0-1.43","test",",","",",","",""
"null","<div style=""color:white; font-size:60px;"">+</div>","null","html-keyboard-response","402","808117","0.0-12.0-0.44","fixation","","","","",""
"4582.659999985481","Stimuli/Hangul_M88.bmp","188","image-keyboard-response","403","812702","0.0-12.0-1.44","test",",","",",","",""
"null","<div style=""color:white; font-size:60px;"">+</div>","null","html-keyboard-response","404","813707","0.0-12.0-0.45","fixation","","","","",""
"4057.7700000139885","Stimuli/Hangul_F85.bmp","190","image-keyboard-response","405","817778","0.0-12.0-1.45","test",".","",".","",""
"null","<div style=""color:white; font-size:60px;"">+</div>","null","html-keyboard-response","406","818790","0.0-12.0-0.46","fixation","","","","",""
"2016.9049999967683","Stimuli/Hangul_F84.bmp","188","image-keyboard-response","407","820816","0.0-12.0-1.46","test",".","",",","",""
"null","<div style=""color:white; font-size:60px;"">+</div>","null","html-keyboard-response","408","821823","0.0-12.0-0.47","fixation","","","","",""
"2681.5050000150222","Stimuli/Hangul_M91.bmp","188","image-keyboard-response","409","824506","0.0-12.0-1.47","test",",","",",","",""
"null","<div style=""color:white; font-size:60px;"">+</div>","null","html-keyboard-response","410","825508","0.0-12.0-0.48","fixation","","","","",""
"5021.90000002156","Stimuli/Hangul_M85.bmp","190","image-keyboard-response","411","830541","0.0-12.0-1.48","test",",","",".","",""
"null","<div style=""color:white; font-size:60px;"">+</div>","null","html-keyboard-response","412","831546","0.0-12.0-0.49","fixation","","","","",""
"216.03000001050532","Stimuli/Hangul_M99.bmp","190","image-keyboard-response","413","831767","0.0-12.0-1.49","test",",","",".","",""
"2180.354999989504","<p style=""color:white;"">Phase I of the experiment is complete.</p> <p style=""color:white;"">Press the space bar to proceed to Phase II of the experiment.</p> ","32","html-keyboard-response","414","833951","0.0-13.0","","","","","",""
"13814.505000016652","<p style=""color:white;"">Now we are interested in how well you can predict patterns in the series of figures. You will be asked to predict whether the next figure in the series is more male-like or female-like. When you see the <q>Next Figure</q> prompt, press the corresponding response keys to indicate your prediction: </p><p style=""color:white;""> Male &#8594 <q>,</q> (comma)</p><p style=""color:white;""> Female &#8594 <q>.</q> (period)</p><p style=""color:white;"">The actual figure will then appear on the screen. After you see the figure, please guess the assigned gender with response keys. </p><p style=""color:white;"">As before, you will receive 2 cents for correctly classifying each figure.</p><p style=""color:white;"">Press either response keys to continue.</p>","188","html-keyboard-response","415","849770","0.0-14.0","","","","","",""
"1662.2499999939464","<p style=""color:white;"">PREDICTION BONUS</p> <p style=""color:white;"">Your prediction accuracy is the total number of correct predictions you make over the 200 trials.</p> <p style=""color:white;"">In addition to the 2 cents per correct figure classification, you have the chance to receive a bonus of 40 dollars IF your accuracy is above average relative to previous participants.</p><p style=""color:white;"">If your accuracy is below average relative to previous participants, then you will not receive the 40 dollar bonus.</p><p style=""color:white;"">Press the space bar to continue.</p>","32","html-keyboard-response","416","851435","0.0-15.0","","","","","",""
"768.4250000165775","<p style=""color:white;"">Here are some examples.</p> <p style=""color:white;"">For each, predict whether the next figure looks more male-like or female-like. Then, when the figure appears, guess whether it looks more male-like or female-like and indicate your choice.</p> <p style=""color:white;"">Press the space bar to continue.</p>","32","html-keyboard-response","417","852211","0.0-16.0","","","","","",""
"10083.809999981895","<p style=""color:white;""> Next Figure: Male or Female? </p>","188","html-keyboard-response","418","864301","0.0-17.0-0.0","prediction_train","","","",",",""
"null","<div style=""color:white; font-size:60px;"">+</div>","null","html-keyboard-response","419","865304","0.0-17.0-1.0","fixation","","","","",""
"969.4449999951757","Stimuli/Hangul_E1.bmp","190","image-keyboard-response","420","866277","0.0-17.0-2.0","c2_train",",","","","","."
"4135.819999995874","<p style=""color:white;""> Next Figure: Male or Female? </p>","188","html-keyboard-response","421","870416","0.0-17.0-0.1","prediction_train","","","",",",""
"null","<div style=""color:white; font-size:60px;"">+</div>","null","html-keyboard-response","422","871421","0.0-17.0-1.1","fixation","","","","",""
"776.1650000174996","Stimuli/Hangul_E0.bmp","190","image-keyboard-response","423","872199","0.0-17.0-2.1","c2_train",",","","","","."
"4204.525000008289","<p style=""color:white;""> Next Figure: Male or Female? </p>","188","html-keyboard-response","424","876406","0.0-17.0-0.2","prediction_train","","","",",",""
"null","<div style=""color:white; font-size:60px;"">+</div>","null","html-keyboard-response","425","877412","0.0-17.0-1.2","fixation","","","","",""
"1285.4499999957625","Stimuli/Hangul_E2.bmp","188","image-keyboard-response","426","878701","0.0-17.0-2.2","c2_train",".","","","",","
"2286.3300000026356","<p style=""color:white;"">Let us begin! Press the space bar when you are ready to start block 1 of 4.</p> ","32","html-keyboard-response","427","880990","0.0-18.0","","","","","",""
"5108.240000001388","<p style=""color:white;""> Next Figure: Male or Female? </p>","190","html-keyboard-response","428","888111","0.0-19.0-0.0","prediction","","","",".",""
"null","<div style=""color:white; font-size:60px;"">+</div>","null","html-keyboard-response","429","889117","0.0-19.0-1.0","fixation","","","","",""
"2190.3199999942444","Stimuli/Hangul_F22.bmp","190","image-keyboard-response","430","891312","0.0-19.0-2.0","c2_test",".","","","","."
"1096.9500000064727","<p style=""color:white;""> Next Figure: Male or Female? </p>","188","html-keyboard-response","431","892412","0.0-19.0-0.1","prediction","","","",",",""
"null","<div style=""color:white; font-size:60px;"">+</div>","null","html-keyboard-response","432","893422","0.0-19.0-1.1","fixation","","","","",""
"6925.309999991441","Stimuli/Hangul_F2.bmp","188","image-keyboard-response","433","900357","0.0-19.0-2.1","c2_test",".","","","",","
"1000.2549999917392","<p style=""color:white;""> Next Figure: Male or Female? </p>","188","html-keyboard-response","434","901360","0.0-19.0-0.2","prediction","","","",",",""
"null","<div style=""color:white; font-size:60px;"">+</div>","null","html-keyboard-response","435","902367","0.0-19.0-1.2","fixation","","","","",""
"958.3550000097603","Stimuli/Hangul_M6.bmp","188","image-keyboard-response","436","903329","0.0-19.0-2.2","c2_test",",","","","",","
"1058.38999999105","<p style=""color:white;""> Next Figure: Male or Female? </p>","188","html-keyboard-response","437","904390","0.0-19.0-0.3","prediction","","","",",",""
"null","<div style=""color:white; font-size:60px;"">+</div>","null","html-keyboard-response","438","905399","0.0-19.0-1.3","fixation","","","","",""
"1349.8600000166334","Stimuli/Hangul_F20.bmp","188","image-keyboard-response","439","906750","0.0-19.0-2.3","c2_test",".","","","",","
"2568.2949999754783","<p style=""color:white;""> Next Figure: Male or Female? </p>","188","html-keyboard-response","440","909321","0.0-19.0-0.4","prediction","","","",",",""
"null","<div style=""color:white; font-size:60px;"">+</div>","null","html-keyboard-response","441","910325","0.0-19.0-1.4","fixation","","","","",""
"540.4250000137836","Stimuli/Hangul_F24.bmp","190","image-keyboard-response","442","910872","0.0-19.0-2.4","c2_test",".","","","","."
"4116.359999985434","<p style=""color:white;""> Next Figure: Male or Female? </p>","188","html-keyboard-response","443","914990","0.0-19.0-0.5","prediction","","","",",",""
"null","<div style=""color:white; font-size:60px;"">+</div>","null","html-keyboard-response","444","915995","0.0-19.0-1.5","fixation","","","","",""
"1985.1349999953527","Stimuli/Hangul_F15.bmp","188","image-keyboard-response","445","917985","0.0-19.0-2.5","c2_test",".","","","",","
"6279.494999995222","<p style=""color:white;""> Next Figure: Male or Female? </p>","190","html-keyboard-response","446","924267","0.0-19.0-0.6","prediction","","","",".",""
"null","<div style=""color:white; font-size:60px;"">+</div>","null","html-keyboard-response","447","925273","0.0-19.0-1.6","fixation","","","","",""
"47.85999999148771","Stimuli/Hangul_M4.bmp","190","image-keyboard-response","448","925323","0.0-19.0-2.6","c2_test",",","","","","."
"15693.895000003977","<p style=""color:white;""> Next Figure: Male or Female? </p>","188","html-keyboard-response","449","941020","0.0-19.0-0.7","prediction","","","",",",""
"null","<div style=""color:white; font-size:60px;"">+</div>","null","html-keyboard-response","450","942023","0.0-19.0-1.7","fixation","","","","",""
"2097.6099999970756","Stimuli/Hangul_M17.bmp","190","image-keyboard-response","451","944147","0.0-19.0-2.7","c2_test",",","","","","."
"1484.4599999778438","<p style=""color:white;""> Next Figure: Male or Female? </p>","190","html-keyboard-response","452","945635","0.0-19.0-0.8","prediction","","","",".",""
"null","<div style=""color:white; font-size:60px;"">+</div>","null","html-keyboard-response","453","946638","0.0-19.0-1.8","fixation","","","","",""
"2077.514999982668","Stimuli/Hangul_F16.bmp","190","image-keyboard-response","454","948721","0.0-19.0-2.8","c2_test",".","","","","."
"2036.1350000021048","<p style=""color:white;""> Next Figure: Male or Female? </p>","188","html-keyboard-response","455","950759","0.0-19.0-0.9","prediction","","","",",",""
"null","<div style=""color:white; font-size:60px;"">+</div>","null","html-keyboard-response","456","951763","0.0-19.0-1.9","fixation","","","","",""
"669.5650000183377","Stimuli/Hangul_F5.bmp","190","image-keyboard-response","457","952437","0.0-19.0-2.9","c2_test",".","","","","."
"2224.549999984447","<p style=""color:white;""> Next Figure: Male or Female? </p>","190","html-keyboard-response","458","954664","0.0-19.0-0.10","prediction","","","",".",""
"null","<div style=""color:white; font-size:60px;"">+</div>","null","html-keyboard-response","459","955674","0.0-19.0-1.10","fixation","","","","",""
"1444.0250000043306","Stimuli/Hangul_M15.bmp","188","image-keyboard-response","460","957121","0.0-19.0-2.10","c2_test",",","","","",","
"2560.174999991432","<p style=""color:white;""> Next Figure: Male or Female? </p>","190","html-keyboard-response","461","959687","0.0-19.0-0.11","prediction","","","",".",""
"null","<div style=""color:white; font-size:60px;"">+</div>","null","html-keyboard-response","462","960699","0.0-19.0-1.11","fixation","","","","",""
"1057.1800000034273","Stimuli/Hangul_F17.bmp","190","image-keyboard-response","463","961759","0.0-19.0-2.11","c2_test",".","","","","."
"2428.2449999882374","<p style=""color:white;""> Next Figure: Male or Female? </p>","190","html-keyboard-response","464","964192","0.0-19.0-0.12","prediction","","","",".",""
"null","<div style=""color:white; font-size:60px;"">+</div>","null","html-keyboard-response","465","965199","0.0-19.0-1.12","fixation","","","","",""
"2368.335000006482","Stimuli/Hangul_M22.bmp","190","image-keyboard-response","466","967572","0.0-19.0-2.12","c2_test",",","","","","."
"2209.6500000043306","<p style=""color:white;""> Next Figure: Male or Female? </p>","188","html-keyboard-response","467","969784","0.0-19.0-0.13","prediction","","","",",",""
"null","<div style=""color:white; font-size:60px;"">+</div>","null","html-keyboard-response","468","970787","0.0-19.0-1.13","fixation","","","","",""
"943.9699999929871","Stimuli/Hangul_M7.bmp","190","image-keyboard-response","469","971734","0.0-19.0-2.13","c2_test",",","","","","."
"2396.600000007311","<p style=""color:white;""> Next Figure: Male or Female? </p>","188","html-keyboard-response","470","974136","0.0-19.0-0.14","prediction","","","",",",""
"null","<div style=""color:white; font-size:60px;"">+</div>","null","html-keyboard-response","471","975141","0.0-19.0-1.14","fixation","","","","",""
"238.31499999505468","Stimuli/Hangul_F21.bmp","188","image-keyboard-response","472","975390","0.0-19.0-2.14","c2_test",".","","","",","
"2570.0099999958184","<p style=""color:white;""> Next Figure: Male or Female? </p>","188","html-keyboard-response","473","977962","0.0-19.0-0.15","prediction","","","",",",""
"null","<div style=""color:white; font-size:60px;"">+</div>","null","html-keyboard-response","474","978967","0.0-19.0-1.15","fixation","","","","",""
"167.90499998023733","Stimuli/Hangul_F19.bmp","188","image-keyboard-response","475","979139","0.0-19.0-2.15","c2_test",".","","","",","
"462.0849999773782","<p style=""color:white;""> Next Figure: Male or Female? </p>","190","html-keyboard-response","476","979606","0.0-19.0-0.16","prediction","","","",".",""
"null","<div style=""color:white; font-size:60px;"">+</div>","null","html-keyboard-response","477","980608","0.0-19.0-1.16","fixation","","","","",""
"12699.854999984382","Stimuli/Hangul_M11.bmp","188","image-keyboard-response","478","993325","0.0-19.0-2.16","c2_test",",","","","",","
"3027.974999975413","<p style=""color:white;""> Next Figure: Male or Female? </p>","188","html-keyboard-response","479","996356","0.0-19.0-0.17","prediction","","","",",",""
"null","<div style=""color:white; font-size:60px;"">+</div>","null","html-keyboard-response","480","997367","0.0-19.0-1.17","fixation","","","","",""
"604.3549999885727","Stimuli/Hangul_M19.bmp","188","image-keyboard-response","481","997977","0.0-19.0-2.17","c2_test",",","","","",","
"2429.4349999981932","<p style=""color:white;""> Next Figure: Male or Female? </p>","188","html-keyboard-response","482","1000408","0.0-19.0-0.18","prediction","","","",",",""
"null","<div style=""color:white; font-size:60px;"">+</div>","null","html-keyboard-response","483","1001412","0.0-19.0-1.18","fixation","","","","",""
"1531.3849999802187","Stimuli/Hangul_F14.bmp","190","image-keyboard-response","484","1002948","0.0-19.0-2.18","c2_test",".","","","","."
"3154.1399999987334","<p style=""color:white;""> Next Figure: Male or Female? </p>","190","html-keyboard-response","485","1006104","0.0-19.0-0.19","prediction","","","",".",""
"null","<div style=""color:white; font-size:60px;"">+</div>","null","html-keyboard-response","486","1007107","0.0-19.0-1.19","fixation","","","","",""
"2710.1700000057463","Stimuli/Hangul_F10.bmp","190","image-keyboard-response","487","1009823","0.0-19.0-2.19","c2_test",".","","","","."
"3209.3799999856856","<p style=""color:white;""> Next Figure: Male or Female? </p>","188","html-keyboard-response","488","1013035","0.0-19.0-0.20","prediction","","","",",",""
"null","<div style=""color:white; font-size:60px;"">+</div>","null","html-keyboard-response","489","1014042","0.0-19.0-1.20","fixation","","","","",""
"1566.8349999759812","Stimuli/Hangul_M20.bmp","190","image-keyboard-response","490","1015620","0.0-19.0-2.20","c2_test",",","","","","."
"3651.160000008531","<p style=""color:white;""> Next Figure: Male or Female? </p>","188","html-keyboard-response","491","1019273","0.0-19.0-0.21","prediction","","","",",",""
"null","<div style=""color:white; font-size:60px;"">+</div>","null","html-keyboard-response","492","1020280","0.0-19.0-1.21","fixation","","","","",""
"268.1649999867659","Stimuli/Hangul_F9.bmp","188","image-keyboard-response","493","1020559","0.0-19.0-2.21","c2_test",".","","","",","
"2242.0899999851827","<p style=""color:white;""> Next Figure: Male or Female? </p>","188","html-keyboard-response","494","1022804","0.0-19.0-0.22","prediction","","","",",",""
"null","<div style=""color:white; font-size:60px;"">+</div>","null","html-keyboard-response","495","1023815","0.0-19.0-1.22","fixation","","","","",""
"988.7600000074599","Stimuli/Hangul_M8.bmp","188","image-keyboard-response","496","1024822","0.0-19.0-2.22","c2_test",",","","","",","
"2007.2999999974854","<p style=""color:white;""> Next Figure: Male or Female? </p>","188","html-keyboard-response","497","1026832","0.0-19.0-0.23","prediction","","","",",",""
"null","<div style=""color:white; font-size:60px;"">+</div>","null","html-keyboard-response","498","1027838","0.0-19.0-1.23","fixation","","","","",""
"1758.6500000033993","Stimuli/Hangul_M5.bmp","188","image-keyboard-response","499","1029599","0.0-19.0-2.23","c2_test",",","","","",","
"10194.57500000135","<p style=""color:white;""> Next Figure: Male or Female? </p>","188","html-keyboard-response","500","1039796","0.0-19.0-0.24","prediction","","","",",",""
"null","<div style=""color:white; font-size:60px;"">+</div>","null","html-keyboard-response","501","1040800","0.0-19.0-1.24","fixation","","","","",""
"849.820000003092","Stimuli/Hangul_M0.bmp","188","image-keyboard-response","502","1041653","0.0-19.0-2.24","c2_test",",","","","",","
"1763.310000009369","<p style=""color:white;""> Next Figure: Male or Female? </p>","188","html-keyboard-response","503","1043418","0.0-19.0-0.25","prediction","","","",",",""
"null","<div style=""color:white; font-size:60px;"">+</div>","null","html-keyboard-response","504","1044425","0.0-19.0-1.25","fixation","","","","",""
"757.0199999900069","Stimuli/Hangul_F3.bmp","190","image-keyboard-response","505","1045186","0.0-19.0-2.25","c2_test",".","","","","."
"827.5549999962095","<p style=""color:white;""> Next Figure: Male or Female? </p>","190","html-keyboard-response","506","1046015","0.0-19.0-0.26","prediction","","","",".",""
"null","<div style=""color:white; font-size:60px;"">+</div>","null","html-keyboard-response","507","1047019","0.0-19.0-1.26","fixation","","","","",""
"1744.4699999759905","Stimuli/Hangul_M24.bmp","188","image-keyboard-response","508","1048767","0.0-19.0-2.26","c2_test",",","","","",","
"2337.8800000064075","<p style=""color:white;""> Next Figure: Male or Female? </p>","188","html-keyboard-response","509","1051107","0.0-19.0-0.27","prediction","","","",",",""
"null","<div style=""color:white; font-size:60px;"">+</div>","null","html-keyboard-response","510","1052111","0.0-19.0-1.27","fixation","","","","",""
"3343.3749999967404","Stimuli/Hangul_M14.bmp","188","image-keyboard-response","511","1055458","0.0-19.0-2.27","c2_test",",","","","",","
"3438.795000023674","<p style=""color:white;""> Next Figure: Male or Female? </p>","190","html-keyboard-response","512","1058900","0.0-19.0-0.28","prediction","","","",".",""
"null","<div style=""color:white; font-size:60px;"">+</div>","null","html-keyboard-response","513","1059902","0.0-19.0-1.28","fixation","","","","",""
"979.8699999810196","Stimuli/Hangul_M13.bmp","190","image-keyboard-response","514","1060887","0.0-19.0-2.28","c2_test",",","","","","."
"2695.5700000107754","<p style=""color:white;""> Next Figure: Male or Female? </p>","188","html-keyboard-response","515","1063585","0.0-19.0-0.29","prediction","","","",",",""
"null","<div style=""color:white; font-size:60px;"">+</div>","null","html-keyboard-response","516","1064592","0.0-19.0-1.29","fixation","","","","",""
"553.4299999999348","Stimuli/Hangul_F6.bmp","188","image-keyboard-response","517","1065160","0.0-19.0-2.29","c2_test",".","","","",","
"1540.679999976419","<p style=""color:white;""> Next Figure: Male or Female? </p>","190","html-keyboard-response","518","1066708","0.0-19.0-0.30","prediction","","","",".",""
"null","<div style=""color:white; font-size:60px;"">+</div>","null","html-keyboard-response","519","1067712","0.0-19.0-1.30","fixation","","","","",""
"1676.2949999829289","Stimuli/Hangul_F23.bmp","188","image-keyboard-response","520","1069393","0.0-19.0-2.30","c2_test",".","","","",","
"2949.9899999937043","<p style=""color:white;""> Next Figure: Male or Female? </p>","190","html-keyboard-response","521","1072348","0.0-19.0-0.31","prediction","","","",".",""
"null","<div style=""color:white; font-size:60px;"">+</div>","null","html-keyboard-response","522","1073352","0.0-19.0-1.31","fixation","","","","",""
"292.61000000406057","Stimuli/Hangul_F18.bmp","188","image-keyboard-response","523","1073649","0.0-19.0-2.31","c2_test",".","","","",","
"3132.110000005923","<p style=""color:white;""> Next Figure: Male or Female? </p>","188","html-keyboard-response","524","1076785","0.0-19.0-0.32","prediction","","","",",",""
"null","<div style=""color:white; font-size:60px;"">+</div>","null","html-keyboard-response","525","1077791","0.0-19.0-1.32","fixation","","","","",""
"785.844999976689","Stimuli/Hangul_F11.bmp","188","image-keyboard-response","526","1078588","0.0-19.0-2.32","c2_test",".","","","",","
"4064.0049999929033","<p style=""color:white;""> Next Figure: Male or Female? </p>","188","html-keyboard-response","527","1082655","0.0-19.0-0.33","prediction","","","",",",""
"null","<div style=""color:white; font-size:60px;"">+</div>","null","html-keyboard-response","528","1083658","0.0-19.0-1.33","fixation","","","","",""
"1996.000000013737","Stimuli/Hangul_M18.bmp","190","image-keyboard-response","529","1085660","0.0-19.0-2.33","c2_test",",","","","","."
"1890.864999993937","<p style=""color:white;""> Next Figure: Male or Female? </p>","188","html-keyboard-response","530","1087555","0.0-19.0-0.34","prediction","","","",",",""
"null","<div style=""color:white; font-size:60px;"">+</div>","null","html-keyboard-response","531","1088562","0.0-19.0-1.34","fixation","","","","",""
"2523.414999974193","Stimuli/Hangul_F7.bmp","190","image-keyboard-response","532","1091094","0.0-19.0-2.34","c2_test",".","","","","."
"1450.364999996964","<p style=""color:white;""> Next Figure: Male or Female? </p>","188","html-keyboard-response","533","1092548","0.0-19.0-0.35","prediction","","","",",",""
"null","<div style=""color:white; font-size:60px;"">+</div>","null","html-keyboard-response","534","1093555","0.0-19.0-1.35","fixation","","","","",""
"564.6150000102352","Stimuli/Hangul_F8.bmp","188","image-keyboard-response","535","1094123","0.0-19.0-2.35","c2_test",".","","","",","
"964.8000000161119","<p style=""color:white;""> Next Figure: Male or Female? </p>","190","html-keyboard-response","536","1095090","0.0-19.0-0.36","prediction","","","",".",""
"null","<div style=""color:white; font-size:60px;"">+</div>","null","html-keyboard-response","537","1096096","0.0-19.0-1.36","fixation","","","","",""
"1971.0400000039954","Stimuli/Hangul_F1.bmp","190","image-keyboard-response","538","1098075","0.0-19.0-2.36","c2_test",".","","","","."
"3245.0750000134576","<p style=""color:white;""> Next Figure: Male or Female? </p>","190","html-keyboard-response","539","1101324","0.0-19.0-0.37","prediction","","","",".",""
"null","<div style=""color:white; font-size:60px;"">+</div>","null","html-keyboard-response","540","1102330","0.0-19.0-1.37","fixation","","","","",""
"812.3150000174064","Stimuli/Hangul_F13.bmp","188","image-keyboard-response","541","1103145","0.0-19.0-2.37","c2_test",".","","","",","
"2897.7500000037253","<p style=""color:white;""> Next Figure: Male or Female? </p>","188","html-keyboard-response","542","1106046","0.0-19.0-0.38","prediction","","","",",",""
"null","<div style=""color:white; font-size:60px;"">+</div>","null","html-keyboard-response","543","1107051","0.0-19.0-1.38","fixation","","","","",""
"806.3649999967311","Stimuli/Hangul_M3.bmp","188","image-keyboard-response","544","1107863","0.0-19.0-2.38","c2_test",",","","","",","
"3586.9850000017323","<p style=""color:white;""> Next Figure: Male or Female? </p>","188","html-keyboard-response","545","1111453","0.0-19.0-0.39","prediction","","","",",",""
"null","<div style=""color:white; font-size:60px;"">+</div>","null","html-keyboard-response","546","1112456","0.0-19.0-1.39","fixation","","","","",""
"1275.4299999796785","Stimuli/Hangul_F12.bmp","190","image-keyboard-response","547","1113734","0.0-19.0-2.39","c2_test",".","","","","."
"4105.440000013914","<p style=""color:white;""> Next Figure: Male or Female? </p>","190","html-keyboard-response","548","1117842","0.0-19.0-0.40","prediction","","","",".",""
"null","<div style=""color:white; font-size:60px;"">+</div>","null","html-keyboard-response","549","1118851","0.0-19.0-1.40","fixation","","","","",""
"748.364999977639","Stimuli/Hangul_F0.bmp","188","image-keyboard-response","550","1119603","0.0-19.0-2.40","c2_test",".","","","",","
"2049.780000001192","<p style=""color:white;""> Next Figure: Male or Female? </p>","190","html-keyboard-response","551","1121656","0.0-19.0-0.41","prediction","","","",".",""
"null","<div style=""color:white; font-size:60px;"">+</div>","null","html-keyboard-response","552","1122660","0.0-19.0-1.41","fixation","","","","",""
"540.9299999882933","Stimuli/Hangul_M1.bmp","190","image-keyboard-response","553","1123204","0.0-19.0-2.41","c2_test",",","","","","."
"2782.5250000169035","<p style=""color:white;""> Next Figure: Male or Female? </p>","190","html-keyboard-response","554","1125989","0.0-19.0-0.42","prediction","","","",".",""
"null","<div style=""color:white; font-size:60px;"">+</div>","null","html-keyboard-response","555","1126991","0.0-19.0-1.42","fixation","","","","",""
"1854.9650000059046","Stimuli/Hangul_M12.bmp","190","image-keyboard-response","556","1128851","0.0-19.0-2.42","c2_test",",","","","","."
"1698.0550000153016","<p style=""color:white;""> Next Figure: Male or Female? </p>","188","html-keyboard-response","557","1130554","0.0-19.0-0.43","prediction","","","",",",""
"null","<div style=""color:white; font-size:60px;"">+</div>","null","html-keyboard-response","558","1131559","0.0-19.0-1.43","fixation","","","","",""
"1347.5000000034925","Stimuli/Hangul_M23.bmp","188","image-keyboard-response","559","1132919","0.0-19.0-2.43","c2_test",",","","","",","
"1080.355000012787","<p style=""color:white;""> Next Figure: Male or Female? </p>","188","html-keyboard-response","560","1134003","0.0-19.0-0.44","prediction","","","",",",""
"null","<div style=""color:white; font-size:60px;"">+</div>","null","html-keyboard-response","561","1135007","0.0-19.0-1.44","fixation","","","","",""
"754.9449999933131","Stimuli/Hangul_F4.bmp","190","image-keyboard-response","562","1135764","0.0-19.0-2.44","c2_test",".","","","","."
"4221.14499998861","<p style=""color:white;""> Next Figure: Male or Female? </p>","188","html-keyboard-response","563","1139988","0.0-19.0-0.45","prediction","","","",",",""
"null","<div style=""color:white; font-size:60px;"">+</div>","null","html-keyboard-response","564","1140990","0.0-19.0-1.45","fixation","","","","",""
"1007.5350000115577","Stimuli/Hangul_M9.bmp","190","image-keyboard-response","565","1142001","0.0-19.0-2.45","c2_test",",","","","","."
"2509.344999998575","<p style=""color:white;""> Next Figure: Male or Female? </p>","188","html-keyboard-response","566","1144515","0.0-19.0-0.46","prediction","","","",",",""
"null","<div style=""color:white; font-size:60px;"">+</div>","null","html-keyboard-response","567","1145523","0.0-19.0-1.46","fixation","","","","",""
"618.3949999976903","Stimuli/Hangul_M21.bmp","188","image-keyboard-response","568","1146153","0.0-19.0-2.46","c2_test",",","","","",","
"4169.880000001285","<p style=""color:white;""> Next Figure: Male or Female? </p>","188","html-keyboard-response","569","1150325","0.0-19.0-0.47","prediction","","","",",",""
"null","<div style=""color:white; font-size:60px;"">+</div>","null","html-keyboard-response","570","1151328","0.0-19.0-1.47","fixation","","","","",""
"569.7800000198185","Stimuli/Hangul_M10.bmp","188","image-keyboard-response","571","1151903","0.0-19.0-2.47","c2_test",",","","","",","
"1669.0949999901932","<p style=""color:white;""> Next Figure: Male or Female? </p>","188","html-keyboard-response","572","1153575","0.0-19.0-0.48","prediction","","","",",",""
"null","<div style=""color:white; font-size:60px;"">+</div>","null","html-keyboard-response","573","1154582","0.0-19.0-1.48","fixation","","","","",""
"624.4749999896158","Stimuli/Hangul_M16.bmp","190","image-keyboard-response","574","1155209","0.0-19.0-2.48","c2_test",",","","","","."
"1429.584999976214","<p style=""color:white;""> Next Figure: Male or Female? </p>","188","html-keyboard-response","575","1156643","0.0-19.0-0.49","prediction","","","",",",""
"null","<div style=""color:white; font-size:60px;"">+</div>","null","html-keyboard-response","576","1157648","0.0-19.0-1.49","fixation","","","","",""
"499.23000001581386","Stimuli/Hangul_M2.bmp","188","image-keyboard-response","577","1158152","0.0-19.0-2.49","c2_test",",","","","",","
"2712.9899999999907","<p style=""color:white;"">Good job, block 1 complete! Please take a moment to rest.</p> <p style=""color:white;"">When you are ready to continue with block 2 of 4, press the space bar.</p> ","32","html-keyboard-response","578","1160869","0.0-20.0","","","","","",""
"2362.220000009984","<p style=""color:white;""> Next Figure: Male or Female? </p>","190","html-keyboard-response","579","1165235","0.0-21.0-0.0","prediction","","","",".",""
"null","<div style=""color:white; font-size:60px;"">+</div>","null","html-keyboard-response","580","1166239","0.0-21.0-1.0","fixation","","","","",""
"450.55999999749474","Stimuli/Hangul_F38.bmp","190","image-keyboard-response","581","1166692","0.0-21.0-2.0","c2_test",".","","","","."
"1732.8799999959301","<p style=""color:white;""> Next Figure: Male or Female? </p>","190","html-keyboard-response","582","1168428","0.0-21.0-0.1","prediction","","","",".",""
"null","<div style=""color:white; font-size:60px;"">+</div>","null","html-keyboard-response","583","1169432","0.0-21.0-1.1","fixation","","","","",""
"906.8949999928009","Stimuli/Hangul_M29.bmp","190","image-keyboard-response","584","1170342","0.0-21.0-2.1","c2_test",",","","","","."
"4281.849999999395","<p style=""color:white;""> Next Figure: Male or Female? </p>","188","html-keyboard-response","585","1174627","0.0-21.0-0.2","prediction","","","",",",""
"null","<div style=""color:white; font-size:60px;"">+</div>","null","html-keyboard-response","586","1175632","0.0-21.0-1.2","fixation","","","","",""
"342.449999996461","Stimuli/Hangul_M33.bmp","188","image-keyboard-response","587","1175978","0.0-21.0-2.2","c2_test",",","","","",","
"3670.4049999825656","<p style=""color:white;""> Next Figure: Male or Female? </p>","188","html-keyboard-response","588","1179650","0.0-21.0-0.3","prediction","","","",",",""
"null","<div style=""color:white; font-size:60px;"">+</div>","null","html-keyboard-response","589","1180657","0.0-21.0-1.3","fixation","","","","",""
"1911.4950000075623","Stimuli/Hangul_F29.bmp","188","image-keyboard-response","590","1182585","0.0-21.0-2.3","c2_test",".","","","",","
"5217.600000003586","<p style=""color:white;""> Next Figure: Male or Female? </p>","188","html-keyboard-response","591","1187805","0.0-21.0-0.4","prediction","","","",",",""
"null","<div style=""color:white; font-size:60px;"">+</div>","null","html-keyboard-response","592","1188808","0.0-21.0-1.4","fixation","","","","",""
"2853.334999992512","Stimuli/Hangul_F48.bmp","190","image-keyboard-response","593","1191668","0.0-21.0-2.4","c2_test",".","","","","."
"4495.109999988927","<p style=""color:white;""> Next Figure: Male or Female? </p>","188","html-keyboard-response","594","1196166","0.0-21.0-0.5","prediction","","","",",",""
"null","<div style=""color:white; font-size:60px;"">+</div>","null","html-keyboard-response","595","1197173","0.0-21.0-1.5","fixation","","","","",""
"847.2500000207219","Stimuli/Hangul_M37.bmp","190","image-keyboard-response","596","1198023","0.0-21.0-2.5","c2_test",",","","","","."
"2378.7350000056904","<p style=""color:white;""> Next Figure: Male or Female? </p>","188","html-keyboard-response","597","1200404","0.0-21.0-0.6","prediction","","","",",",""
"null","<div style=""color:white; font-size:60px;"">+</div>","null","html-keyboard-response","598","1201411","0.0-21.0-1.6","fixation","","","","",""
"574.3150000052992","Stimuli/Hangul_M40.bmp","190","image-keyboard-response","599","1201993","0.0-21.0-2.6","c2_test",",","","","","."
"3610.0449999794364","<p style=""color:white;""> Next Figure: Male or Female? </p>","190","html-keyboard-response","600","1205607","0.0-21.0-0.7","prediction","","","",".",""
"null","<div style=""color:white; font-size:60px;"">+</div>","null","html-keyboard-response","601","1206611","0.0-21.0-1.7","fixation","","","","",""
"582.5300000142306","Stimuli/Hangul_M27.bmp","190","image-keyboard-response","602","1207198","0.0-21.0-2.7","c2_test",",","","","","."
"2987.9049999872223","<p style=""color:white;""> Next Figure: Male or Female? </p>","188","html-keyboard-response","603","1210188","0.0-21.0-0.8","prediction","","","",",",""
"null","<div style=""color:white; font-size:60px;"">+</div>","null","html-keyboard-response","604","1211191","0.0-21.0-1.8","fixation","","","","",""
"507.1499999903608","Stimuli/Hangul_M36.bmp","190","image-keyboard-response","605","1211706","0.0-21.0-2.8","c2_test",",","","","","."
"2482.8750000160653","<p style=""color:white;""> Next Figure: Male or Female? </p>","190","html-keyboard-response","606","1214191","0.0-21.0-0.9","prediction","","","",".",""
"null","<div style=""color:white; font-size:60px;"">+</div>","null","html-keyboard-response","607","1215197","0.0-21.0-1.9","fixation","","","","",""
"548.7750000029337","Stimuli/Hangul_F33.bmp","190","image-keyboard-response","608","1215752","0.0-21.0-2.9","c2_test",".","","","","."
"1928.0849999922793","<p style=""color:white;""> Next Figure: Male or Female? </p>","190","html-keyboard-response","609","1217685","0.0-21.0-0.10","prediction","","","",".",""
"null","<div style=""color:white; font-size:60px;"">+</div>","null","html-keyboard-response","610","1218688","0.0-21.0-1.10","fixation","","","","",""
"700.0850000185892","Stimuli/Hangul_F36.bmp","188","image-keyboard-response","611","1219390","0.0-21.0-2.10","c2_test",".","","","",","
"2095.6249999871943","<p style=""color:white;""> Next Figure: Male or Female? </p>","190","html-keyboard-response","612","1221491","0.0-21.0-0.11","prediction","","","",".",""
"null","<div style=""color:white; font-size:60px;"">+</div>","null","html-keyboard-response","613","1222499","0.0-21.0-1.11","fixation","","","","",""
"5312.904999998864","Stimuli/Hangul_M30.bmp","188","image-keyboard-response","614","1227815","0.0-21.0-2.11","c2_test",",","","","",","
"3291.384999989532","<p style=""color:white;""> Next Figure: Male or Female? </p>","190","html-keyboard-response","615","1231109","0.0-21.0-0.12","prediction","","","",".",""
"null","<div style=""color:white; font-size:60px;"">+</div>","null","html-keyboard-response","616","1232119","0.0-21.0-1.12","fixation","","","","",""
"634.0550000022631","Stimuli/Hangul_F42.bmp","188","image-keyboard-response","617","1232759","0.0-21.0-2.12","c2_test",".","","","",","
"3175.924999988638","<p style=""color:white;""> Next Figure: Male or Female? </p>","190","html-keyboard-response","618","1235938","0.0-21.0-0.13","prediction","","","",".",""
"null","<div style=""color:white; font-size:60px;"">+</div>","null","html-keyboard-response","619","1236940","0.0-21.0-1.13","fixation","","","","",""
"551.065000006929","Stimuli/Hangul_M38.bmp","190","image-keyboard-response","620","1237495","0.0-21.0-2.13","c2_test",",","","","","."
"2236.605000012787","<p style=""color:white;""> Next Figure: Male or Female? </p>","188","html-keyboard-response","621","1239734","0.0-21.0-0.14","prediction","","","",",",""
"null","<div style=""color:white; font-size:60px;"">+</div>","null","html-keyboard-response","622","1240750","0.0-21.0-1.14","fixation","","","","",""
"555.7449999905657","Stimuli/Hangul_F41.bmp","188","image-keyboard-response","623","1241310","0.0-21.0-2.14","c2_test",".","","","",","
"3154.6049999888055","<p style=""color:white;""> Next Figure: Male or Female? </p>","190","html-keyboard-response","624","1244468","0.0-21.0-0.15","prediction","","","",".",""
"null","<div style=""color:white; font-size:60px;"">+</div>","null","html-keyboard-response","625","1245483","0.0-21.0-1.15","fixation","","","","",""
"517.3249999934342","Stimuli/Hangul_F28.bmp","190","image-keyboard-response","626","1246013","0.0-21.0-2.15","c2_test",".","","","","."
"6207.890000019688","<p style=""color:white;""> Next Figure: Male or Female? </p>","188","html-keyboard-response","627","1252223","0.0-21.0-0.16","prediction","","","",",",""
"null","<div style=""color:white; font-size:60px;"">+</div>","null","html-keyboard-response","628","1253234","0.0-21.0-1.16","fixation","","","","",""
"1153.6450000130571","Stimuli/Hangul_M46.bmp","188","image-keyboard-response","629","1254391","0.0-21.0-2.16","c2_test",",","","","",","
"3060.525000008056","<p style=""color:white;""> Next Figure: Male or Female? </p>","190","html-keyboard-response","630","1257453","0.0-21.0-0.17","prediction","","","",".",""
"null","<div style=""color:white; font-size:60px;"">+</div>","null","html-keyboard-response","631","1258457","0.0-21.0-1.17","fixation","","","","",""
"2276.51500000502","Stimuli/Hangul_M43.bmp","188","image-keyboard-response","632","1260739","0.0-21.0-2.17","c2_test",",","","","",","
"3647.02999999281","<p style=""color:white;""> Next Figure: Male or Female? </p>","188","html-keyboard-response","633","1264389","0.0-21.0-0.18","prediction","","","",",",""
"null","<div style=""color:white; font-size:60px;"">+</div>","null","html-keyboard-response","634","1265400","0.0-21.0-1.18","fixation","","","","",""
"972.1150000113994","Stimuli/Hangul_M25.bmp","190","image-keyboard-response","635","1266375","0.0-21.0-2.18","c2_test",",","","","","."
"3052.4199999927077","<p style=""color:white;""> Next Figure: Male or Female? </p>","190","html-keyboard-response","636","1269430","0.0-21.0-0.19","prediction","","","",".",""
"null","<div style=""color:white; font-size:60px;"">+</div>","null","html-keyboard-response","637","1270433","0.0-21.0-1.19","fixation","","","","",""
"794.5999999938067","Stimuli/Hangul_M45.bmp","190","image-keyboard-response","638","1271231","0.0-21.0-2.19","c2_test",",","","","","."
"4557.955000025686","<p style=""color:white;""> Next Figure: Male or Female? </p>","188","html-keyboard-response","639","1275791","0.0-21.0-0.20","prediction","","","",",",""
"null","<div style=""color:white; font-size:60px;"">+</div>","null","html-keyboard-response","640","1276796","0.0-21.0-1.20","fixation","","","","",""
"723.2450000010431","Stimuli/Hangul_M41.bmp","190","image-keyboard-response","641","1277523","0.0-21.0-2.20","c2_test",",","","","","."
"1481.1449999979232","<p style=""color:white;""> Next Figure: Male or Female? </p>","190","html-keyboard-response","642","1279008","0.0-21.0-0.21","prediction","","","",".",""
"null","<div style=""color:white; font-size:60px;"">+</div>","null","html-keyboard-response","643","1280014","0.0-21.0-1.21","fixation","","","","",""
"638.9599999820348","Stimuli/Hangul_F35.bmp","188","image-keyboard-response","644","1280671","0.0-21.0-2.21","c2_test",".","","","",","
"2213.660000008531","<p style=""color:white;""> Next Figure: Male or Female? </p>","190","html-keyboard-response","645","1282889","0.0-21.0-0.22","prediction","","","",".",""
"null","<div style=""color:white; font-size:60px;"">+</div>","null","html-keyboard-response","646","1283918","0.0-21.0-1.22","fixation","","","","",""
"776.4900000183843","Stimuli/Hangul_M32.bmp","190","image-keyboard-response","647","1284698","0.0-21.0-2.22","c2_test",",","","","","."
"1816.854999982752","<p style=""color:white;""> Next Figure: Male or Female? </p>","188","html-keyboard-response","648","1286517","0.0-21.0-0.23","prediction","","","",",",""
"null","<div style=""color:white; font-size:60px;"">+</div>","null","html-keyboard-response","649","1287522","0.0-21.0-1.23","fixation","","","","",""
"4843.220000009751","Stimuli/Hangul_M49.bmp","188","image-keyboard-response","650","1292379","0.0-21.0-2.23","c2_test",",","","","",","
"4937.809999973979","<p style=""color:white;""> Next Figure: Male or Female? </p>","190","html-keyboard-response","651","1297319","0.0-21.0-0.24","prediction","","","",".",""
"null","<div style=""color:white; font-size:60px;"">+</div>","null","html-keyboard-response","652","1298322","0.0-21.0-1.24","fixation","","","","",""
"1558.2500000018626","Stimuli/Hangul_M39.bmp","190","image-keyboard-response","653","1299884","0.0-21.0-2.24","c2_test",",","","","","."
"2052.0250000117812","<p style=""color:white;""> Next Figure: Male or Female? </p>","188","html-keyboard-response","654","1301939","0.0-21.0-0.25","prediction","","","",",",""
"null","<div style=""color:white; font-size:60px;"">+</div>","null","html-keyboard-response","655","1302943","0.0-21.0-1.25","fixation","","","","",""
