"rt","stimulus","key_press","trial_type","trial_index","time_elapsed","internal_node_id","test_part","correct_response","C1_train","C1","A","C2"
"2251.9999998621643","<p style=""color:white;"">Welcome to the experiment! Press any key to begin.</p>","32","html-keyboard-response","0","2267","0.0-0.0","","","","","",""
"5679.000000003725","<p style=""color:white;"">You will see a series of abstract figures. They are adaptations of signs in the Korean alphabet, but that is not important for this study. </p><p style=""color:white;"">Abstract figures sometimes have a more masculine or feminine shape. Here, each figure has already been assigned a gender as <q>Male</q> or <q>Female</q> by a panel of respondents in a pilot study. The respondents were not given specific instructions on how to do this, but were only told to use their intuition and to take into account the entire configuration of the stimulus. </p><p style=""color:white;"">Your task now is to guess the assigned gender of each figure. Please press the corresponding response keys to indicate your choice: </p><p style=""color:white;""> Male &#8594 <q>,</q> (comma)</p><p style=""color:white;""> Female &#8594 <q>.</q> (period)</p><p style=""color:white;"">Press either response keys to continue.</p>","188","html-keyboard-response","1","7948","0.0-1.0","","","","","",""
"1420.9999998565763","<p style=""color:white;"">Your choice is correct if it matches the gender assigned by the majority of respondents in the pilot study.</p> <p style=""color:white;"">For each correct choice you will receive 2 cents. There will be 200 trials divided into 4 blocks of 50 trials. You will be able to take a break after every 50 trials.</p> <p style=""color:white;"">Press the space bar to continue.</p>","32","html-keyboard-response","2","9370","0.0-2.0","","","","","",""
"942.9999999701977","<p style=""color:white;"">Here are some examples.</p> <p style=""color:white;"">For each, guess whether the assigned figure is male-like or female-like and indicate your choice by pressing either response keys.</p> <p style=""color:white;"">Press the space bar to continue.</p>","32","html-keyboard-response","3","10315","0.0-3.0","","","","","",""
"null","<div style=""color:white; font-size:60px;"">+</div>","null","html-keyboard-response","4","13319","0.0-4.0-0.0","fixation","","","","",""
"783.0000000540167","Stimuli/Hangul_E2.bmp","188","image-keyboard-response","5","14104","0.0-4.0-1.0","c1_train",".",",","","",""
"null","<div style=""color:white; font-size:60px;"">+</div>","null","html-keyboard-response","6","15106","0.0-4.0-0.1","fixation","","","","",""
"103.00000011920929","Stimuli/Hangul_E0.bmp","188","image-keyboard-response","7","15211","0.0-4.0-1.1","c1_train",",",",","","",""
"null","<div style=""color:white; font-size:60px;"">+</div>","null","html-keyboard-response","8","16214","0.0-4.0-0.2","fixation","","","","",""
"229.00000005029142","Stimuli/Hangul_E1.bmp","190","image-keyboard-response","9","16443","0.0-4.0-1.2","c1_train",",",".","","",""
"2650.0000001396984","<p style=""color:white;"">Let us begin! Press the space bar when you are ready to start block 1 of 4.</p> ","32","html-keyboard-response","10","19094","0.0-5.0","","","","","",""
"null","<div style=""color:white; font-size:60px;"">+</div>","null","html-keyboard-response","11","22095","0.0-6.0-0.0","fixation","","","","",""
"57.00000002980232","Stimuli/Hangul_M15.bmp","188","image-keyboard-response","12","22154","0.0-6.0-1.0","test",",","",",","",""
"null","<div style=""color:white; font-size:60px;"">+</div>","null","html-keyboard-response","13","23157","0.0-6.0-0.1","fixation","","","","",""
"54.99999993480742","Stimuli/Hangul_M13.bmp","190","image-keyboard-response","14","23215","0.0-6.0-1.1","test",",","",".","",""
"null","<div style=""color:white; font-size:60px;"">+</div>","null","html-keyboard-response","15","24218","0.0-6.0-0.2","fixation","","","","",""
"20.00000001862645","Stimuli/Hangul_F19.bmp","188","image-keyboard-response","16","24239","0.0-6.0-1.2","test",".","",",","",""
"null","<div style=""color:white; font-size:60px;"">+</div>","null","html-keyboard-response","17","25242","0.0-6.0-0.3","fixation","","","","",""
"155.00000002793968","Stimuli/Hangul_M9.bmp","190","image-keyboard-response","18","25398","0.0-6.0-1.3","test",",","",".","",""
"null","<div style=""color:white; font-size:60px;"">+</div>","null","html-keyboard-response","19","26399","0.0-6.0-0.4","fixation","","","","",""
"19.000000087544322","Stimuli/Hangul_M21.bmp","188","image-keyboard-response","20","26419","0.0-6.0-1.4","test",",","",",","",""
"null","<div style=""color:white; font-size:60px;"">+</div>","null","html-keyboard-response","21","27424","0.0-6.0-0.5","fixation","","","","",""
"643.0000001564622","Stimuli/Hangul_F23.bmp","188","image-keyboard-response","22","28070","0.0-6.0-1.5","test",".","",",","",""
"null","<div style=""color:white; font-size:60px;"">+</div>","null","html-keyboard-response","23","29078","0.0-6.0-0.6","fixation","","","","",""
"1.0000001639127731","Stimuli/Hangul_F7.bmp","188","image-keyboard-response","24","29080","0.0-6.0-1.6","test",".","",",","",""
"null","<div style=""color:white; font-size:60px;"">+</div>","null","html-keyboard-response","25","30083","0.0-6.0-0.7","fixation","","","","",""
"17.99999992363155","Stimuli/Hangul_F18.bmp","190","image-keyboard-response","26","30102","0.0-6.0-1.7","test",".","",".","",""
"null","<div style=""color:white; font-size:60px;"">+</div>","null","html-keyboard-response","27","31105","0.0-6.0-0.8","fixation","","","","",""
"52.00000014156103","Stimuli/Hangul_F2.bmp","188","image-keyboard-response","28","31158","0.0-6.0-1.8","test",".","",",","",""
"null","<div style=""color:white; font-size:60px;"">+</div>","null","html-keyboard-response","29","32160","0.0-6.0-0.9","fixation","","","","",""
"102.99999988637865","Stimuli/Hangul_F5.bmp","188","image-keyboard-response","30","32264","0.0-6.0-1.9","test",".","",",","",""
"null","<div style=""color:white; font-size:60px;"">+</div>","null","html-keyboard-response","31","33266","0.0-6.0-0.10","fixation","","","","",""
"246.00000004284084","Stimuli/Hangul_F4.bmp","190","image-keyboard-response","32","33512","0.0-6.0-1.10","test",".","",".","",""
"null","<div style=""color:white; font-size:60px;"">+</div>","null","html-keyboard-response","33","34513","0.0-6.0-0.11","fixation","","","","",""
"10.999999940395355","Stimuli/Hangul_F16.bmp","190","image-keyboard-response","34","34524","0.0-6.0-1.11","test",".","",".","",""
"null","<div style=""color:white; font-size:60px;"">+</div>","null","html-keyboard-response","35","35539","0.0-6.0-0.12","fixation","","","","",""
"97.00000006705523","Stimuli/Hangul_M19.bmp","188","image-keyboard-response","36","35637","0.0-6.0-1.12","test",",","",",","",""
"null","<div style=""color:white; font-size:60px;"">+</div>","null","html-keyboard-response","37","36639","0.0-6.0-0.13","fixation","","","","",""
"37.00000001117587","Stimuli/Hangul_F11.bmp","188","image-keyboard-response","38","36677","0.0-6.0-1.13","test",".","",",","",""
"null","<div style=""color:white; font-size:60px;"">+</div>","null","html-keyboard-response","39","37679","0.0-6.0-0.14","fixation","","","","",""
"13.999999966472387","Stimuli/Hangul_M1.bmp","188","image-keyboard-response","40","37693","0.0-6.0-1.14","test",",","",",","",""
"null","<div style=""color:white; font-size:60px;"">+</div>","null","html-keyboard-response","41","38697","0.0-6.0-0.15","fixation","","","","",""
"27.999999932944775","Stimuli/Hangul_M11.bmp","190","image-keyboard-response","42","38726","0.0-6.0-1.15","test",",","",".","",""
"null","<div style=""color:white; font-size:60px;"">+</div>","null","html-keyboard-response","43","39728","0.0-6.0-0.16","fixation","","","","",""
"373.9999998360872","Stimuli/Hangul_F8.bmp","190","image-keyboard-response","44","40102","0.0-6.0-1.16","test",".","",".","",""
"null","<div style=""color:white; font-size:60px;"">+</div>","null","html-keyboard-response","45","41104","0.0-6.0-0.17","fixation","","","","",""
"36.00000008009374","Stimuli/Hangul_F6.bmp","190","image-keyboard-response","46","41142","0.0-6.0-1.17","test",".","",".","",""
"null","<div style=""color:white; font-size:60px;"">+</div>","null","html-keyboard-response","47","42144","0.0-6.0-0.18","fixation","","","","",""
"36.00000008009374","Stimuli/Hangul_F13.bmp","190","image-keyboard-response","48","42181","0.0-6.0-1.18","test",".","",".","",""
"null","<div style=""color:white; font-size:60px;"">+</div>","null","html-keyboard-response","49","43181","0.0-6.0-0.19","fixation","","","","",""
"195.00000006519258","Stimuli/Hangul_M2.bmp","190","image-keyboard-response","50","43377","0.0-6.0-1.19","test",",","",".","",""
"null","<div style=""color:white; font-size:60px;"">+</div>","null","html-keyboard-response","51","44378","0.0-6.0-0.20","fixation","","","","",""
"77.00000004842877","Stimuli/Hangul_F17.bmp","190","image-keyboard-response","52","44456","0.0-6.0-1.20","test",".","",".","",""
"null","<div style=""color:white; font-size:60px;"">+</div>","null","html-keyboard-response","53","45457","0.0-6.0-0.21","fixation","","","","",""
"168.99999999441206","Stimuli/Hangul_F22.bmp","190","image-keyboard-response","54","45626","0.0-6.0-1.21","test",".","",".","",""
"null","<div style=""color:white; font-size:60px;"">+</div>","null","html-keyboard-response","55","46628","0.0-6.0-0.22","fixation","","","","",""
"84.9999999627471","Stimuli/Hangul_M3.bmp","188","image-keyboard-response","56","46714","0.0-6.0-1.22","test",",","",",","",""
"null","<div style=""color:white; font-size:60px;"">+</div>","null","html-keyboard-response","57","47716","0.0-6.0-0.23","fixation","","","","",""
"50.99999997764826","Stimuli/Hangul_M10.bmp","188","image-keyboard-response","58","47769","0.0-6.0-1.23","test",",","",",","",""
"null","<div style=""color:white; font-size:60px;"">+</div>","null","html-keyboard-response","59","48770","0.0-6.0-0.24","fixation","","","","",""
"64.00000001303852","Stimuli/Hangul_M23.bmp","188","image-keyboard-response","60","48835","0.0-6.0-1.24","test",",","",",","",""
"null","<div style=""color:white; font-size:60px;"">+</div>","null","html-keyboard-response","61","49837","0.0-6.0-0.25","fixation","","","","",""
"215.00000008381903","Stimuli/Hangul_F3.bmp","190","image-keyboard-response","62","50053","0.0-6.0-1.25","test",".","",".","",""
"null","<div style=""color:white; font-size:60px;"">+</div>","null","html-keyboard-response","63","51055","0.0-6.0-0.26","fixation","","","","",""
"37.00000001117587","Stimuli/Hangul_M17.bmp","188","image-keyboard-response","64","51093","0.0-6.0-1.26","test",",","",",","",""
"null","<div style=""color:white; font-size:60px;"">+</div>","null","html-keyboard-response","65","52093","0.0-6.0-0.27","fixation","","","","",""
"118.0000000167638","Stimuli/Hangul_F9.bmp","190","image-keyboard-response","66","52213","0.0-6.0-1.27","test",".","",".","",""
"null","<div style=""color:white; font-size:60px;"">+</div>","null","html-keyboard-response","67","53214","0.0-6.0-0.28","fixation","","","","",""
"213.99999991990626","Stimuli/Hangul_M5.bmp","190","image-keyboard-response","68","53429","0.0-6.0-1.28","test",",","",".","",""
"null","<div style=""color:white; font-size:60px;"">+</div>","null","html-keyboard-response","69","54434","0.0-6.0-0.29","fixation","","","","",""
"5.9999998193234205","Stimuli/Hangul_M4.bmp","190","image-keyboard-response","70","54440","0.0-6.0-1.29","test",",","",".","",""
"null","<div style=""color:white; font-size:60px;"">+</div>","null","html-keyboard-response","71","55441","0.0-6.0-0.30","fixation","","","","",""
"70.99999999627471","Stimuli/Hangul_F0.bmp","190","image-keyboard-response","72","55512","0.0-6.0-1.30","test",".","",".","",""
"null","<div style=""color:white; font-size:60px;"">+</div>","null","html-keyboard-response","73","56514","0.0-6.0-0.31","fixation","","","","",""
"6.999999983236194","Stimuli/Hangul_M14.bmp","188","image-keyboard-response","74","56521","0.0-6.0-1.31","test",",","",",","",""
"null","<div style=""color:white; font-size:60px;"">+</div>","null","html-keyboard-response","75","57523","0.0-6.0-0.32","fixation","","","","",""
"81.00000000558794","Stimuli/Hangul_F12.bmp","188","image-keyboard-response","76","57606","0.0-6.0-1.32","test",".","",",","",""
"null","<div style=""color:white; font-size:60px;"">+</div>","null","html-keyboard-response","77","58607","0.0-6.0-0.33","fixation","","","","",""
"247.9999999050051","Stimuli/Hangul_M6.bmp","190","image-keyboard-response","78","58856","0.0-6.0-1.33","test",",","",".","",""
"null","<div style=""color:white; font-size:60px;"">+</div>","null","html-keyboard-response","79","59858","0.0-6.0-0.34","fixation","","","","",""
"9.000000078231096","Stimuli/Hangul_M12.bmp","190","image-keyboard-response","80","59870","0.0-6.0-1.34","test",",","",".","",""
"null","<div style=""color:white; font-size:60px;"">+</div>","null","html-keyboard-response","81","60871","0.0-6.0-0.35","fixation","","","","",""
"5375.999999931082","Stimuli/Hangul_F10.bmp","188","image-keyboard-response","82","66252","0.0-6.0-1.35","test",".","",",","",""
"null","<div style=""color:white; font-size:60px;"">+</div>","null","html-keyboard-response","83","67256","0.0-6.0-0.36","fixation","","","","",""
"13.000000035390258","Stimuli/Hangul_F14.bmp","188","image-keyboard-response","84","67271","0.0-6.0-1.36","test",".","",",","",""
"null","<div style=""color:white; font-size:60px;"">+</div>","null","html-keyboard-response","85","68275","0.0-6.0-0.37","fixation","","","","",""
"3.000000026077032","Stimuli/Hangul_F15.bmp","188","image-keyboard-response","86","68280","0.0-6.0-1.37","test",".","",",","",""
"null","<div style=""color:white; font-size:60px;"">+</div>","null","html-keyboard-response","87","69282","0.0-6.0-0.38","fixation","","","","",""
"81.99999993667006","Stimuli/Hangul_F20.bmp","190","image-keyboard-response","88","69365","0.0-6.0-1.38","test",".","",".","",""
"null","<div style=""color:white; font-size:60px;"">+</div>","null","html-keyboard-response","89","70367","0.0-6.0-0.39","fixation","","","","",""
"61.99999991804361","Stimuli/Hangul_M0.bmp","190","image-keyboard-response","90","70431","0.0-6.0-1.39","test",",","",".","",""
"null","<div style=""color:white; font-size:60px;"">+</div>","null","html-keyboard-response","91","71434","0.0-6.0-0.40","fixation","","","","",""
"26.000000070780516","Stimuli/Hangul_F24.bmp","190","image-keyboard-response","92","71462","0.0-6.0-1.40","test",".","",".","",""
"null","<div style=""color:white; font-size:60px;"">+</div>","null","html-keyboard-response","93","72463","0.0-6.0-0.41","fixation","","","","",""
"76.00000011734664","Stimuli/Hangul_M20.bmp","190","image-keyboard-response","94","72540","0.0-6.0-1.41","test",",","",".","",""
"null","<div style=""color:white; font-size:60px;"">+</div>","null","html-keyboard-response","95","73541","0.0-6.0-0.42","fixation","","","","",""
"47.0000000204891","Stimuli/Hangul_M24.bmp","188","image-keyboard-response","96","73588","0.0-6.0-1.42","test",",","",",","",""
"null","<div style=""color:white; font-size:60px;"">+</div>","null","html-keyboard-response","97","74589","0.0-6.0-0.43","fixation","","","","",""
"37.00000001117587","Stimuli/Hangul_M22.bmp","188","image-keyboard-response","98","74627","0.0-6.0-1.43","test",",","",",","",""
"null","<div style=""color:white; font-size:60px;"">+</div>","null","html-keyboard-response","99","75629","0.0-6.0-0.44","fixation","","","","",""
"166.99999989941716","Stimuli/Hangul_M7.bmp","190","image-keyboard-response","100","75797","0.0-6.0-1.44","test",",","",".","",""
"null","<div style=""color:white; font-size:60px;"">+</div>","null","html-keyboard-response","101","76803","0.0-6.0-0.45","fixation","","","","",""
"161.00000008009374","Stimuli/Hangul_M16.bmp","188","image-keyboard-response","102","76966","0.0-6.0-1.45","test",",","",",","",""
"null","<div style=""color:white; font-size:60px;"">+</div>","null","html-keyboard-response","103","77968","0.0-6.0-0.46","fixation","","","","",""
"165.0000000372529","Stimuli/Hangul_M8.bmp","190","image-keyboard-response","104","78134","0.0-6.0-1.46","test",",","",".","",""
"null","<div style=""color:white; font-size:60px;"">+</div>","null","html-keyboard-response","105","79136","0.0-6.0-0.47","fixation","","","","",""
"69.00000013411045","Stimuli/Hangul_M18.bmp","190","image-keyboard-response","106","79205","0.0-6.0-1.47","test",",","",".","",""
"null","<div style=""color:white; font-size:60px;"">+</div>","null","html-keyboard-response","107","80207","0.0-6.0-0.48","fixation","","","","",""
"37.00000001117587","Stimuli/Hangul_F1.bmp","190","image-keyboard-response","108","80246","0.0-6.0-1.48","test",".","",".","",""
"null","<div style=""color:white; font-size:60px;"">+</div>","null","html-keyboard-response","109","81255","0.0-6.0-0.49","fixation","","","","",""
"125","Stimuli/Hangul_F21.bmp","188","image-keyboard-response","110","81381","0.0-6.0-1.49","test",".","",",","",""
"2750.999999931082","<p style=""color:white;"">Good job, block 1 complete! Please take a moment to rest.</p> <p style=""color:white;"">When you are ready to continue with block 2 of 4, press the space bar.</p> ","32","html-keyboard-response","111","84134","0.0-7.0","","","","","",""
"null","<div style=""color:white; font-size:60px;"">+</div>","null","html-keyboard-response","112","87139","0.0-8.0-0.0","fixation","","","","",""
"31.999999890103936","Stimuli/Hangul_M45.bmp","188","image-keyboard-response","113","87173","0.0-8.0-1.0","test",",","",",","",""
"null","<div style=""color:white; font-size:60px;"">+</div>","null","html-keyboard-response","114","88179","0.0-8.0-0.1","fixation","","","","",""
"81.99999993667006","Stimuli/Hangul_F35.bmp","188","image-keyboard-response","115","88261","0.0-8.0-1.1","test",".","",",","",""
"null","<div style=""color:white; font-size:60px;"">+</div>","null","html-keyboard-response","116","89263","0.0-8.0-0.2","fixation","","","","",""
"114.99999999068677","Stimuli/Hangul_F41.bmp","188","image-keyboard-response","117","89379","0.0-8.0-1.2","test",".","",",","",""
"null","<div style=""color:white; font-size:60px;"">+</div>","null","html-keyboard-response","118","90381","0.0-8.0-0.3","fixation","","","","",""
"42.000000132247806","Stimuli/Hangul_M32.bmp","188","image-keyboard-response","119","90424","0.0-8.0-1.3","test",",","",",","",""
"null","<div style=""color:white; font-size:60px;"">+</div>","null","html-keyboard-response","120","91427","0.0-8.0-0.4","fixation","","","","",""
"177.99999983981252","Stimuli/Hangul_F45.bmp","190","image-keyboard-response","121","91607","0.0-8.0-1.4","test",".","",".","",""
"null","<div style=""color:white; font-size:60px;"">+</div>","null","html-keyboard-response","122","92608","0.0-8.0-0.5","fixation","","","","",""
"100.00000009313226","Stimuli/Hangul_F36.bmp","190","image-keyboard-response","123","92709","0.0-8.0-1.5","test",".","",".","",""
"null","<div style=""color:white; font-size:60px;"">+</div>","null","html-keyboard-response","124","93711","0.0-8.0-0.6","fixation","","","","",""
"391.0000000614673","Stimuli/Hangul_F44.bmp","188","image-keyboard-response","125","94103","0.0-8.0-1.6","test",".","",",","",""
"null","<div style=""color:white; font-size:60px;"">+</div>","null","html-keyboard-response","126","95502","0.0-8.0-0.7","fixation","","","","",""
"1101.0000000242144","Stimuli/Hangul_M25.bmp","190","image-keyboard-response","127","96603","0.0-8.0-1.7","test",",","",".","",""
"null","<div style=""color:white; font-size:60px;"">+</div>","null","html-keyboard-response","128","97604","0.0-8.0-0.8","fixation","","","","",""
"402.00000000186265","Stimuli/Hangul_F46.bmp","190","image-keyboard-response","129","98007","0.0-8.0-1.8","test",".","",".","",""
"null","<div style=""color:white; font-size:60px;"">+</div>","null","html-keyboard-response","130","99009","0.0-8.0-0.9","fixation","","","","",""
"0","Stimuli/Hangul_F27.bmp","190","image-keyboard-response","131","99013","0.0-8.0-1.9","test",".","",".","",""
"null","<div style=""color:white; font-size:60px;"">+</div>","null","html-keyboard-response","132","100014","0.0-8.0-0.10","fixation","","","","",""
"136.000000173226","Stimuli/Hangul_M48.bmp","190","image-keyboard-response","133","100151","0.0-8.0-1.10","test",",","",".","",""
"null","<div style=""color:white; font-size:60px;"">+</div>","null","html-keyboard-response","134","101154","0.0-8.0-0.11","fixation","","","","",""
"121.00000004284084","Stimuli/Hangul_F29.bmp","190","image-keyboard-response","135","101276","0.0-8.0-1.11","test",".","",".","",""
"null","<div style=""color:white; font-size:60px;"">+</div>","null","html-keyboard-response","136","102279","0.0-8.0-0.12","fixation","","","","",""
"97.99999999813735","Stimuli/Hangul_M36.bmp","190","image-keyboard-response","137","102378","0.0-8.0-1.12","test",",","",".","",""
"null","<div style=""color:white; font-size:60px;"">+</div>","null","html-keyboard-response","138","103380","0.0-8.0-0.13","fixation","","","","",""
"7.999999914318323","Stimuli/Hangul_M26.bmp","190","image-keyboard-response","139","103389","0.0-8.0-1.13","test",",","",".","",""
"null","<div style=""color:white; font-size:60px;"">+</div>","null","html-keyboard-response","140","104391","0.0-8.0-0.14","fixation","","","","",""
"65.99999987520278","Stimuli/Hangul_M29.bmp","190","image-keyboard-response","141","104458","0.0-8.0-1.14","test",",","",".","",""
"null","<div style=""color:white; font-size:60px;"">+</div>","null","html-keyboard-response","142","105461","0.0-8.0-0.15","fixation","","","","",""
"62.99999984912574","Stimuli/Hangul_F42.bmp","190","image-keyboard-response","143","105525","0.0-8.0-1.15","test",".","",".","",""
"null","<div style=""color:white; font-size:60px;"">+</div>","null","html-keyboard-response","144","106527","0.0-8.0-0.16","fixation","","","","",""
"84.9999999627471","Stimuli/Hangul_M42.bmp","190","image-keyboard-response","145","106613","0.0-8.0-1.16","test",",","",".","",""
"null","<div style=""color:white; font-size:60px;"">+</div>","null","html-keyboard-response","146","107616","0.0-8.0-0.17","fixation","","","","",""
"69.00000013411045","Stimuli/Hangul_F40.bmp","190","image-keyboard-response","147","107685","0.0-8.0-1.17","test",".","",".","",""
"null","<div style=""color:white; font-size:60px;"">+</div>","null","html-keyboard-response","148","108687","0.0-8.0-0.18","fixation","","","","",""
"131.9999999832362","Stimuli/Hangul_M49.bmp","190","image-keyboard-response","149","108821","0.0-8.0-1.18","test",",","",".","",""
"null","<div style=""color:white; font-size:60px;"">+</div>","null","html-keyboard-response","150","109824","0.0-8.0-0.19","fixation","","","","",""
"86.00000012665987","Stimuli/Hangul_F28.bmp","190","image-keyboard-response","151","109913","0.0-8.0-1.19","test",".","",".","",""
"null","<div style=""color:white; font-size:60px;"">+</div>","null","html-keyboard-response","152","110916","0.0-8.0-0.20","fixation","","","","",""
"6.000000052154064","Stimuli/Hangul_M33.bmp","188","image-keyboard-response","153","110928","0.0-8.0-1.20","test",",","",",","",""
"null","<div style=""color:white; font-size:60px;"">+</div>","null","html-keyboard-response","154","111929","0.0-8.0-0.21","fixation","","","","",""
"36.00000008009374","Stimuli/Hangul_F37.bmp","190","image-keyboard-response","155","111967","0.0-8.0-1.21","test",".","",".","",""
"null","<div style=""color:white; font-size:60px;"">+</div>","null","html-keyboard-response","156","112969","0.0-8.0-0.22","fixation","","","","",""
"45.99999985657632","Stimuli/Hangul_M46.bmp","188","image-keyboard-response","157","113015","0.0-8.0-1.22","test",",","",",","",""
"null","<div style=""color:white; font-size:60px;"">+</div>","null","html-keyboard-response","158","114018","0.0-8.0-0.23","fixation","","","","",""
"97.99999999813735","Stimuli/Hangul_M28.bmp","188","image-keyboard-response","159","114117","0.0-8.0-1.23","test",",","",",","",""
"null","<div style=""color:white; font-size:60px;"">+</div>","null","html-keyboard-response","160","115119","0.0-8.0-0.24","fixation","","","","",""
"70.99999999627471","Stimuli/Hangul_F32.bmp","188","image-keyboard-response","161","115191","0.0-8.0-1.24","test",".","",",","",""
"null","<div style=""color:white; font-size:60px;"">+</div>","null","html-keyboard-response","162","116193","0.0-8.0-0.25","fixation","","","","",""
"56.00000009872019","Stimuli/Hangul_M38.bmp","188","image-keyboard-response","163","116250","0.0-8.0-1.25","test",",","",",","",""
"null","<div style=""color:white; font-size:60px;"">+</div>","null","html-keyboard-response","164","117251","0.0-8.0-0.26","fixation","","","","",""
"12.999999802559614","Stimuli/Hangul_M31.bmp","188","image-keyboard-response","165","117268","0.0-8.0-1.26","test",",","",",","",""
"null","<div style=""color:white; font-size:60px;"">+</div>","null","html-keyboard-response","166","118270","0.0-8.0-0.27","fixation","","","","",""
"150.0000001396984","Stimuli/Hangul_F26.bmp","190","image-keyboard-response","167","118426","0.0-8.0-1.27","test",".","",".","",""
"null","<div style=""color:white; font-size:60px;"">+</div>","null","html-keyboard-response","168","119437","0.0-8.0-0.28","fixation","","","","",""
"77.9999999795109","Stimuli/Hangul_M47.bmp","190","image-keyboard-response","169","119516","0.0-8.0-1.28","test",",","",".","",""
"null","<div style=""color:white; font-size:60px;"">+</div>","null","html-keyboard-response","170","120526","0.0-8.0-0.29","fixation","","","","",""
"42.99999983049929","Stimuli/Hangul_F39.bmp","188","image-keyboard-response","171","120570","0.0-8.0-1.29","test",".","",",","",""
"null","<div style=""color:white; font-size:60px;"">+</div>","null","html-keyboard-response","172","121573","0.0-8.0-0.30","fixation","","","","",""
"95.99999990314245","Stimuli/Hangul_F34.bmp","190","image-keyboard-response","173","121670","0.0-8.0-1.30","test",".","",".","",""
"null","<div style=""color:white; font-size:60px;"">+</div>","null","html-keyboard-response","174","122672","0.0-8.0-0.31","fixation","","","","",""
"11.000000173225999","Stimuli/Hangul_M37.bmp","188","image-keyboard-response","175","122685","0.0-8.0-1.31","test",",","",",","",""
"null","<div style=""color:white; font-size:60px;"">+</div>","null","html-keyboard-response","176","123686","0.0-8.0-0.32","fixation","","","","",""
"123.00000013783574","Stimuli/Hangul_F38.bmp","188","image-keyboard-response","177","123810","0.0-8.0-1.32","test",".","",",","",""
"null","<div style=""color:white; font-size:60px;"">+</div>","null","html-keyboard-response","178","124812","0.0-8.0-0.33","fixation","","","","",""
"74.00000002235174","Stimuli/Hangul_M35.bmp","188","image-keyboard-response","179","124886","0.0-8.0-1.33","test",",","",",","",""
"null","<div style=""color:white; font-size:60px;"">+</div>","null","html-keyboard-response","180","125888","0.0-8.0-0.34","fixation","","","","",""
"26.000000070780516","Stimuli/Hangul_M40.bmp","190","image-keyboard-response","181","125915","0.0-8.0-1.34","test",",","",".","",""
"null","<div style=""color:white; font-size:60px;"">+</div>","null","html-keyboard-response","182","126917","0.0-8.0-0.35","fixation","","","","",""
"13.999999966472387","Stimuli/Hangul_F25.bmp","188","image-keyboard-response","183","126932","0.0-8.0-1.35","test",".","",",","",""
"null","<div style=""color:white; font-size:60px;"">+</div>","null","html-keyboard-response","184","127933","0.0-8.0-0.36","fixation","","","","",""
"27.000000001862645","Stimuli/Hangul_F31.bmp","190","image-keyboard-response","185","127961","0.0-8.0-1.36","test",".","",".","",""
"null","<div style=""color:white; font-size:60px;"">+</div>","null","html-keyboard-response","186","128962","0.0-8.0-0.37","fixation","","","","",""
"49.000000115484","Stimuli/Hangul_M41.bmp","188","image-keyboard-response","187","129012","0.0-8.0-1.37","test",",","",",","",""
"null","<div style=""color:white; font-size:60px;"">+</div>","null","html-keyboard-response","188","130015","0.0-8.0-0.38","fixation","","","","",""
"41.000000201165676","Stimuli/Hangul_F47.bmp","190","image-keyboard-response","189","130057","0.0-8.0-1.38","test",".","",".","",""
"null","<div style=""color:white; font-size:60px;"">+</div>","null","html-keyboard-response","190","131058","0.0-8.0-0.39","fixation","","","","",""
"175.99999997764826","Stimuli/Hangul_M34.bmp","190","image-keyboard-response","191","131236","0.0-8.0-1.39","test",",","",".","",""
"null","<div style=""color:white; font-size:60px;"">+</div>","null","html-keyboard-response","192","132238","0.0-8.0-0.40","fixation","","","","",""
"91.00000001490116","Stimuli/Hangul_F48.bmp","188","image-keyboard-response","193","132331","0.0-8.0-1.40","test",".","",",","",""
"null","<div style=""color:white; font-size:60px;"">+</div>","null","html-keyboard-response","194","133332","0.0-8.0-0.41","fixation","","","","",""
"32.999999821186066","Stimuli/Hangul_F49.bmp","188","image-keyboard-response","195","133366","0.0-8.0-1.41","test",".","",",","",""
"null","<div style=""color:white; font-size:60px;"">+</div>","null","html-keyboard-response","196","134370","0.0-8.0-0.42","fixation","","","","",""
"65.99999987520278","Stimuli/Hangul_F33.bmp","190","image-keyboard-response","197","134438","0.0-8.0-1.42","test",".","",".","",""
"null","<div style=""color:white; font-size:60px;"">+</div>","null","html-keyboard-response","198","135439","0.0-8.0-0.43","fixation","","","","",""
"68.9999999012798","Stimuli/Hangul_M30.bmp","188","image-keyboard-response","199","135510","0.0-8.0-1.43","test",",","",",","",""
"null","<div style=""color:white; font-size:60px;"">+</div>","null","html-keyboard-response","200","136513","0.0-8.0-0.44","fixation","","","","",""
"97.99999999813735","Stimuli/Hangul_F43.bmp","188","image-keyboard-response","201","136614","0.0-8.0-1.44","test",".","",",","",""
"null","<div style=""color:white; font-size:60px;"">+</div>","null","html-keyboard-response","202","137616","0.0-8.0-0.45","fixation","","","","",""
"7.999999914318323","Stimuli/Hangul_M43.bmp","190","image-keyboard-response","203","137626","0.0-8.0-1.45","test",",","",".","",""
"null","<div style=""color:white; font-size:60px;"">+</div>","null","html-keyboard-response","204","138627","0.0-8.0-0.46","fixation","","","","",""
"48.999999882653356","Stimuli/Hangul_F30.bmp","190","image-keyboard-response","205","138677","0.0-8.0-1.46","test",".","",".","",""
"null","<div style=""color:white; font-size:60px;"">+</div>","null","html-keyboard-response","206","139679","0.0-8.0-0.47","fixation","","","","",""
"87.99999998882413","Stimuli/Hangul_M39.bmp","190","image-keyboard-response","207","139769","0.0-8.0-1.47","test",",","",".","",""
"null","<div style=""color:white; font-size:60px;"">+</div>","null","html-keyboard-response","208","140770","0.0-8.0-0.48","fixation","","","","",""
"81.99999993667006","Stimuli/Hangul_M27.bmp","188","image-keyboard-response","209","140853","0.0-8.0-1.48","test",",","",",","",""
"null","<div style=""color:white; font-size:60px;"">+</div>","null","html-keyboard-response","210","141855","0.0-8.0-0.49","fixation","","","","",""
"158.0000000540167","Stimuli/Hangul_M44.bmp","188","image-keyboard-response","211","142014","0.0-8.0-1.49","test",",","",",","",""
"4070.0000000651926","<p style=""color:white;"">Half way there! Please take a moment to rest.</p> <p style=""color:white;"">When you are ready to continue with block 3 of 4, press the space bar.</p> ","32","html-keyboard-response","212","146086","0.0-9.0","","","","","",""
"null","<div style=""color:white; font-size:60px;"">+</div>","null","html-keyboard-response","213","149090","0.0-10.0-0.0","fixation","","","","",""
"53.00000007264316","Stimuli/Hangul_M54.bmp","188","image-keyboard-response","214","149145","0.0-10.0-1.0","test",",","",",","",""
"null","<div style=""color:white; font-size:60px;"">+</div>","null","html-keyboard-response","215","150152","0.0-10.0-0.1","fixation","","","","",""
"137.9999998025596","Stimuli/Hangul_M66.bmp","190","image-keyboard-response","216","150296","0.0-10.0-1.1","test",",","",".","",""
"null","<div style=""color:white; font-size:60px;"">+</div>","null","html-keyboard-response","217","151298","0.0-10.0-0.2","fixation","","","","",""
"66.00000010803342","Stimuli/Hangul_M67.bmp","190","image-keyboard-response","218","151365","0.0-10.0-1.2","test",",","",".","",""
"null","<div style=""color:white; font-size:60px;"">+</div>","null","html-keyboard-response","219","152366","0.0-10.0-0.3","fixation","","","","",""
"56.00000009872019","Stimuli/Hangul_M51.bmp","190","image-keyboard-response","220","152424","0.0-10.0-1.3","test",",","",".","",""
"null","<div style=""color:white; font-size:60px;"">+</div>","null","html-keyboard-response","221","153440","0.0-10.0-0.4","fixation","","","","",""
"27.999999932944775","Stimuli/Hangul_F73.bmp","188","image-keyboard-response","222","153470","0.0-10.0-1.4","test",".","",",","",""
"null","<div style=""color:white; font-size:60px;"">+</div>","null","html-keyboard-response","223","154471","0.0-10.0-0.5","fixation","","","","",""
"30.000000027939677","Stimuli/Hangul_F60.bmp","188","image-keyboard-response","224","154503","0.0-10.0-1.5","test",".","",",","",""
"null","<div style=""color:white; font-size:60px;"">+</div>","null","html-keyboard-response","225","155506","0.0-10.0-0.6","fixation","","","","",""
"10.999999940395355","Stimuli/Hangul_M57.bmp","188","image-keyboard-response","226","155517","0.0-10.0-1.6","test",",","",",","",""
"null","<div style=""color:white; font-size:60px;"">+</div>","null","html-keyboard-response","227","156530","0.0-10.0-0.7","fixation","","","","",""
"81.00000000558794","Stimuli/Hangul_F72.bmp","188","image-keyboard-response","228","156612","0.0-10.0-1.7","test",".","",",","",""
"null","<div style=""color:white; font-size:60px;"">+</div>","null","html-keyboard-response","229","157614","0.0-10.0-0.8","fixation","","","","",""
"39.00000010617077","Stimuli/Hangul_F58.bmp","188","image-keyboard-response","230","157653","0.0-10.0-1.8","test",".","",",","",""
"null","<div style=""color:white; font-size:60px;"">+</div>","null","html-keyboard-response","231","158655","0.0-10.0-0.9","fixation","","","","",""
"54.99999993480742","Stimuli/Hangul_M64.bmp","188","image-keyboard-response","232","158711","0.0-10.0-1.9","test",",","",",","",""
"null","<div style=""color:white; font-size:60px;"">+</div>","null","html-keyboard-response","233","159712","0.0-10.0-0.10","fixation","","","","",""
"138.9999999664724","Stimuli/Hangul_M60.bmp","190","image-keyboard-response","234","159853","0.0-10.0-1.10","test",",","",".","",""
"null","<div style=""color:white; font-size:60px;"">+</div>","null","html-keyboard-response","235","160853","0.0-10.0-0.11","fixation","","","","",""
"64.99999994412065","Stimuli/Hangul_M74.bmp","188","image-keyboard-response","236","160918","0.0-10.0-1.11","test",",","",",","",""
"null","<div style=""color:white; font-size:60px;"">+</div>","null","html-keyboard-response","237","161919","0.0-10.0-0.12","fixation","","","","",""
"20.00000001862645","Stimuli/Hangul_M61.bmp","188","image-keyboard-response","238","161941","0.0-10.0-1.12","test",",","",",","",""
"null","<div style=""color:white; font-size:60px;"">+</div>","null","html-keyboard-response","239","162942","0.0-10.0-0.13","fixation","","","","",""
"118.99999994784594","Stimuli/Hangul_F59.bmp","190","image-keyboard-response","240","163062","0.0-10.0-1.13","test",".","",".","",""
"null","<div style=""color:white; font-size:60px;"">+</div>","null","html-keyboard-response","241","164068","0.0-10.0-0.14","fixation","","","","",""
"208.00000010058284","Stimuli/Hangul_F57.bmp","188","image-keyboard-response","242","164277","0.0-10.0-1.14","test",".","",",","",""
"null","<div style=""color:white; font-size:60px;"">+</div>","null","html-keyboard-response","243","165279","0.0-10.0-0.15","fixation","","","","",""
"294.9999999254942","Stimuli/Hangul_F74.bmp","188","image-keyboard-response","244","165575","0.0-10.0-1.15","test",".","",",","",""
"null","<div style=""color:white; font-size:60px;"">+</div>","null","html-keyboard-response","245","166577","0.0-10.0-0.16","fixation","","","","",""
"242.99999978393316","Stimuli/Hangul_F68.bmp","188","image-keyboard-response","246","166821","0.0-10.0-1.16","test",".","",",","",""
"null","<div style=""color:white; font-size:60px;"">+</div>","null","html-keyboard-response","247","167822","0.0-10.0-0.17","fixation","","","","",""
"103.00000011920929","Stimuli/Hangul_F70.bmp","188","image-keyboard-response","248","167926","0.0-10.0-1.17","test",".","",",","",""
"null","<div style=""color:white; font-size:60px;"">+</div>","null","html-keyboard-response","249","168928","0.0-10.0-0.18","fixation","","","","",""
"153.00000016577542","Stimuli/Hangul_M65.bmp","190","image-keyboard-response","250","169081","0.0-10.0-1.18","test",",","",".","",""
"null","<div style=""color:white; font-size:60px;"">+</div>","null","html-keyboard-response","251","170083","0.0-10.0-0.19","fixation","","","","",""
"13.999999966472387","Stimuli/Hangul_M69.bmp","190","image-keyboard-response","252","170098","0.0-10.0-1.19","test",",","",".","",""
"null","<div style=""color:white; font-size:60px;"">+</div>","null","html-keyboard-response","253","171101","0.0-10.0-0.20","fixation","","","","",""
"6.999999983236194","Stimuli/Hangul_M73.bmp","190","image-keyboard-response","254","171109","0.0-10.0-1.20","test",",","",".","",""
"null","<div style=""color:white; font-size:60px;"">+</div>","null","html-keyboard-response","255","172110","0.0-10.0-0.21","fixation","","","","",""
"15.999999828636646","Stimuli/Hangul_M56.bmp","190","image-keyboard-response","256","172127","0.0-10.0-1.21","test",",","",".","",""
"null","<div style=""color:white; font-size:60px;"">+</div>","null","html-keyboard-response","257","173129","0.0-10.0-0.22","fixation","","","","",""
"59.000000124797225","Stimuli/Hangul_F53.bmp","190","image-keyboard-response","258","173190","0.0-10.0-1.22","test",".","",".","",""
"null","<div style=""color:white; font-size:60px;"">+</div>","null","html-keyboard-response","259","174191","0.0-10.0-0.23","fixation","","","","",""
"118.99999994784594","Stimuli/Hangul_M50.bmp","190","image-keyboard-response","260","174314","0.0-10.0-1.23","test",",","",".","",""
"null","<div style=""color:white; font-size:60px;"">+</div>","null","html-keyboard-response","261","175324","0.0-10.0-0.24","fixation","","","","",""
"3.000000026077032","Stimuli/Hangul_M58.bmp","188","image-keyboard-response","262","175327","0.0-10.0-1.24","test",",","",",","",""
"null","<div style=""color:white; font-size:60px;"">+</div>","null","html-keyboard-response","263","176329","0.0-10.0-0.25","fixation","","","","",""
"94.0000000409782","Stimuli/Hangul_M70.bmp","188","image-keyboard-response","264","176423","0.0-10.0-1.25","test",",","",",","",""
"null","<div style=""color:white; font-size:60px;"">+</div>","null","html-keyboard-response","265","177434","0.0-10.0-0.26","fixation","","","","",""
"208.00000010058284","Stimuli/Hangul_F52.bmp","190","image-keyboard-response","266","177642","0.0-10.0-1.26","test",".","",".","",""
"null","<div style=""color:white; font-size:60px;"">+</div>","null","html-keyboard-response","267","178643","0.0-10.0-0.27","fixation","","","","",""
"12.000000104308128","Stimuli/Hangul_M63.bmp","190","image-keyboard-response","268","178656","0.0-10.0-1.27","test",",","",".","",""
"null","<div style=""color:white; font-size:60px;"">+</div>","null","html-keyboard-response","269","179657","0.0-10.0-0.28","fixation","","","","",""
"147.99999981187284","Stimuli/Hangul_F69.bmp","190","image-keyboard-response","270","179806","0.0-10.0-1.28","test",".","",".","",""
"null","<div style=""color:white; font-size:60px;"">+</div>","null","html-keyboard-response","271","180807","0.0-10.0-0.29","fixation","","","","",""
"93.00000010989606","Stimuli/Hangul_F67.bmp","190","image-keyboard-response","272","180902","0.0-10.0-1.29","test",".","",".","",""
"null","<div style=""color:white; font-size:60px;"">+</div>","null","html-keyboard-response","273","181906","0.0-10.0-0.30","fixation","","","","",""
"27.000000001862645","Stimuli/Hangul_F62.bmp","190","image-keyboard-response","274","181934","0.0-10.0-1.30","test",".","",".","",""
"null","<div style=""color:white; font-size:60px;"">+</div>","null","html-keyboard-response","275","182936","0.0-10.0-0.31","fixation","","","","",""
"94.0000000409782","Stimuli/Hangul_M55.bmp","188","image-keyboard-response","276","183031","0.0-10.0-1.31","test",",","",",","",""
"null","<div style=""color:white; font-size:60px;"">+</div>","null","html-keyboard-response","277","184031","0.0-10.0-0.32","fixation","","","","",""
"53.00000007264316","Stimuli/Hangul_F54.bmp","188","image-keyboard-response","278","184085","0.0-10.0-1.32","test",".","",",","",""
"null","<div style=""color:white; font-size:60px;"">+</div>","null","html-keyboard-response","279","185087","0.0-10.0-0.33","fixation","","","","",""
"40.0000000372529","Stimuli/Hangul_M68.bmp","188","image-keyboard-response","280","185128","0.0-10.0-1.33","test",",","",",","",""
"null","<div style=""color:white; font-size:60px;"">+</div>","null","html-keyboard-response","281","186134","0.0-10.0-0.34","fixation","","","","",""
"62.99999984912574","Stimuli/Hangul_M53.bmp","190","image-keyboard-response","282","186198","0.0-10.0-1.34","test",",","",".","",""
"null","<div style=""color:white; font-size:60px;"">+</div>","null","html-keyboard-response","283","187199","0.0-10.0-0.35","fixation","","","","",""
"266.9999999925494","Stimuli/Hangul_F61.bmp","190","image-keyboard-response","284","187474","0.0-10.0-1.35","test",".","",".","",""
"null","<div style=""color:white; font-size:60px;"">+</div>","null","html-keyboard-response","285","188478","0.0-10.0-0.36","fixation","","","","",""
"277.00000000186265","Stimuli/Hangul_F56.bmp","188","image-keyboard-response","286","188755","0.0-10.0-1.36","test",".","",",","",""
"null","<div style=""color:white; font-size:60px;"">+</div>","null","html-keyboard-response","287","189760","0.0-10.0-0.37","fixation","","","","",""
"46.00000008940697","Stimuli/Hangul_F63.bmp","190","image-keyboard-response","288","189808","0.0-10.0-1.37","test",".","",".","",""
"null","<div style=""color:white; font-size:60px;"">+</div>","null","html-keyboard-response","289","190810","0.0-10.0-0.38","fixation","","","","",""
"75.999999884516","Stimuli/Hangul_M72.bmp","188","image-keyboard-response","290","190887","0.0-10.0-1.38","test",",","",",","",""
"null","<div style=""color:white; font-size:60px;"">+</div>","null","html-keyboard-response","291","191887","0.0-10.0-0.39","fixation","","","","",""
"94.99999997206032","Stimuli/Hangul_M62.bmp","188","image-keyboard-response","292","191984","0.0-10.0-1.39","test",",","",",","",""
"null","<div style=""color:white; font-size:60px;"">+</div>","null","html-keyboard-response","293","192985","0.0-10.0-0.40","fixation","","","","",""
"32.999999821186066","Stimuli/Hangul_F55.bmp","190","image-keyboard-response","294","193019","0.0-10.0-1.40","test",".","",".","",""
"null","<div style=""color:white; font-size:60px;"">+</div>","null","html-keyboard-response","295","194024","0.0-10.0-0.41","fixation","","","","",""
"160.0000001490116","Stimuli/Hangul_F64.bmp","188","image-keyboard-response","296","194186","0.0-10.0-1.41","test",".","",",","",""
"null","<div style=""color:white; font-size:60px;"">+</div>","null","html-keyboard-response","297","195186","0.0-10.0-0.42","fixation","","","","",""
"22.000000113621354","Stimuli/Hangul_F65.bmp","190","image-keyboard-response","298","195210","0.0-10.0-1.42","test",".","",".","",""
"null","<div style=""color:white; font-size:60px;"">+</div>","null","html-keyboard-response","299","196211","0.0-10.0-0.43","fixation","","","","",""
"44.999999925494194","Stimuli/Hangul_M71.bmp","190","image-keyboard-response","300","196257","0.0-10.0-1.43","test",",","",".","",""
"null","<div style=""color:white; font-size:60px;"">+</div>","null","html-keyboard-response","301","197259","0.0-10.0-0.44","fixation","","","","",""
"172.0000000204891","Stimuli/Hangul_F50.bmp","190","image-keyboard-response","302","197432","0.0-10.0-1.44","test",".","",".","",""
"null","<div style=""color:white; font-size:60px;"">+</div>","null","html-keyboard-response","303","198456","0.0-10.0-0.45","fixation","","","","",""
"77.9999999795109","Stimuli/Hangul_F51.bmp","190","image-keyboard-response","304","198535","0.0-10.0-1.45","test",".","",".","",""
"null","<div style=""color:white; font-size:60px;"">+</div>","null","html-keyboard-response","305","199539","0.0-10.0-0.46","fixation","","","","",""
"18.99999985471368","Stimuli/Hangul_M59.bmp","190","image-keyboard-response","306","199560","0.0-10.0-1.46","test",",","",".","",""
"null","<div style=""color:white; font-size:60px;"">+</div>","null","html-keyboard-response","307","200560","0.0-10.0-0.47","fixation","","","","",""
"104.99999998137355","Stimuli/Hangul_M52.bmp","188","image-keyboard-response","308","200665","0.0-10.0-1.47","test",",","",",","",""
"null","<div style=""color:white; font-size:60px;"">+</div>","null","html-keyboard-response","309","201666","0.0-10.0-0.48","fixation","","","","",""
"162.999999942258","Stimuli/Hangul_F66.bmp","188","image-keyboard-response","310","201830","0.0-10.0-1.48","test",".","",",","",""
"null","<div style=""color:white; font-size:60px;"">+</div>","null","html-keyboard-response","311","202833","0.0-10.0-0.49","fixation","","","","",""
"70.99999999627471","Stimuli/Hangul_F71.bmp","188","image-keyboard-response","312","202905","0.0-10.0-1.49","test",".","",",","",""
"1834.999999962747","<p style=""color:white;"">One more block to go! Please take a moment to rest.</p> <p style=""color:white;"">When you are ready to continue with block 4 of 4, press the space bar.</p> ","32","html-keyboard-response","313","204741","0.0-11.0","","","","","",""
"null","<div style=""color:white; font-size:60px;"">+</div>","null","html-keyboard-response","314","207743","0.0-12.0-0.0","fixation","","","","",""
"54.99999993480742","Stimuli/Hangul_M83.bmp","188","image-keyboard-response","315","207799","0.0-12.0-1.0","test",",","",",","",""
"null","<div style=""color:white; font-size:60px;"">+</div>","null","html-keyboard-response","316","208802","0.0-12.0-0.1","fixation","","","","",""
"12.000000104308128","Stimuli/Hangul_M95.bmp","188","image-keyboard-response","317","208817","0.0-12.0-1.1","test",",","",",","",""
"null","<div style=""color:white; font-size:60px;"">+</div>","null","html-keyboard-response","318","209818","0.0-12.0-0.2","fixation","","","","",""
"43.000000063329935","Stimuli/Hangul_M94.bmp","190","image-keyboard-response","319","209862","0.0-12.0-1.2","test",",","",".","",""
"null","<div style=""color:white; font-size:60px;"">+</div>","null","html-keyboard-response","320","210864","0.0-12.0-0.3","fixation","","","","",""
"52.99999983981252","Stimuli/Hangul_F78.bmp","188","image-keyboard-response","321","210918","0.0-12.0-1.3","test",".","",",","",""
"null","<div style=""color:white; font-size:60px;"">+</div>","null","html-keyboard-response","322","211920","0.0-12.0-0.4","fixation","","","","",""
"133.00000014714897","Stimuli/Hangul_M80.bmp","188","image-keyboard-response","323","212055","0.0-12.0-1.4","test",",","",",","",""
"null","<div style=""color:white; font-size:60px;"">+</div>","null","html-keyboard-response","324","213057","0.0-12.0-0.5","fixation","","","","",""
"77.00000004842877","Stimuli/Hangul_M81.bmp","188","image-keyboard-response","325","213141","0.0-12.0-1.5","test",",","",",","",""
"null","<div style=""color:white; font-size:60px;"">+</div>","null","html-keyboard-response","326","214141","0.0-12.0-0.6","fixation","","","","",""
"135.00000000931323","Stimuli/Hangul_F77.bmp","188","image-keyboard-response","327","214277","0.0-12.0-1.6","test",".","",",","",""
"null","<div style=""color:white; font-size:60px;"">+</div>","null","html-keyboard-response","328","215278","0.0-12.0-0.7","fixation","","","","",""
"165.99999996833503","Stimuli/Hangul_M86.bmp","190","image-keyboard-response","329","215446","0.0-12.0-1.7","test",",","",".","",""
"null","<div style=""color:white; font-size:60px;"">+</div>","null","html-keyboard-response","330","216448","0.0-12.0-0.8","fixation","","","","",""
"55.00000016763806","Stimuli/Hangul_F92.bmp","190","image-keyboard-response","331","216504","0.0-12.0-1.8","test",".","",".","",""
"null","<div style=""color:white; font-size:60px;"">+</div>","null","html-keyboard-response","332","217505","0.0-12.0-0.9","fixation","","","","",""
"84.00000003166497","Stimuli/Hangul_F88.bmp","190","image-keyboard-response","333","217594","0.0-12.0-1.9","test",".","",".","",""
"null","<div style=""color:white; font-size:60px;"">+</div>","null","html-keyboard-response","334","218597","0.0-12.0-0.10","fixation","","","","",""
"1.0000001639127731","Stimuli/Hangul_M89.bmp","188","image-keyboard-response","335","218598","0.0-12.0-1.10","test",",","",",","",""
"null","<div style=""color:white; font-size:60px;"">+</div>","null","html-keyboard-response","336","219601","0.0-12.0-0.11","fixation","","","","",""
"155.9999999590218","Stimuli/Hangul_F90.bmp","188","image-keyboard-response","337","219757","0.0-12.0-1.11","test",".","",",","",""
"null","<div style=""color:white; font-size:60px;"">+</div>","null","html-keyboard-response","338","220759","0.0-12.0-0.12","fixation","","","","",""
"92.99999987706542","Stimuli/Hangul_F93.bmp","188","image-keyboard-response","339","220853","0.0-12.0-1.12","test",".","",",","",""
"null","<div style=""color:white; font-size:60px;"">+</div>","null","html-keyboard-response","340","221854","0.0-12.0-0.13","fixation","","","","",""
"23.999999975785613","Stimuli/Hangul_F75.bmp","188","image-keyboard-response","341","221880","0.0-12.0-1.13","test",".","",",","",""
"null","<div style=""color:white; font-size:60px;"">+</div>","null","html-keyboard-response","342","222881","0.0-12.0-0.14","fixation","","","","",""
"47.0000000204891","Stimuli/Hangul_M97.bmp","188","image-keyboard-response","343","222929","0.0-12.0-1.14","test",",","",",","",""
"null","<div style=""color:white; font-size:60px;"">+</div>","null","html-keyboard-response","344","223930","0.0-12.0-0.15","fixation","","","","",""
"106.00000014528632","Stimuli/Hangul_M84.bmp","188","image-keyboard-response","345","224038","0.0-12.0-1.15","test",",","",",","",""
"null","<div style=""color:white; font-size:60px;"">+</div>","null","html-keyboard-response","346","225040","0.0-12.0-0.16","fixation","","","","",""
"227.99999988637865","Stimuli/Hangul_M96.bmp","188","image-keyboard-response","347","225269","0.0-12.0-1.16","test",",","",",","",""
"null","<div style=""color:white; font-size:60px;"">+</div>","null","html-keyboard-response","348","226274","0.0-12.0-0.17","fixation","","","","",""
"37.00000001117587","Stimuli/Hangul_M82.bmp","188","image-keyboard-response","349","226311","0.0-12.0-1.17","test",",","",",","",""
"null","<div style=""color:white; font-size:60px;"">+</div>","null","html-keyboard-response","350","227322","0.0-12.0-0.18","fixation","","","","",""
"23.999999975785613","Stimuli/Hangul_M92.bmp","188","image-keyboard-response","351","227346","0.0-12.0-1.18","test",",","",",","",""
"null","<div style=""color:white; font-size:60px;"">+</div>","null","html-keyboard-response","352","228350","0.0-12.0-0.19","fixation","","","","",""
"70.99999999627471","Stimuli/Hangul_F85.bmp","188","image-keyboard-response","353","228422","0.0-12.0-1.19","test",".","",",","",""
"null","<div style=""color:white; font-size:60px;"">+</div>","null","html-keyboard-response","354","229425","0.0-12.0-0.20","fixation","","","","",""
"63.00000008195639","Stimuli/Hangul_F84.bmp","188","image-keyboard-response","355","229493","0.0-12.0-1.20","test",".","",",","",""
"null","<div style=""color:white; font-size:60px;"">+</div>","null","html-keyboard-response","356","230494","0.0-12.0-0.21","fixation","","","","",""
"37.999999942258","Stimuli/Hangul_F79.bmp","188","image-keyboard-response","357","230532","0.0-12.0-1.21","test",".","",",","",""
"null","<div style=""color:white; font-size:60px;"">+</div>","null","html-keyboard-response","358","231534","0.0-12.0-0.22","fixation","","","","",""
"54.99999993480742","Stimuli/Hangul_M78.bmp","188","image-keyboard-response","359","231590","0.0-12.0-1.22","test",",","",",","",""
"null","<div style=""color:white; font-size:60px;"">+</div>","null","html-keyboard-response","360","232591","0.0-12.0-0.23","fixation","","","","",""
"87.000000057742","Stimuli/Hangul_F99.bmp","190","image-keyboard-response","361","232679","0.0-12.0-1.23","test",".","",".","",""
"null","<div style=""color:white; font-size:60px;"">+</div>","null","html-keyboard-response","362","233681","0.0-12.0-0.24","fixation","","","","",""
"34.99999991618097","Stimuli/Hangul_F86.bmp","188","image-keyboard-response","363","233718","0.0-12.0-1.24","test",".","",",","",""
"null","<div style=""color:white; font-size:60px;"">+</div>","null","html-keyboard-response","364","234720","0.0-12.0-0.25","fixation","","","","",""
"13.999999966472387","Stimuli/Hangul_M88.bmp","188","image-keyboard-response","365","234734","0.0-12.0-1.25","test",",","",",","",""
"null","<div style=""color:white; font-size:60px;"">+</div>","null","html-keyboard-response","366","235738","0.0-12.0-0.26","fixation","","","","",""
"106.00000014528632","Stimuli/Hangul_F91.bmp","190","image-keyboard-response","367","235845","0.0-12.0-1.26","test",".","",".","",""
"null","<div style=""color:white; font-size:60px;"">+</div>","null","html-keyboard-response","368","236846","0.0-12.0-0.27","fixation","","","","",""
"16.99999999254942","Stimuli/Hangul_F80.bmp","190","image-keyboard-response","369","236864","0.0-12.0-1.27","test",".","",".","",""
"null","<div style=""color:white; font-size:60px;"">+</div>","null","html-keyboard-response","370","237866","0.0-12.0-0.28","fixation","","","","",""
"30.000000027939677","Stimuli/Hangul_F89.bmp","190","image-keyboard-response","371","237896","0.0-12.0-1.28","test",".","",".","",""
"null","<div style=""color:white; font-size:60px;"">+</div>","null","html-keyboard-response","372","238897","0.0-12.0-0.29","fixation","","","","",""
"51.99999990873039","Stimuli/Hangul_F76.bmp","190","image-keyboard-response","373","238950","0.0-12.0-1.29","test",".","",".","",""
"null","<div style=""color:white; font-size:60px;"">+</div>","null","html-keyboard-response","374","239961","0.0-12.0-0.30","fixation","","","","",""
"11.999999871477485","Stimuli/Hangul_M90.bmp","190","image-keyboard-response","375","239976","0.0-12.0-1.30","test",",","",".","",""
"null","<div style=""color:white; font-size:60px;"">+</div>","null","html-keyboard-response","376","240978","0.0-12.0-0.31","fixation","","","","",""
"50.00000004656613","Stimuli/Hangul_M93.bmp","190","image-keyboard-response","377","241030","0.0-12.0-1.31","test",",","",".","",""
"null","<div style=""color:white; font-size:60px;"">+</div>","null","html-keyboard-response","378","242031","0.0-12.0-0.32","fixation","","","","",""
"20.99999994970858","Stimuli/Hangul_M77.bmp","190","image-keyboard-response","379","242054","0.0-12.0-1.32","test",",","",".","",""
"null","<div style=""color:white; font-size:60px;"">+</div>","null","html-keyboard-response","380","243056","0.0-12.0-0.33","fixation","","","","",""
"13.999999966472387","Stimuli/Hangul_M87.bmp","190","image-keyboard-response","381","243072","0.0-12.0-1.33","test",",","",".","",""
"null","<div style=""color:white; font-size:60px;"">+</div>","null","html-keyboard-response","382","244074","0.0-12.0-0.34","fixation","","","","",""
"11.999999871477485","Stimuli/Hangul_F94.bmp","190","image-keyboard-response","383","244103","0.0-12.0-1.34","test",".","",".","",""
"null","<div style=""color:white; font-size:60px;"">+</div>","null","html-keyboard-response","384","245105","0.0-12.0-0.35","fixation","","","","",""
"131.9999999832362","Stimuli/Hangul_F81.bmp","188","image-keyboard-response","385","245239","0.0-12.0-1.35","test",".","",",","",""
"null","<div style=""color:white; font-size:60px;"">+</div>","null","html-keyboard-response","386","246240","0.0-12.0-0.36","fixation","","","","",""
"101.00000002421439","Stimuli/Hangul_M91.bmp","190","image-keyboard-response","387","246343","0.0-12.0-1.36","test",",","",".","",""
"null","<div style=""color:white; font-size:60px;"">+</div>","null","html-keyboard-response","388","247344","0.0-12.0-0.37","fixation","","","","",""
"27.999999932944775","Stimuli/Hangul_F97.bmp","190","image-keyboard-response","389","247372","0.0-12.0-1.37","test",".","",".","",""
"null","<div style=""color:white; font-size:60px;"">+</div>","null","html-keyboard-response","390","248374","0.0-12.0-0.38","fixation","","","","",""
"60.999999986961484","Stimuli/Hangul_F82.bmp","190","image-keyboard-response","391","248436","0.0-12.0-1.38","test",".","",".","",""
"null","<div style=""color:white; font-size:60px;"">+</div>","null","html-keyboard-response","392","249444","0.0-12.0-0.39","fixation","","","","",""
"7566.000000108033","Stimuli/Hangul_F87.bmp","188","image-keyboard-response","393","257013","0.0-12.0-1.39","test",".","",",","",""
"null","<div style=""color:white; font-size:60px;"">+</div>","null","html-keyboard-response","394","258015","0.0-12.0-0.40","fixation","","","","",""
"150.0000001396984","Stimuli/Hangul_F83.bmp","188","image-keyboard-response","395","258165","0.0-12.0-1.40","test",".","",",","",""
"null","<div style=""color:white; font-size:60px;"">+</div>","null","html-keyboard-response","396","259167","0.0-12.0-0.41","fixation","","","","",""
"23.000000044703484","Stimuli/Hangul_F96.bmp","188","image-keyboard-response","397","259192","0.0-12.0-1.41","test",".","",",","",""
"null","<div style=""color:white; font-size:60px;"">+</div>","null","html-keyboard-response","398","260194","0.0-12.0-0.42","fixation","","","","",""
"83.00000010058284","Stimuli/Hangul_F98.bmp","188","image-keyboard-response","399","260278","0.0-12.0-1.42","test",".","",",","",""
"null","<div style=""color:white; font-size:60px;"">+</div>","null","html-keyboard-response","400","261278","0.0-12.0-0.43","fixation","","","","",""
"75.00000018626451","Stimuli/Hangul_M79.bmp","188","image-keyboard-response","401","261354","0.0-12.0-1.43","test",",","",",","",""
"null","<div style=""color:white; font-size:60px;"">+</div>","null","html-keyboard-response","402","262355","0.0-12.0-0.44","fixation","","","","",""
"32.00000012293458","Stimuli/Hangul_F95.bmp","188","image-keyboard-response","403","262388","0.0-12.0-1.44","test",".","",",","",""
"null","<div style=""color:white; font-size:60px;"">+</div>","null","html-keyboard-response","404","263390","0.0-12.0-0.45","fixation","","","","",""
"38.99999987334013","Stimuli/Hangul_M75.bmp","190","image-keyboard-response","405","263431","0.0-12.0-1.45","test",",","",".","",""
"null","<div style=""color:white; font-size:60px;"">+</div>","null","html-keyboard-response","406","264442","0.0-12.0-0.46","fixation","","","","",""
"539.0000001061708","Stimuli/Hangul_M98.bmp","188","image-keyboard-response","407","264983","0.0-12.0-1.46","test",",","",",","",""
"null","<div style=""color:white; font-size:60px;"">+</div>","null","html-keyboard-response","408","265985","0.0-12.0-0.47","fixation","","","","",""
"145.00000001862645","Stimuli/Hangul_M99.bmp","190","image-keyboard-response","409","266131","0.0-12.0-1.47","test",",","",".","",""
"null","<div style=""color:white; font-size:60px;"">+</div>","null","html-keyboard-response","410","267132","0.0-12.0-0.48","fixation","","","","",""
"87.99999998882413","Stimuli/Hangul_M76.bmp","190","image-keyboard-response","411","267221","0.0-12.0-1.48","test",",","",".","",""
"null","<div style=""color:white; font-size:60px;"">+</div>","null","html-keyboard-response","412","268222","0.0-12.0-0.49","fixation","","","","",""
"50.99999997764826","Stimuli/Hangul_M85.bmp","188","image-keyboard-response","413","268274","0.0-12.0-1.49","test",",","",",","",""
"6450.999999884516","<p style=""color:white;"">Phase I of the experiment is complete.</p> <p style=""color:white;"">Press the space bar to proceed to Phase II of the experiment.</p> ","32","html-keyboard-response","414","274725","0.0-13.0","","","","","",""
"9436.999999918044","<p style=""color:white;"">Now we are interested in how well you can predict patterns in the series of figures. You will be asked to predict whether the next figure in the series is more male-like or female-like. When you see the <q>Next Figure</q> prompt, press the corresponding response keys to indicate your prediction: </p><p style=""color:white;""> Male &#8594 <q>,</q> (comma)</p><p style=""color:white;""> Female &#8594 <q>.</q> (period)</p><p style=""color:white;"">The actual figure will then appear on the screen. After you see the figure, please guess the assigned gender with response keys. </p><p style=""color:white;"">As before, you will receive 2 cents for correctly classifying each figure.</p><p style=""color:white;"">Press either response keys to continue.</p>","190","html-keyboard-response","415","286165","0.0-14.0","","","","","",""
"1041.9999998994172","<p style=""color:white;"">PREDICTION BONUS</p> <p style=""color:white;"">Your prediction accuracy is the total number of correct predictions you make over the 200 trials.</p> <p style=""color:white;"">In addition to the 2 cents per correct figure classification, you have the chance to receive a bonus of 40 dollars IF your accuracy is above average relative to previous participants.</p><p style=""color:white;"">If your accuracy is below average relative to previous participants, then you will not receive the 40 dollar bonus.</p><p style=""color:white;"">Press the space bar to continue.</p>","32","html-keyboard-response","416","287208","0.0-15.0","","","","","",""
"2560.0000000558794","<p style=""color:white;"">Here are some examples.</p> <p style=""color:white;"">For each, predict whether the next figure looks more male-like or female-like. Then, when the figure appears, guess whether it looks more male-like or female-like and indicate your choice.</p> <p style=""color:white;"">Press the space bar to continue.</p>","32","html-keyboard-response","417","289768","0.0-16.0","","","","","",""
"43.000000063329935","<p style=""color:white;""> Next Figure: Male or Female? </p>","188","html-keyboard-response","418","291814","0.0-17.0-0.0","prediction_train","","","",",",""
"null","<div style=""color:white; font-size:60px;"">+</div>","null","html-keyboard-response","419","292814","0.0-17.0-1.0","fixation","","","","",""
"37.00000001117587","Stimuli/Hangul_E1.bmp","188","image-keyboard-response","420","292852","0.0-17.0-2.0","c2_train",",","","","",","
"94.99999997206032","<p style=""color:white;""> Next Figure: Male or Female? </p>","190","html-keyboard-response","421","292948","0.0-17.0-0.1","prediction_train","","","",".",""
"null","<div style=""color:white; font-size:60px;"">+</div>","null","html-keyboard-response","422","293950","0.0-17.0-1.1","fixation","","","","",""
"84.9999999627471","Stimuli/Hangul_E0.bmp","190","image-keyboard-response","423","294037","0.0-17.0-2.1","c2_train",",","","","","."
"182.00000002980232","<p style=""color:white;""> Next Figure: Male or Female? </p>","188","html-keyboard-response","424","294219","0.0-17.0-0.2","prediction_train","","","",",",""
"null","<div style=""color:white; font-size:60px;"">+</div>","null","html-keyboard-response","425","295220","0.0-17.0-1.2","fixation","","","","",""
"25.000000139698386","Stimuli/Hangul_E2.bmp","190","image-keyboard-response","426","295246","0.0-17.0-2.2","c2_train",".","","","","."
"1624.0000000689179","<p style=""color:white;"">Let us begin! Press the space bar when you are ready to start block 1 of 4.</p> ","32","html-keyboard-response","427","296872","0.0-18.0","","","","","",""
"31.00000019185245","<p style=""color:white;""> Next Figure: Male or Female? </p>","188","html-keyboard-response","428","298905","0.0-19.0-0.0","prediction","","","",",",""
"null","<div style=""color:white; font-size:60px;"">+</div>","null","html-keyboard-response","429","299906","0.0-19.0-1.0","fixation","","","","",""
"79.99999984167516","Stimuli/Hangul_M3.bmp","188","image-keyboard-response","430","299989","0.0-19.0-2.0","c2_test",",","","","",","
"142.99999992363155","<p style=""color:white;""> Next Figure: Male or Female? </p>","190","html-keyboard-response","431","300134","0.0-19.0-0.1","prediction","","","",".",""
"null","<div style=""color:white; font-size:60px;"">+</div>","null","html-keyboard-response","432","301136","0.0-19.0-1.1","fixation","","","","",""
"23.000000044703484","Stimuli/Hangul_F12.bmp","190","image-keyboard-response","433","301160","0.0-19.0-2.1","c2_test",".","","","","."
"191.00000010803342","<p style=""color:white;""> Next Figure: Male or Female? </p>","190","html-keyboard-response","434","301353","0.0-19.0-0.2","prediction","","","",".",""
"null","<div style=""color:white; font-size:60px;"">+</div>","null","html-keyboard-response","435","302355","0.0-19.0-1.2","fixation","","","","",""
"97.00000006705523","Stimuli/Hangul_M5.bmp","190","image-keyboard-response","436","302454","0.0-19.0-2.2","c2_test",",","","","","."
"122.9999999050051","<p style=""color:white;""> Next Figure: Male or Female? </p>","188","html-keyboard-response","437","302581","0.0-19.0-0.3","prediction","","","",",",""
"null","<div style=""color:white; font-size:60px;"">+</div>","null","html-keyboard-response","438","303582","0.0-19.0-1.3","fixation","","","","",""
"136.000000173226","Stimuli/Hangul_F10.bmp","188","image-keyboard-response","439","303719","0.0-19.0-2.3","c2_test",".","","","",","
"190.99999987520278","<p style=""color:white;""> Next Figure: Male or Female? </p>","190","html-keyboard-response","440","303911","0.0-19.0-0.4","prediction","","","",".",""
"null","<div style=""color:white; font-size:60px;"">+</div>","null","html-keyboard-response","441","304917","0.0-19.0-1.4","fixation","","","","",""
"77.00000004842877","Stimuli/Hangul_M8.bmp","188","image-keyboard-response","442","304995","0.0-19.0-2.4","c2_test",",","","","",","
"150.0000001396984","<p style=""color:white;""> Next Figure: Male or Female? </p>","190","html-keyboard-response","443","305147","0.0-19.0-0.5","prediction","","","",".",""
"null","<div style=""color:white; font-size:60px;"">+</div>","null","html-keyboard-response","444","306150","0.0-19.0-1.5","fixation","","","","",""
"175.00000004656613","Stimuli/Hangul_F14.bmp","188","image-keyboard-response","445","306326","0.0-19.0-2.5","c2_test",".","","","",","
"131.00000005215406","<p style=""color:white;""> Next Figure: Male or Female? </p>","190","html-keyboard-response","446","306458","0.0-19.0-0.6","prediction","","","",".",""
"null","<div style=""color:white; font-size:60px;"">+</div>","null","html-keyboard-response","447","307460","0.0-19.0-1.6","fixation","","","","",""
"10.000000009313226","Stimuli/Hangul_M6.bmp","188","image-keyboard-response","448","307471","0.0-19.0-2.6","c2_test",",","","","",","
"134.0000000782311","<p style=""color:white;""> Next Figure: Male or Female? </p>","190","html-keyboard-response","449","307606","0.0-19.0-0.7","prediction","","","",".",""
"null","<div style=""color:white; font-size:60px;"">+</div>","null","html-keyboard-response","450","308616","0.0-19.0-1.7","fixation","","","","",""
"140.00000013038516","Stimuli/Hangul_F6.bmp","190","image-keyboard-response","451","308757","0.0-19.0-2.7","c2_test",".","","","","."
"228.0000001192093","<p style=""color:white;""> Next Figure: Male or Female? </p>","190","html-keyboard-response","452","308987","0.0-19.0-0.8","prediction","","","",".",""
"null","<div style=""color:white; font-size:60px;"">+</div>","null","html-keyboard-response","453","309989","0.0-19.0-1.8","fixation","","","","",""
"33.00000005401671","Stimuli/Hangul_F17.bmp","190","image-keyboard-response","454","310023","0.0-19.0-2.8","c2_test",".","","","","."
"124.00000006891787","<p style=""color:white;""> Next Figure: Male or Female? </p>","188","html-keyboard-response","455","310148","0.0-19.0-0.9","prediction","","","",",",""
"null","<div style=""color:white; font-size:60px;"">+</div>","null","html-keyboard-response","456","311150","0.0-19.0-1.9","fixation","","","","",""
"71.99999992735684","Stimuli/Hangul_F3.bmp","190","image-keyboard-response","457","311222","0.0-19.0-2.9","c2_test",".","","","","."
"207.9999998677522","<p style=""color:white;""> Next Figure: Male or Female? </p>","190","html-keyboard-response","458","311431","0.0-19.0-0.10","prediction","","","",".",""
"null","<div style=""color:white; font-size:60px;"">+</div>","null","html-keyboard-response","459","312434","0.0-19.0-1.10","fixation","","","","",""
"35.00000014901161","Stimuli/Hangul_F21.bmp","190","image-keyboard-response","460","312469","0.0-19.0-2.10","c2_test",".","","","","."
"222.99999999813735","<p style=""color:white;""> Next Figure: Male or Female? </p>","190","html-keyboard-response","461","312693","0.0-19.0-0.11","prediction","","","",".",""
"null","<div style=""color:white; font-size:60px;"">+</div>","null","html-keyboard-response","462","313696","0.0-19.0-1.11","fixation","","","","",""
"130.00000012107193","Stimuli/Hangul_M0.bmp","190","image-keyboard-response","463","313827","0.0-19.0-2.11","c2_test",",","","","","."
"226.0000000242144","<p style=""color:white;""> Next Figure: Male or Female? </p>","190","html-keyboard-response","464","314054","0.0-19.0-0.12","prediction","","","",".",""
"null","<div style=""color:white; font-size:60px;"">+</div>","null","html-keyboard-response","465","315055","0.0-19.0-1.12","fixation","","","","",""
"104.99999998137355","Stimuli/Hangul_M23.bmp","190","image-keyboard-response","466","315161","0.0-19.0-2.12","c2_test",",","","","","."
"220.00000020489097","<p style=""color:white;""> Next Figure: Male or Female? </p>","190","html-keyboard-response","467","315381","0.0-19.0-0.13","prediction","","","",".",""
"null","<div style=""color:white; font-size:60px;"">+</div>","null","html-keyboard-response","468","316383","0.0-19.0-1.13","fixation","","","","",""
"168.00000006332994","Stimuli/Hangul_F13.bmp","190","image-keyboard-response","469","316552","0.0-19.0-2.13","c2_test",".","","","","."
"104.99999998137355","<p style=""color:white;""> Next Figure: Male or Female? </p>","188","html-keyboard-response","470","316659","0.0-19.0-0.14","prediction","","","",",",""
"null","<div style=""color:white; font-size:60px;"">+</div>","null","html-keyboard-response","471","317661","0.0-19.0-1.14","fixation","","","","",""
"38.000000175088644","Stimuli/Hangul_F2.bmp","188","image-keyboard-response","472","317699","0.0-19.0-2.14","c2_test",".","","","",","
"234.99999986961484","<p style=""color:white;""> Next Figure: Male or Female? </p>","188","html-keyboard-response","473","317941","0.0-19.0-0.15","prediction","","","",",",""
"null","<div style=""color:white; font-size:60px;"">+</div>","null","html-keyboard-response","474","318943","0.0-19.0-1.15","fixation","","","","",""
"39.00000010617077","Stimuli/Hangul_M13.bmp","188","image-keyboard-response","475","318983","0.0-19.0-2.15","c2_test",",","","","",","
"300.99999997764826","<p style=""color:white;""> Next Figure: Male or Female? </p>","188","html-keyboard-response","476","319285","0.0-19.0-0.16","prediction","","","",",",""
"null","<div style=""color:white; font-size:60px;"">+</div>","null","html-keyboard-response","477","320287","0.0-19.0-1.16","fixation","","","","",""
"23.000000044703484","Stimuli/Hangul_M12.bmp","190","image-keyboard-response","478","320311","0.0-19.0-2.16","c2_test",",","","","","."
"141.0000000614673","<p style=""color:white;""> Next Figure: Male or Female? </p>","188","html-keyboard-response","479","320453","0.0-19.0-0.17","prediction","","","",",",""
"null","<div style=""color:white; font-size:60px;"">+</div>","null","html-keyboard-response","480","321455","0.0-19.0-1.17","fixation","","","","",""
"25.000000139698386","Stimuli/Hangul_M19.bmp","190","image-keyboard-response","481","321481","0.0-19.0-2.17","c2_test",",","","","","."
"137.9999998025596","<p style=""color:white;""> Next Figure: Male or Female? </p>","188","html-keyboard-response","482","321624","0.0-19.0-0.18","prediction","","","",",",""
"null","<div style=""color:white; font-size:60px;"">+</div>","null","html-keyboard-response","483","322626","0.0-19.0-1.18","fixation","","","","",""
"65.00000017695129","Stimuli/Hangul_M16.bmp","190","image-keyboard-response","484","322692","0.0-19.0-2.18","c2_test",",","","","","."
"159.99999991618097","<p style=""color:white;""> Next Figure: Male or Female? </p>","188","html-keyboard-response","485","322854","0.0-19.0-0.19","prediction","","","",",",""
"null","<div style=""color:white; font-size:60px;"">+</div>","null","html-keyboard-response","486","323856","0.0-19.0-1.19","fixation","","","","",""
"22.000000113621354","Stimuli/Hangul_M18.bmp","190","image-keyboard-response","487","323879","0.0-19.0-2.19","c2_test",",","","","","."
"109.99999986961484","<p style=""color:white;""> Next Figure: Male or Female? </p>","188","html-keyboard-response","488","323989","0.0-19.0-0.20","prediction","","","",",",""
"null","<div style=""color:white; font-size:60px;"">+</div>","null","html-keyboard-response","489","324990","0.0-19.0-1.20","fixation","","","","",""
"158.99999998509884","Stimuli/Hangul_M24.bmp","190","image-keyboard-response","490","325152","0.0-19.0-2.20","c2_test",",","","","","."
"181.0000000987202","<p style=""color:white;""> Next Figure: Male or Female? </p>","190","html-keyboard-response","491","325335","0.0-19.0-0.21","prediction","","","",".",""
"null","<div style=""color:white; font-size:60px;"">+</div>","null","html-keyboard-response","492","326338","0.0-19.0-1.21","fixation","","","","",""
"97.00000006705523","Stimuli/Hangul_M2.bmp","188","image-keyboard-response","493","326436","0.0-19.0-2.21","c2_test",",","","","",","
"130.00000012107193","<p style=""color:white;""> Next Figure: Male or Female? </p>","190","html-keyboard-response","494","326567","0.0-19.0-0.22","prediction","","","",".",""
"null","<div style=""color:white; font-size:60px;"">+</div>","null","html-keyboard-response","495","327568","0.0-19.0-1.22","fixation","","","","",""
"191.00000010803342","Stimuli/Hangul_F1.bmp","190","image-keyboard-response","496","327760","0.0-19.0-2.22","c2_test",".","","","","."
"209.9999999627471","<p style=""color:white;""> Next Figure: Male or Female? </p>","188","html-keyboard-response","497","327970","0.0-19.0-0.23","prediction","","","",",",""
"null","<div style=""color:white; font-size:60px;"">+</div>","null","html-keyboard-response","498","328972","0.0-19.0-1.23","fixation","","","","",""
"135.00000000931323","Stimuli/Hangul_F7.bmp","190","image-keyboard-response","499","329108","0.0-19.0-2.23","c2_test",".","","","","."
"49.000000115484","<p style=""color:white;""> Next Figure: Male or Female? </p>","188","html-keyboard-response","500","329159","0.0-19.0-0.24","prediction","","","",",",""
"null","<div style=""color:white; font-size:60px;"">+</div>","null","html-keyboard-response","501","330164","0.0-19.0-1.24","fixation","","","","",""
"47.0000000204891","Stimuli/Hangul_M21.bmp","190","image-keyboard-response","502","330213","0.0-19.0-2.24","c2_test",",","","","","."
"128.99999995715916","<p style=""color:white;""> Next Figure: Male or Female? </p>","188","html-keyboard-response","503","330344","0.0-19.0-0.25","prediction","","","",",",""
"null","<div style=""color:white; font-size:60px;"">+</div>","null","html-keyboard-response","504","331346","0.0-19.0-1.25","fixation","","","","",""
"96.99999983422458","Stimuli/Hangul_M20.bmp","188","image-keyboard-response","505","331445","0.0-19.0-2.25","c2_test",",","","","",","
"164.00000010617077","<p style=""color:white;""> Next Figure: Male or Female? </p>","190","html-keyboard-response","506","331609","0.0-19.0-0.26","prediction","","","",".",""
"null","<div style=""color:white; font-size:60px;"">+</div>","null","html-keyboard-response","507","332613","0.0-19.0-1.26","fixation","","","","",""
"45.00000015832484","Stimuli/Hangul_F0.bmp","190","image-keyboard-response","508","332659","0.0-19.0-2.26","c2_test",".","","","","."
"152.99999993294477","<p style=""color:white;""> Next Figure: Male or Female? </p>","188","html-keyboard-response","509","332813","0.0-19.0-0.27","prediction","","","",",",""
"null","<div style=""color:white; font-size:60px;"">+</div>","null","html-keyboard-response","510","333814","0.0-19.0-1.27","fixation","","","","",""
"54.00000000372529","Stimuli/Hangul_F22.bmp","188","image-keyboard-response","511","333869","0.0-19.0-2.27","c2_test",".","","","",","
"192.99999997019768","<p style=""color:white;""> Next Figure: Male or Female? </p>","190","html-keyboard-response","512","334064","0.0-19.0-0.28","prediction","","","",".",""
"null","<div style=""color:white; font-size:60px;"">+</div>","null","html-keyboard-response","513","335065","0.0-19.0-1.28","fixation","","","","",""
"42.000000132247806","Stimuli/Hangul_F24.bmp","190","image-keyboard-response","514","335109","0.0-19.0-2.28","c2_test",".","","","","."
"81.00000000558794","<p style=""color:white;""> Next Figure: Male or Female? </p>","188","html-keyboard-response","515","335191","0.0-19.0-0.29","prediction","","","",",",""
"null","<div style=""color:white; font-size:60px;"">+</div>","null","html-keyboard-response","516","336196","0.0-19.0-1.29","fixation","","","","",""
"5.000000121071935","Stimuli/Hangul_M22.bmp","188","image-keyboard-response","517","336203","0.0-19.0-2.29","c2_test",",","","","",","
"137.00000010430813","<p style=""color:white;""> Next Figure: Male or Female? </p>","190","html-keyboard-response","518","336341","0.0-19.0-0.30","prediction","","","",".",""
"null","<div style=""color:white; font-size:60px;"">+</div>","null","html-keyboard-response","519","337343","0.0-19.0-1.30","fixation","","","","",""
"104.99999998137355","Stimuli/Hangul_M11.bmp","190","image-keyboard-response","520","337448","0.0-19.0-2.30","c2_test",",","","","","."
"75.999999884516","<p style=""color:white;""> Next Figure: Male or Female? </p>","188","html-keyboard-response","521","337526","0.0-19.0-0.31","prediction","","","",",",""
"null","<div style=""color:white; font-size:60px;"">+</div>","null","html-keyboard-response","522","338543","0.0-19.0-1.31","fixation","","","","",""
"232.00000007636845","Stimuli/Hangul_M15.bmp","190","image-keyboard-response","523","338775","0.0-19.0-2.31","c2_test",",","","","","."
"28.00000016577542","<p style=""color:white;""> Next Figure: Male or Female? </p>","188","html-keyboard-response","524","338804","0.0-19.0-0.32","prediction","","","",",",""
"null","<div style=""color:white; font-size:60px;"">+</div>","null","html-keyboard-response","525","339804","0.0-19.0-1.32","fixation","","","","",""
"120.9999998100102","Stimuli/Hangul_F8.bmp","188","image-keyboard-response","526","339928","0.0-19.0-2.32","c2_test",".","","","",","
"141.0000000614673","<p style=""color:white;""> Next Figure: Male or Female? </p>","190","html-keyboard-response","527","340069","0.0-19.0-0.33","prediction","","","",".",""
"null","<div style=""color:white; font-size:60px;"">+</div>","null","html-keyboard-response","528","341072","0.0-19.0-1.33","fixation","","","","",""
"91.99999994598329","Stimuli/Hangul_M17.bmp","190","image-keyboard-response","529","341166","0.0-19.0-2.33","c2_test",",","","","","."
"78.00000021234155","<p style=""color:white;""> Next Figure: Male or Female? </p>","188","html-keyboard-response","530","341246","0.0-19.0-0.34","prediction","","","",",",""
"null","<div style=""color:white; font-size:60px;"">+</div>","null","html-keyboard-response","531","342248","0.0-19.0-1.34","fixation","","","","",""
"60.000000055879354","Stimuli/Hangul_F23.bmp","188","image-keyboard-response","532","342309","0.0-19.0-2.34","c2_test",".","","","",","
"185.99999998696148","<p style=""color:white;""> Next Figure: Male or Female? </p>","190","html-keyboard-response","533","342495","0.0-19.0-0.35","prediction","","","",".",""
"null","<div style=""color:white; font-size:60px;"">+</div>","null","html-keyboard-response","534","343496","0.0-19.0-1.35","fixation","","","","",""
"60.999999986961484","Stimuli/Hangul_M7.bmp","188","image-keyboard-response","535","343557","0.0-19.0-2.35","c2_test",",","","","",","
"220.99999990314245","<p style=""color:white;""> Next Figure: Male or Female? </p>","188","html-keyboard-response","536","343781","0.0-19.0-0.36","prediction","","","",",",""
"null","<div style=""color:white; font-size:60px;"">+</div>","null","html-keyboard-response","537","344782","0.0-19.0-1.36","fixation","","","","",""
"101.99999995529652","Stimuli/Hangul_F18.bmp","190","image-keyboard-response","538","344887","0.0-19.0-2.36","c2_test",".","","","","."
"85.99999989382923","<p style=""color:white;""> Next Figure: Male or Female? </p>","188","html-keyboard-response","539","344984","0.0-19.0-0.37","prediction","","","",",",""
"null","<div style=""color:white; font-size:60px;"">+</div>","null","html-keyboard-response","540","345984","0.0-19.0-1.37","fixation","","","","",""
"67.00000003911555","Stimuli/Hangul_F11.bmp","188","image-keyboard-response","541","346052","0.0-19.0-2.37","c2_test",".","","","",","
"161.00000008009374","<p style=""color:white;""> Next Figure: Male or Female? </p>","190","html-keyboard-response","542","346214","0.0-19.0-0.38","prediction","","","",".",""
"null","<div style=""color:white; font-size:60px;"">+</div>","null","html-keyboard-response","543","347215","0.0-19.0-1.38","fixation","","","","",""
"172.0000000204891","Stimuli/Hangul_F9.bmp","190","image-keyboard-response","544","347387","0.0-19.0-2.38","c2_test",".","","","","."
"40.0000000372529","<p style=""color:white;""> Next Figure: Male or Female? </p>","188","html-keyboard-response","545","347429","0.0-19.0-0.39","prediction","","","",",",""
"null","<div style=""color:white; font-size:60px;"">+</div>","null","html-keyboard-response","546","348433","0.0-19.0-1.39","fixation","","","","",""
"73.00000009126961","Stimuli/Hangul_M4.bmp","190","image-keyboard-response","547","348507","0.0-19.0-2.39","c2_test",",","","","","."
"121.00000004284084","<p style=""color:white;""> Next Figure: Male or Female? </p>","188","html-keyboard-response","548","348629","0.0-19.0-0.40","prediction","","","",",",""
"null","<div style=""color:white; font-size:60px;"">+</div>","null","html-keyboard-response","549","349631","0.0-19.0-1.40","fixation","","","","",""
"133.99999984540045","Stimuli/Hangul_M9.bmp","190","image-keyboard-response","550","349765","0.0-19.0-2.40","c2_test",",","","","","."
"142.00000022538006","<p style=""color:white;""> Next Figure: Male or Female? </p>","188","html-keyboard-response","551","349908","0.0-19.0-0.41","prediction","","","",",",""
"null","<div style=""color:white; font-size:60px;"">+</div>","null","html-keyboard-response","552","350911","0.0-19.0-1.41","fixation","","","","",""
"70.99999999627471","Stimuli/Hangul_F20.bmp","188","image-keyboard-response","553","350982","0.0-19.0-2.41","c2_test",".","","","",","
"266.9999999925494","<p style=""color:white;""> Next Figure: Male or Female? </p>","188","html-keyboard-response","554","351249","0.0-19.0-0.42","prediction","","","",",",""
"null","<div style=""color:white; font-size:60px;"">+</div>","null","html-keyboard-response","555","352252","0.0-19.0-1.42","fixation","","","","",""
"7.999999914318323","Stimuli/Hangul_F16.bmp","190","image-keyboard-response","556","352262","0.0-19.0-2.42","c2_test",".","","","","."
"300.99999997764826","<p style=""color:white;""> Next Figure: Male or Female? </p>","190","html-keyboard-response","557","352565","0.0-19.0-0.43","prediction","","","",".",""
"null","<div style=""color:white; font-size:60px;"">+</div>","null","html-keyboard-response","558","353567","0.0-19.0-1.43","fixation","","","","",""
"38.99999987334013","Stimuli/Hangul_M14.bmp","190","image-keyboard-response","559","353606","0.0-19.0-2.43","c2_test",",","","","","."
"203.00000021234155","<p style=""color:white;""> Next Figure: Male or Female? </p>","188","html-keyboard-response","560","353814","0.0-19.0-0.44","prediction","","","",",",""
"null","<div style=""color:white; font-size:60px;"">+</div>","null","html-keyboard-response","561","354816","0.0-19.0-1.44","fixation","","","","",""
"195.9999999962747","Stimuli/Hangul_F19.bmp","190","image-keyboard-response","562","355014","0.0-19.0-2.44","c2_test",".","","","","."
"365.0000002235174","<p style=""color:white;""> Next Figure: Male or Female? </p>","188","html-keyboard-response","563","355381","0.0-19.0-0.45","prediction","","","",",",""
"null","<div style=""color:white; font-size:60px;"">+</div>","null","html-keyboard-response","564","356383","0.0-19.0-1.45","fixation","","","","",""
"86.00000012665987","Stimuli/Hangul_F4.bmp","190","image-keyboard-response","565","356470","0.0-19.0-2.45","c2_test",".","","","","."
"111.99999996460974","<p style=""color:white;""> Next Figure: Male or Female? </p>","188","html-keyboard-response","566","356583","0.0-19.0-0.46","prediction","","","",",",""
"null","<div style=""color:white; font-size:60px;"">+</div>","null","html-keyboard-response","567","357585","0.0-19.0-1.46","fixation","","","","",""
"84.9999999627471","Stimuli/Hangul_F15.bmp","190","image-keyboard-response","568","357674","0.0-19.0-2.46","c2_test",".","","","","."
"123.99999983608723","<p style=""color:white;""> Next Figure: Male or Female? </p>","188","html-keyboard-response","569","357799","0.0-19.0-0.47","prediction","","","",",",""
"null","<div style=""color:white; font-size:60px;"">+</div>","null","html-keyboard-response","570","358803","0.0-19.0-1.47","fixation","","","","",""
"47.0000000204891","Stimuli/Hangul_M10.bmp","190","image-keyboard-response","571","358851","0.0-19.0-2.47","c2_test",",","","","","."
"83.00000010058284","<p style=""color:white;""> Next Figure: Male or Female? </p>","188","html-keyboard-response","572","358935","0.0-19.0-0.48","prediction","","","",",",""
"null","<div style=""color:white; font-size:60px;"">+</div>","null","html-keyboard-response","573","359938","0.0-19.0-1.48","fixation","","","","",""
"79.99999984167516","Stimuli/Hangul_M1.bmp","188","image-keyboard-response","574","360020","0.0-19.0-2.48","c2_test",",","","","",","
"115.9999999217689","<p style=""color:white;""> Next Figure: Male or Female? </p>","190","html-keyboard-response","575","360136","0.0-19.0-0.49","prediction","","","",".",""
"null","<div style=""color:white; font-size:60px;"">+</div>","null","html-keyboard-response","576","361137","0.0-19.0-1.49","fixation","","","","",""
"201.99999981559813","Stimuli/Hangul_F5.bmp","188","image-keyboard-response","577","361340","0.0-19.0-2.49","c2_test",".","","","",","
"1639.9999998975545","<p style=""color:white;"">Good job, block 1 complete! Please take a moment to rest.</p> <p style=""color:white;"">When you are ready to continue with block 2 of 4, press the space bar.</p> ","32","html-keyboard-response","578","362981","0.0-20.0","","","","","",""
"224.9999998603016","<p style=""color:white;""> Next Figure: Male or Female? </p>","190","html-keyboard-response","579","365208","0.0-21.0-0.0","prediction","","","",".",""
"null","<div style=""color:white; font-size:60px;"">+</div>","null","html-keyboard-response","580","366210","0.0-21.0-1.0","fixation","","","","",""
"65.99999987520278","Stimuli/Hangul_F43.bmp","190","image-keyboard-response","581","366278","0.0-21.0-2.0","c2_test",".","","","","."
"13.999999966472387","<p style=""color:white;""> Next Figure: Male or Female? </p>","188","html-keyboard-response","582","366293","0.0-21.0-0.1","prediction","","","",",",""
"null","<div style=""color:white; font-size:60px;"">+</div>","null","html-keyboard-response","583","367295","0.0-21.0-1.1","fixation","","","","",""
"52.00000014156103","Stimuli/Hangul_M49.bmp","190","image-keyboard-response","584","367348","0.0-21.0-2.1","c2_test",",","","","","."
"179.0000000037253","<p style=""color:white;""> Next Figure: Male or Female? </p>","188","html-keyboard-response","585","367528","0.0-21.0-0.2","prediction","","","",",",""
"null","<div style=""color:white; font-size:60px;"">+</div>","null","html-keyboard-response","586","368530","0.0-21.0-1.2","fixation","","","","",""
"33.00000005401671","Stimuli/Hangul_M43.bmp","190","image-keyboard-response","587","368564","0.0-21.0-2.2","c2_test",",","","","","."
"196.99999992735684","<p style=""color:white;""> Next Figure: Male or Female? </p>","188","html-keyboard-response","588","368762","0.0-21.0-0.3","prediction","","","",",",""
"null","<div style=""color:white; font-size:60px;"">+</div>","null","html-keyboard-response","589","369763","0.0-21.0-1.3","fixation","","","","",""
"13.999999966472387","Stimuli/Hangul_F32.bmp","188","image-keyboard-response","590","369777","0.0-21.0-2.3","c2_test",".","","","",","
"52.99999983981252","<p style=""color:white;""> Next Figure: Male or Female? </p>","190","html-keyboard-response","591","369835","0.0-21.0-0.4","prediction","","","",".",""
"null","<div style=""color:white; font-size:60px;"">+</div>","null","html-keyboard-response","592","370836","0.0-21.0-1.4","fixation","","","","",""
"66.9999998062849","Stimuli/Hangul_M38.bmp","190","image-keyboard-response","593","370905","0.0-21.0-2.4","c2_test",",","","","","."
"202.9999999795109","<p style=""color:white;""> Next Figure: Male or Female? </p>","190","html-keyboard-response","594","371108","0.0-21.0-0.5","prediction","","","",".",""
"null","<div style=""color:white; font-size:60px;"">+</div>","null","html-keyboard-response","595","372111","0.0-21.0-1.5","fixation","","","","",""
"108.00000000745058","Stimuli/Hangul_M45.bmp","190","image-keyboard-response","596","372220","0.0-21.0-2.5","c2_test",",","","","","."
"121.00000004284084","<p style=""color:white;""> Next Figure: Male or Female? </p>","188","html-keyboard-response","597","372341","0.0-21.0-0.6","prediction","","","",",",""
"null","<div style=""color:white; font-size:60px;"">+</div>","null","html-keyboard-response","598","373343","0.0-21.0-1.6","fixation","","","","",""
"20.99999994970858","Stimuli/Hangul_F40.bmp","188","image-keyboard-response","599","373365","0.0-21.0-2.6","c2_test",".","","","",","
"96.0000001359731","<p style=""color:white;""> Next Figure: Male or Female? </p>","190","html-keyboard-response","600","373462","0.0-21.0-0.7","prediction","","","",".",""
"null","<div style=""color:white; font-size:60px;"">+</div>","null","html-keyboard-response","601","374464","0.0-21.0-1.7","fixation","","","","",""
"510.0000000093132","Stimuli/Hangul_F28.bmp","188","image-keyboard-response","602","374975","0.0-21.0-2.7","c2_test",".","","","",","
"195.9999999962747","<p style=""color:white;""> Next Figure: Male or Female? </p>","190","html-keyboard-response","603","375172","0.0-21.0-0.8","prediction","","","",".",""
"null","<div style=""color:white; font-size:60px;"">+</div>","null","html-keyboard-response","604","376175","0.0-21.0-1.8","fixation","","","","",""
"40.99999996833503","Stimuli/Hangul_M36.bmp","190","image-keyboard-response","605","376217","0.0-21.0-2.8","c2_test",",","","","","."
"57.99999996088445","<p style=""color:white;""> Next Figure: Male or Female? </p>","188","html-keyboard-response","606","376276","0.0-21.0-0.9","prediction","","","",",",""
"null","<div style=""color:white; font-size:60px;"">+</div>","null","html-keyboard-response","607","377278","0.0-21.0-1.9","fixation","","","","",""
"104.99999998137355","Stimuli/Hangul_F46.bmp","188","image-keyboard-response","608","377384","0.0-21.0-2.9","c2_test",".","","","",","
"125","<p style=""color:white;""> Next Figure: Male or Female? </p>","190","html-keyboard-response","609","377511","0.0-21.0-0.10","prediction","","","",".",""
"null","<div style=""color:white; font-size:60px;"">+</div>","null","html-keyboard-response","610","378512","0.0-21.0-1.10","fixation","","","","",""
"23.999999975785613","Stimuli/Hangul_M41.bmp","190","image-keyboard-response","611","378537","0.0-21.0-2.10","c2_test",",","","","","."
"173.00000018440187","<p style=""color:white;""> Next Figure: Male or Female? </p>","188","html-keyboard-response","612","378712","0.0-21.0-0.11","prediction","","","",",",""
"null","<div style=""color:white; font-size:60px;"">+</div>","null","html-keyboard-response","613","379714","0.0-21.0-1.11","fixation","","","","",""
"120.00000011175871","Stimuli/Hangul_F31.bmp","188","image-keyboard-response","614","379835","0.0-21.0-2.11","c2_test",".","","","",","
"137.00000010430813","<p style=""color:white;""> Next Figure: Male or Female? </p>","190","html-keyboard-response","615","379973","0.0-21.0-0.12","prediction","","","",".",""
"null","<div style=""color:white; font-size:60px;"">+</div>","null","html-keyboard-response","616","380974","0.0-21.0-1.12","fixation","","","","",""
"58.000000193715096","Stimuli/Hangul_M29.bmp","190","image-keyboard-response","617","381033","0.0-21.0-2.12","c2_test",",","","","","."
"187.99999984912574","<p style=""color:white;""> Next Figure: Male or Female? </p>","188","html-keyboard-response","618","381221","0.0-21.0-0.13","prediction","","","",",",""
"null","<div style=""color:white; font-size:60px;"">+</div>","null","html-keyboard-response","619","382222","0.0-21.0-1.13","fixation","","","","",""
"49.000000115484","Stimuli/Hangul_M48.bmp","188","image-keyboard-response","620","382271","0.0-21.0-2.13","c2_test",",","","","",","
"76.00000011734664","<p style=""color:white;""> Next Figure: Male or Female? </p>","190","html-keyboard-response","621","382348","0.0-21.0-0.14","prediction","","","",".",""
"null","<div style=""color:white; font-size:60px;"">+</div>","null","html-keyboard-response","622","383349","0.0-21.0-1.14","fixation","","","","",""
"7.999999914318323","Stimuli/Hangul_F37.bmp","188","image-keyboard-response","623","383378","0.0-21.0-2.14","c2_test",".","","","",","
"64.99999994412065","<p style=""color:white;""> Next Figure: Male or Female? </p>","190","html-keyboard-response","624","383445","0.0-21.0-0.15","prediction","","","",".",""
"null","<div style=""color:white; font-size:60px;"">+</div>","null","html-keyboard-response","625","384450","0.0-21.0-1.15","fixation","","","","",""
"4216.000000014901","Stimuli/Hangul_M26.bmp","188","image-keyboard-response","626","388683","0.0-21.0-2.15","c2_test",",","","","",","
"138.00000003539026","<p style=""color:white;""> Next Figure: Male or Female? </p>","190","html-keyboard-response","627","388822","0.0-21.0-0.16","prediction","","","",".",""
"null","<div style=""color:white; font-size:60px;"">+</div>","null","html-keyboard-response","628","389824","0.0-21.0-1.16","fixation","","","","",""
"114.99999999068677","Stimuli/Hangul_M34.bmp","188","image-keyboard-response","629","389939","0.0-21.0-2.16","c2_test",",","","","",","
"126.99999986216426","<p style=""color:white;""> Next Figure: Male or Female? </p>","190","html-keyboard-response","630","390069","0.0-21.0-0.17","prediction","","","",".",""
"null","<div style=""color:white; font-size:60px;"">+</div>","null","html-keyboard-response","631","391072","0.0-21.0-1.17","fixation","","","","",""
"4756.999999983236","Stimuli/Hangul_M40.bmp","188","image-keyboard-response","632","395829","0.0-21.0-2.17","c2_test",",","","","",","
"126.99999986216426","<p style=""color:white;""> Next Figure: Male or Female? </p>","190","html-keyboard-response","633","395958","0.0-21.0-0.18","prediction","","","",".",""
"null","<div style=""color:white; font-size:60px;"">+</div>","null","html-keyboard-response","634","396960","0.0-21.0-1.18","fixation","","","","",""
"65.99999987520278","Stimuli/Hangul_M39.bmp","188","image-keyboard-response","635","397029","0.0-21.0-2.18","c2_test",",","","","",","
"78.99999991059303","<p style=""color:white;""> Next Figure: Male or Female? </p>","190","html-keyboard-response","636","397109","0.0-21.0-0.19","prediction","","","",".",""
"null","<div style=""color:white; font-size:60px;"">+</div>","null","html-keyboard-response","637","398109","0.0-21.0-1.19","fixation","","","","",""
"37.00000001117587","Stimuli/Hangul_M37.bmp","188","image-keyboard-response","638","398148","0.0-21.0-2.19","c2_test",",","","","",","
"92.99999987706542","<p style=""color:white;""> Next Figure: Male or Female? </p>","190","html-keyboard-response","639","398245","0.0-21.0-0.20","prediction","","","",".",""
"null","<div style=""color:white; font-size:60px;"">+</div>","null","html-keyboard-response","640","399246","0.0-21.0-1.20","fixation","","","","",""
"5.9999998193234205","Stimuli/Hangul_F33.bmp","188","image-keyboard-response","641","399277","0.0-21.0-2.20","c2_test",".","","","",","
"103.00000011920929","<p style=""color:white;""> Next Figure: Male or Female? </p>","190","html-keyboard-response","642","399383","0.0-21.0-0.21","prediction","","","",".",""
"null","<div style=""color:white; font-size:60px;"">+</div>","null","html-keyboard-response","643","400385","0.0-21.0-1.21","fixation","","","","",""
"9.000000078231096","Stimuli/Hangul_F39.bmp","188","image-keyboard-response","644","400396","0.0-21.0-2.21","c2_test",".","","","",","
"73.00000009126961","<p style=""color:white;""> Next Figure: Male or Female? </p>","190","html-keyboard-response","645","400469","0.0-21.0-0.22","prediction","","","",".",""
"null","<div style=""color:white; font-size:60px;"">+</div>","null","html-keyboard-response","646","401471","0.0-21.0-1.22","fixation","","","","",""
"114.00000005960464","Stimuli/Hangul_F36.bmp","188","image-keyboard-response","647","401587","0.0-21.0-2.22","c2_test",".","","","",","
"89.0000001527369","<p style=""color:white;""> Next Figure: Male or Female? </p>","190","html-keyboard-response","648","401682","0.0-21.0-0.23","prediction","","","",".",""
"null","<div style=""color:white; font-size:60px;"">+</div>","null","html-keyboard-response","649","402684","0.0-21.0-1.23","fixation","","","","",""
"59.000000124797225","Stimuli/Hangul_F48.bmp","190","image-keyboard-response","650","402744","0.0-21.0-2.23","c2_test",".","","","","."
"143.0000001564622","<p style=""color:white;""> Next Figure: Male or Female? </p>","188","html-keyboard-response","651","402888","0.0-21.0-0.24","prediction","","","",",",""
"null","<div style=""color:white; font-size:60px;"">+</div>","null","html-keyboard-response","652","403889","0.0-21.0-1.24","fixation","","","","",""
"70.99999999627471","Stimuli/Hangul_F45.bmp","190","image-keyboard-response","653","403960","0.0-21.0-2.24","c2_test",".","","","","."
"123.99999983608723","<p style=""color:white;""> Next Figure: Male or Female? </p>","188","html-keyboard-response","654","404086","0.0-21.0-0.25","prediction","","","",",",""
"null","<div style=""color:white; font-size:60px;"">+</div>","null","html-keyboard-response","655","405087","0.0-21.0-1.25","fixation","","","","",""
"60.000000055879354","Stimuli/Hangul_M25.bmp","188","image-keyboard-response","656","405149","0.0-21.0-2.25","c2_test",",","","","",","
"168.99999999441206","<p style=""color:white;""> Next Figure: Male or Female? </p>","190","html-keyboard-response","657","405319","0.0-21.0-0.26","prediction","","","",".",""
"null","<div style=""color:white; font-size:60px;"">+</div>","null","html-keyboard-response","658","406321","0.0-21.0-1.26","fixation","","","","",""
