"rt","stimulus","key_press","trial_type","trial_index","time_elapsed","internal_node_id","test_part","correct_response","C1_train","C1","A","C2"
"2352.5249999947846","<p style=""color:white;"">Welcome to the experiment! Press any key to begin.</p>","32","html-keyboard-response","0","2366","0.0-0.0","","","","","",""
"35229.249999974854","<p style=""color:white;"">You will see a series of abstract figures. They are adaptations of signs in the Korean alphabet, but that is not important for this study. </p><p style=""color:white;"">Abstract figures sometimes have a more masculine or feminine shape. Here, each figure has already been assigned a gender as <q>Male</q> or <q>Female</q> by a panel of respondents in a pilot study. The respondents were not given specific instructions on how to do this, but were only told to use their intuition and to take into account the entire configuration of the stimulus. </p><p style=""color:white;"">Your task now is to guess the assigned gender of each figure. Please press the corresponding response keys to indicate your choice: </p><p style=""color:white;""> Male &#8594 <q>,</q> (comma)</p><p style=""color:white;""> Female &#8594 <q>.</q> (period)</p><p style=""color:white;"">Press either response keys to continue.</p>","190","html-keyboard-response","1","37605","0.0-1.0","","","","","",""
"12570.100000011735","<p style=""color:white;"">Your choice is correct if it matches the gender assigned by the majority of respondents in the pilot study.</p> <p style=""color:white;"">For each correct choice you will receive 2 cents. There will be 200 trials divided into 4 blocks of 50 trials. You will be able to take a break after every 50 trials.</p> <p style=""color:white;"">Press the space bar to continue.</p>","32","html-keyboard-response","2","50178","0.0-2.0","","","","","",""
"5673.899999994319","<p style=""color:white;"">Here are some examples.</p> <p style=""color:white;"">For each, guess whether the assigned figure is male-like or female-like and indicate your choice by pressing either response keys.</p> <p style=""color:white;"">Press the space bar to continue.</p>","32","html-keyboard-response","3","55843","0.0-3.0","","","","","",""
"null","<div style=""color:white; font-size:60px;"">+</div>","null","html-keyboard-response","4","58862","0.0-4.0-0.0","fixation","","","","",""
"8557.394999952521","Stimuli/Hangul_E2.bmp","190","image-keyboard-response","5","67426","0.0-4.0-1.0","c1_train",".",".","","",""
"null","<div style=""color:white; font-size:60px;"">+</div>","null","html-keyboard-response","6","68451","0.0-4.0-0.1","fixation","","","","",""
"2571.3700000196695","Stimuli/Hangul_E0.bmp","188","image-keyboard-response","7","71024","0.0-4.0-1.1","c1_train",",",",","","",""
"null","<div style=""color:white; font-size:60px;"">+</div>","null","html-keyboard-response","8","72033","0.0-4.0-0.2","fixation","","","","",""
"7291.725000017323","Stimuli/Hangul_E1.bmp","188","image-keyboard-response","9","79327","0.0-4.0-1.2","c1_train",",",",","","",""
"5243.819999974221","<p style=""color:white;"">Let us begin! Press the space bar when you are ready to start block 1 of 4.</p> ","32","html-keyboard-response","10","84574","0.0-5.0","","","","","",""
"null","<div style=""color:white; font-size:60px;"">+</div>","null","html-keyboard-response","11","87598","0.0-6.0-0.0","fixation","","","","",""
"4050.5649999831803","Stimuli/Hangul_F1.bmp","190","image-keyboard-response","12","91654","0.0-6.0-1.0","test",".","",".","",""
"null","<div style=""color:white; font-size:60px;"">+</div>","null","html-keyboard-response","13","92665","0.0-6.0-0.1","fixation","","","","",""
"3292.304999951739","Stimuli/Hangul_F20.bmp","188","image-keyboard-response","14","95961","0.0-6.0-1.1","test",".","",",","",""
"null","<div style=""color:white; font-size:60px;"">+</div>","null","html-keyboard-response","15","96966","0.0-6.0-0.2","fixation","","","","",""
"2235.675000003539","Stimuli/Hangul_F3.bmp","188","image-keyboard-response","16","99205","0.0-6.0-1.2","test",".","",",","",""
"null","<div style=""color:white; font-size:60px;"">+</div>","null","html-keyboard-response","17","100220","0.0-6.0-0.3","fixation","","","","",""
"1798.9850000012666","Stimuli/Hangul_F9.bmp","188","image-keyboard-response","18","102020","0.0-6.0-1.3","test",".","",",","",""
"null","<div style=""color:white; font-size:60px;"">+</div>","null","html-keyboard-response","19","103029","0.0-6.0-0.4","fixation","","","","",""
"1946.9300000346266","Stimuli/Hangul_M4.bmp","188","image-keyboard-response","20","104979","0.0-6.0-1.4","test",",","",",","",""
"null","<div style=""color:white; font-size:60px;"">+</div>","null","html-keyboard-response","21","105984","0.0-6.0-0.5","fixation","","","","",""
"2769.6050000377","Stimuli/Hangul_F4.bmp","190","image-keyboard-response","22","108755","0.0-6.0-1.5","test",".","",".","",""
"null","<div style=""color:white; font-size:60px;"">+</div>","null","html-keyboard-response","23","109774","0.0-6.0-0.6","fixation","","","","",""
"3282.9649999621324","Stimuli/Hangul_F23.bmp","190","image-keyboard-response","24","113061","0.0-6.0-1.6","test",".","",".","",""
"null","<div style=""color:white; font-size:60px;"">+</div>","null","html-keyboard-response","25","114084","0.0-6.0-0.7","fixation","","","","",""
"2262.7249999786727","Stimuli/Hangul_M11.bmp","188","image-keyboard-response","26","116365","0.0-6.0-1.7","test",",","",",","",""
"null","<div style=""color:white; font-size:60px;"">+</div>","null","html-keyboard-response","27","117371","0.0-6.0-0.8","fixation","","","","",""
"3138.875000004191","Stimuli/Hangul_F11.bmp","190","image-keyboard-response","28","120512","0.0-6.0-1.8","test",".","",".","",""
"null","<div style=""color:white; font-size:60px;"">+</div>","null","html-keyboard-response","29","121526","0.0-6.0-0.9","fixation","","","","",""
"4698.654999956489","Stimuli/Hangul_M12.bmp","188","image-keyboard-response","30","126229","0.0-6.0-1.9","test",",","",",","",""
"null","<div style=""color:white; font-size:60px;"">+</div>","null","html-keyboard-response","31","127244","0.0-6.0-0.10","fixation","","","","",""
"2039.5099999732338","Stimuli/Hangul_F21.bmp","190","image-keyboard-response","32","129286","0.0-6.0-1.10","test",".","",".","",""
"null","<div style=""color:white; font-size:60px;"">+</div>","null","html-keyboard-response","33","130300","0.0-6.0-0.11","fixation","","","","",""
"2458.344999991823","Stimuli/Hangul_F6.bmp","188","image-keyboard-response","34","132760","0.0-6.0-1.11","test",".","",",","",""
"null","<div style=""color:white; font-size:60px;"">+</div>","null","html-keyboard-response","35","133775","0.0-6.0-0.12","fixation","","","","",""
"3304.6000000322238","Stimuli/Hangul_M19.bmp","188","image-keyboard-response","36","137083","0.0-6.0-1.12","test",",","",",","",""
"null","<div style=""color:white; font-size:60px;"">+</div>","null","html-keyboard-response","37","138090","0.0-6.0-0.13","fixation","","","","",""
"2503.8799999747425","Stimuli/Hangul_F16.bmp","188","image-keyboard-response","38","140598","0.0-6.0-1.13","test",".","",",","",""
"null","<div style=""color:white; font-size:60px;"">+</div>","null","html-keyboard-response","39","141607","0.0-6.0-0.14","fixation","","","","",""
"2364.7900000214577","Stimuli/Hangul_M8.bmp","188","image-keyboard-response","40","143973","0.0-6.0-1.14","test",",","",",","",""
"null","<div style=""color:white; font-size:60px;"">+</div>","null","html-keyboard-response","41","144978","0.0-6.0-0.15","fixation","","","","",""
"2886.690000013914","Stimuli/Hangul_M24.bmp","190","image-keyboard-response","42","147868","0.0-6.0-1.15","test",",","",".","",""
"null","<div style=""color:white; font-size:60px;"">+</div>","null","html-keyboard-response","43","148875","0.0-6.0-0.16","fixation","","","","",""
"3274.5750000467524","Stimuli/Hangul_F0.bmp","190","image-keyboard-response","44","152152","0.0-6.0-1.16","test",".","",".","",""
"null","<div style=""color:white; font-size:60px;"">+</div>","null","html-keyboard-response","45","153171","0.0-6.0-0.17","fixation","","","","",""
"2592.9400000022724","Stimuli/Hangul_F8.bmp","190","image-keyboard-response","46","155768","0.0-6.0-1.17","test",".","",".","",""
"null","<div style=""color:white; font-size:60px;"">+</div>","null","html-keyboard-response","47","156778","0.0-6.0-0.18","fixation","","","","",""
"3319.4949999451637","Stimuli/Hangul_M20.bmp","190","image-keyboard-response","48","160101","0.0-6.0-1.18","test",",","",".","",""
"null","<div style=""color:white; font-size:60px;"">+</div>","null","html-keyboard-response","49","161118","0.0-6.0-0.19","fixation","","","","",""
"2672.5449999794364","Stimuli/Hangul_F10.bmp","188","image-keyboard-response","50","163794","0.0-6.0-1.19","test",".","",",","",""
"null","<div style=""color:white; font-size:60px;"">+</div>","null","html-keyboard-response","51","164806","0.0-6.0-0.20","fixation","","","","",""
"2534.9799999967217","Stimuli/Hangul_M17.bmp","190","image-keyboard-response","52","167343","0.0-6.0-1.20","test",",","",".","",""
"null","<div style=""color:white; font-size:60px;"">+</div>","null","html-keyboard-response","53","168355","0.0-6.0-0.21","fixation","","","","",""
"3185.4350000503473","Stimuli/Hangul_M15.bmp","190","image-keyboard-response","54","171545","0.0-6.0-1.21","test",",","",".","",""
"null","<div style=""color:white; font-size:60px;"">+</div>","null","html-keyboard-response","55","172554","0.0-6.0-0.22","fixation","","","","",""
"4357.264999998733","Stimuli/Hangul_M21.bmp","190","image-keyboard-response","56","176903","0.0-6.0-1.22","test",",","",".","",""
"null","<div style=""color:white; font-size:60px;"">+</div>","null","html-keyboard-response","57","177909","0.0-6.0-0.23","fixation","","","","",""
"2297.4950000061654","Stimuli/Hangul_F14.bmp","190","image-keyboard-response","58","180210","0.0-6.0-1.23","test",".","",".","",""
"null","<div style=""color:white; font-size:60px;"">+</div>","null","html-keyboard-response","59","181227","0.0-6.0-0.24","fixation","","","","",""
"2665.244999981951","Stimuli/Hangul_M1.bmp","188","image-keyboard-response","60","183894","0.0-6.0-1.24","test",",","",",","",""
"null","<div style=""color:white; font-size:60px;"">+</div>","null","html-keyboard-response","61","184908","0.0-6.0-0.25","fixation","","","","",""
"2452.9549999861047","Stimuli/Hangul_M6.bmp","188","image-keyboard-response","62","187364","0.0-6.0-1.25","test",",","",",","",""
"null","<div style=""color:white; font-size:60px;"">+</div>","null","html-keyboard-response","63","188380","0.0-6.0-0.26","fixation","","","","",""
"2756.1449999921024","Stimuli/Hangul_M0.bmp","188","image-keyboard-response","64","191139","0.0-6.0-1.26","test",",","",",","",""
"null","<div style=""color:white; font-size:60px;"">+</div>","null","html-keyboard-response","65","192156","0.0-6.0-0.27","fixation","","","","",""
"2408.5349999950267","Stimuli/Hangul_F24.bmp","190","image-keyboard-response","66","194569","0.0-6.0-1.27","test",".","",".","",""
"null","<div style=""color:white; font-size:60px;"">+</div>","null","html-keyboard-response","67","195577","0.0-6.0-0.28","fixation","","","","",""
"3046.4049999718554","Stimuli/Hangul_M23.bmp","190","image-keyboard-response","68","198626","0.0-6.0-1.28","test",",","",".","",""
"null","<div style=""color:white; font-size:60px;"">+</div>","null","html-keyboard-response","69","199644","0.0-6.0-0.29","fixation","","","","",""
"2143.800000019837","Stimuli/Hangul_M7.bmp","188","image-keyboard-response","70","201793","0.0-6.0-1.29","test",",","",",","",""
"null","<div style=""color:white; font-size:60px;"">+</div>","null","html-keyboard-response","71","202808","0.0-6.0-0.30","fixation","","","","",""
"1998.7800000235438","Stimuli/Hangul_M10.bmp","190","image-keyboard-response","72","204808","0.0-6.0-1.30","test",",","",".","",""
"null","<div style=""color:white; font-size:60px;"">+</div>","null","html-keyboard-response","73","205826","0.0-6.0-0.31","fixation","","","","",""
"2441.659999953117","Stimuli/Hangul_M5.bmp","190","image-keyboard-response","74","208272","0.0-6.0-1.31","test",",","",".","",""
"null","<div style=""color:white; font-size:60px;"">+</div>","null","html-keyboard-response","75","209289","0.0-6.0-0.32","fixation","","","","",""
"2295.1349999639206","Stimuli/Hangul_F15.bmp","188","image-keyboard-response","76","211586","0.0-6.0-1.32","test",".","",",","",""
"null","<div style=""color:white; font-size:60px;"">+</div>","null","html-keyboard-response","77","212592","0.0-6.0-0.33","fixation","","","","",""
"1799.780000001192","Stimuli/Hangul_M2.bmp","188","image-keyboard-response","78","214396","0.0-6.0-1.33","test",",","",",","",""
"null","<div style=""color:white; font-size:60px;"">+</div>","null","html-keyboard-response","79","215412","0.0-6.0-0.34","fixation","","","","",""
"3941.500000015367","Stimuli/Hangul_F19.bmp","190","image-keyboard-response","80","219355","0.0-6.0-1.34","test",".","",".","",""
"null","<div style=""color:white; font-size:60px;"">+</div>","null","html-keyboard-response","81","220361","0.0-6.0-0.35","fixation","","","","",""
"5376.025000005029","Stimuli/Hangul_F18.bmp","188","image-keyboard-response","82","225741","0.0-6.0-1.35","test",".","",",","",""
"null","<div style=""color:white; font-size:60px;"">+</div>","null","html-keyboard-response","83","226749","0.0-6.0-0.36","fixation","","","","",""
"2333.1299999845214","Stimuli/Hangul_M16.bmp","188","image-keyboard-response","84","229087","0.0-6.0-1.36","test",",","",",","",""
"null","<div style=""color:white; font-size:60px;"">+</div>","null","html-keyboard-response","85","230099","0.0-6.0-0.37","fixation","","","","",""
"2708.359999989625","Stimuli/Hangul_F13.bmp","188","image-keyboard-response","86","232809","0.0-6.0-1.37","test",".","",",","",""
"null","<div style=""color:white; font-size:60px;"">+</div>","null","html-keyboard-response","87","233828","0.0-6.0-0.38","fixation","","","","",""
"1792.1349999960512","Stimuli/Hangul_M14.bmp","188","image-keyboard-response","88","235624","0.0-6.0-1.38","test",",","",",","",""
"null","<div style=""color:white; font-size:60px;"">+</div>","null","html-keyboard-response","89","236639","0.0-6.0-0.39","fixation","","","","",""
"3037.8899999777786","Stimuli/Hangul_F22.bmp","190","image-keyboard-response","90","239693","0.0-6.0-1.39","test",".","",".","",""
"null","<div style=""color:white; font-size:60px;"">+</div>","null","html-keyboard-response","91","240701","0.0-6.0-0.40","fixation","","","","",""
"2192.3200000310317","Stimuli/Hangul_F17.bmp","190","image-keyboard-response","92","242897","0.0-6.0-1.40","test",".","",".","",""
"null","<div style=""color:white; font-size:60px;"">+</div>","null","html-keyboard-response","93","243904","0.0-6.0-0.41","fixation","","","","",""
"1776.1300000129268","Stimuli/Hangul_F7.bmp","188","image-keyboard-response","94","245682","0.0-6.0-1.41","test",".","",",","",""
"null","<div style=""color:white; font-size:60px;"">+</div>","null","html-keyboard-response","95","246702","0.0-6.0-0.42","fixation","","","","",""
"2629.499999980908","Stimuli/Hangul_M9.bmp","188","image-keyboard-response","96","249333","0.0-6.0-1.42","test",",","",",","",""
"null","<div style=""color:white; font-size:60px;"">+</div>","null","html-keyboard-response","97","250341","0.0-6.0-0.43","fixation","","","","",""
"1752.2749999770895","Stimuli/Hangul_F5.bmp","188","image-keyboard-response","98","252097","0.0-6.0-1.43","test",".","",",","",""
"null","<div style=""color:white; font-size:60px;"">+</div>","null","html-keyboard-response","99","253101","0.0-6.0-0.44","fixation","","","","",""
"1979.4150000088848","Stimuli/Hangul_M3.bmp","188","image-keyboard-response","100","255083","0.0-6.0-1.44","test",",","",",","",""
"null","<div style=""color:white; font-size:60px;"">+</div>","null","html-keyboard-response","101","256087","0.0-6.0-0.45","fixation","","","","",""
"1899.814999953378","Stimuli/Hangul_F2.bmp","190","image-keyboard-response","102","257989","0.0-6.0-1.45","test",".","",".","",""
"null","<div style=""color:white; font-size:60px;"">+</div>","null","html-keyboard-response","103","258992","0.0-6.0-0.46","fixation","","","","",""
"9955.66500001587","Stimuli/Hangul_M22.bmp","190","image-keyboard-response","104","268952","0.0-6.0-1.46","test",",","",".","",""
"null","<div style=""color:white; font-size:60px;"">+</div>","null","html-keyboard-response","105","269968","0.0-6.0-0.47","fixation","","","","",""
"2330.149999994319","Stimuli/Hangul_M13.bmp","190","image-keyboard-response","106","272303","0.0-6.0-1.47","test",",","",".","",""
"null","<div style=""color:white; font-size:60px;"">+</div>","null","html-keyboard-response","107","273311","0.0-6.0-0.48","fixation","","","","",""
"2221.2350000045262","Stimuli/Hangul_F12.bmp","190","image-keyboard-response","108","275534","0.0-6.0-1.48","test",".","",".","",""
"null","<div style=""color:white; font-size:60px;"">+</div>","null","html-keyboard-response","109","276551","0.0-6.0-0.49","fixation","","","","",""
"2930.9599999687634","Stimuli/Hangul_M18.bmp","188","image-keyboard-response","110","279486","0.0-6.0-1.49","test",",","",",","",""
"13672.969999955967","<p style=""color:white;"">Good job, block 1 complete! Please take a moment to rest.</p> <p style=""color:white;"">When you are ready to continue with block 2 of 4, press the space bar.</p> ","32","html-keyboard-response","111","293162","0.0-7.0","","","","","",""
"null","<div style=""color:white; font-size:60px;"">+</div>","null","html-keyboard-response","112","296186","0.0-8.0-0.0","fixation","","","","",""
"3906.7400000058115","Stimuli/Hangul_M28.bmp","190","image-keyboard-response","113","300099","0.0-8.0-1.0","test",",","",".","",""
"null","<div style=""color:white; font-size:60px;"">+</div>","null","html-keyboard-response","114","301103","0.0-8.0-0.1","fixation","","","","",""
"2896.4999999734573","Stimuli/Hangul_F43.bmp","190","image-keyboard-response","115","304001","0.0-8.0-1.1","test",".","",".","",""
"null","<div style=""color:white; font-size:60px;"">+</div>","null","html-keyboard-response","116","305017","0.0-8.0-0.2","fixation","","","","",""
"1959.2200000188313","Stimuli/Hangul_F26.bmp","190","image-keyboard-response","117","306979","0.0-8.0-1.2","test",".","",".","",""
"null","<div style=""color:white; font-size:60px;"">+</div>","null","html-keyboard-response","118","307995","0.0-8.0-0.3","fixation","","","","",""
"2570.7750000292435","Stimuli/Hangul_F29.bmp","190","image-keyboard-response","119","310570","0.0-8.0-1.3","test",".","",".","",""
"null","<div style=""color:white; font-size:60px;"">+</div>","null","html-keyboard-response","120","311587","0.0-8.0-0.4","fixation","","","","",""
"2729.2100000195205","Stimuli/Hangul_M39.bmp","190","image-keyboard-response","121","314318","0.0-8.0-1.4","test",",","",".","",""
"null","<div style=""color:white; font-size:60px;"">+</div>","null","html-keyboard-response","122","315329","0.0-8.0-0.5","fixation","","","","",""
"1569.5749999722466","Stimuli/Hangul_M36.bmp","190","image-keyboard-response","123","316909","0.0-8.0-1.5","test",",","",".","",""
"null","<div style=""color:white; font-size:60px;"">+</div>","null","html-keyboard-response","124","317920","0.0-8.0-0.6","fixation","","","","",""
"3468.7899999553338","Stimuli/Hangul_M27.bmp","188","image-keyboard-response","125","321391","0.0-8.0-1.6","test",",","",",","",""
"null","<div style=""color:white; font-size:60px;"">+</div>","null","html-keyboard-response","126","322403","0.0-8.0-0.7","fixation","","","","",""
"1696.2649999768473","Stimuli/Hangul_F41.bmp","190","image-keyboard-response","127","324104","0.0-8.0-1.7","test",".","",".","",""
"null","<div style=""color:white; font-size:60px;"">+</div>","null","html-keyboard-response","128","325121","0.0-8.0-0.8","fixation","","","","",""
"3562.885000021197","Stimuli/Hangul_M29.bmp","190","image-keyboard-response","129","328687","0.0-8.0-1.8","test",",","",".","",""
"null","<div style=""color:white; font-size:60px;"">+</div>","null","html-keyboard-response","130","329700","0.0-8.0-0.9","fixation","","","","",""
"3140.179999987595","Stimuli/Hangul_M34.bmp","188","image-keyboard-response","131","332845","0.0-8.0-1.9","test",",","",",","",""
"null","<div style=""color:white; font-size:60px;"">+</div>","null","html-keyboard-response","132","333857","0.0-8.0-0.10","fixation","","","","",""
"3129.194999986794","Stimuli/Hangul_F33.bmp","188","image-keyboard-response","133","336990","0.0-8.0-1.10","test",".","",",","",""
"null","<div style=""color:white; font-size:60px;"">+</div>","null","html-keyboard-response","134","337998","0.0-8.0-0.11","fixation","","","","",""
"2840.6750000431202","Stimuli/Hangul_F49.bmp","188","image-keyboard-response","135","340842","0.0-8.0-1.11","test",".","",",","",""
"null","<div style=""color:white; font-size:60px;"">+</div>","null","html-keyboard-response","136","341849","0.0-8.0-0.12","fixation","","","","",""
"2455.484999984037","Stimuli/Hangul_F35.bmp","190","image-keyboard-response","137","344306","0.0-8.0-1.12","test",".","",".","",""
"null","<div style=""color:white; font-size:60px;"">+</div>","null","html-keyboard-response","138","345311","0.0-8.0-0.13","fixation","","","","",""
"2338.6649999883957","Stimuli/Hangul_F42.bmp","188","image-keyboard-response","139","347653","0.0-8.0-1.13","test",".","",",","",""
"null","<div style=""color:white; font-size:60px;"">+</div>","null","html-keyboard-response","140","348671","0.0-8.0-0.14","fixation","","","","",""
"2366.8499999912456","Stimuli/Hangul_F47.bmp","188","image-keyboard-response","141","351040","0.0-8.0-1.14","test",".","",",","",""
"null","<div style=""color:white; font-size:60px;"">+</div>","null","html-keyboard-response","142","352048","0.0-8.0-0.15","fixation","","","","",""
"3185.364999982994","Stimuli/Hangul_F30.bmp","190","image-keyboard-response","143","355237","0.0-8.0-1.15","test",".","",".","",""
"null","<div style=""color:white; font-size:60px;"">+</div>","null","html-keyboard-response","144","356256","0.0-8.0-0.16","fixation","","","","",""
"2990.815000026487","Stimuli/Hangul_F27.bmp","190","image-keyboard-response","145","359251","0.0-8.0-1.16","test",".","",".","",""
"null","<div style=""color:white; font-size:60px;"">+</div>","null","html-keyboard-response","146","360264","0.0-8.0-0.17","fixation","","","","",""
"2327.854999981355","Stimuli/Hangul_M43.bmp","190","image-keyboard-response","147","362594","0.0-8.0-1.17","test",",","",".","",""
"null","<div style=""color:white; font-size:60px;"">+</div>","null","html-keyboard-response","148","363603","0.0-8.0-0.18","fixation","","","","",""
"866.7049999930896","Stimuli/Hangul_F48.bmp","190","image-keyboard-response","149","364473","0.0-8.0-1.18","test",".","",".","",""
"null","<div style=""color:white; font-size:60px;"">+</div>","null","html-keyboard-response","150","365482","0.0-8.0-0.19","fixation","","","","",""
"1667.9650000296533","Stimuli/Hangul_M25.bmp","190","image-keyboard-response","151","367152","0.0-8.0-1.19","test",",","",".","",""
"null","<div style=""color:white; font-size:60px;"">+</div>","null","html-keyboard-response","152","368168","0.0-8.0-0.20","fixation","","","","",""
"2771.179999981541","Stimuli/Hangul_M31.bmp","190","image-keyboard-response","153","370942","0.0-8.0-1.20","test",",","",".","",""
"null","<div style=""color:white; font-size:60px;"">+</div>","null","html-keyboard-response","154","371948","0.0-8.0-0.21","fixation","","","","",""
"3718.2250000187196","Stimuli/Hangul_F36.bmp","188","image-keyboard-response","155","375668","0.0-8.0-1.21","test",".","",",","",""
"null","<div style=""color:white; font-size:60px;"">+</div>","null","html-keyboard-response","156","376680","0.0-8.0-0.22","fixation","","","","",""
"3941.8600000208244","Stimuli/Hangul_M33.bmp","188","image-keyboard-response","157","380626","0.0-8.0-1.22","test",",","",",","",""
"null","<div style=""color:white; font-size:60px;"">+</div>","null","html-keyboard-response","158","381647","0.0-8.0-0.23","fixation","","","","",""
"3016.055000014603","Stimuli/Hangul_M46.bmp","190","image-keyboard-response","159","384666","0.0-8.0-1.23","test",",","",".","",""
"null","<div style=""color:white; font-size:60px;"">+</div>","null","html-keyboard-response","160","385684","0.0-8.0-0.24","fixation","","","","",""
"2946.3600000017323","Stimuli/Hangul_M30.bmp","188","image-keyboard-response","161","388634","0.0-8.0-1.24","test",",","",",","",""
"null","<div style=""color:white; font-size:60px;"">+</div>","null","html-keyboard-response","162","389638","0.0-8.0-0.25","fixation","","","","",""
"2774.6599999954924","Stimuli/Hangul_M35.bmp","188","image-keyboard-response","163","392414","0.0-8.0-1.25","test",",","",",","",""
"null","<div style=""color:white; font-size:60px;"">+</div>","null","html-keyboard-response","164","393421","0.0-8.0-0.26","fixation","","","","",""
"2018.2750000385568","Stimuli/Hangul_F31.bmp","190","image-keyboard-response","165","395442","0.0-8.0-1.26","test",".","",".","",""
"null","<div style=""color:white; font-size:60px;"">+</div>","null","html-keyboard-response","166","396451","0.0-8.0-0.27","fixation","","","","",""
"3440.5600000172853","Stimuli/Hangul_F25.bmp","188","image-keyboard-response","167","399894","0.0-8.0-1.27","test",".","",",","",""
"null","<div style=""color:white; font-size:60px;"">+</div>","null","html-keyboard-response","168","400898","0.0-8.0-0.28","fixation","","","","",""
"2078.5499999765307","Stimuli/Hangul_F39.bmp","190","image-keyboard-response","169","402981","0.0-8.0-1.28","test",".","",".","",""
"null","<div style=""color:white; font-size:60px;"">+</div>","null","html-keyboard-response","170","403992","0.0-8.0-0.29","fixation","","","","",""
"2833.1749999779277","Stimuli/Hangul_F38.bmp","190","image-keyboard-response","171","406827","0.0-8.0-1.29","test",".","",".","",""
"null","<div style=""color:white; font-size:60px;"">+</div>","null","html-keyboard-response","172","407833","0.0-8.0-0.30","fixation","","","","",""
"2633.994999981951","Stimuli/Hangul_M48.bmp","190","image-keyboard-response","173","410470","0.0-8.0-1.30","test",",","",".","",""
"null","<div style=""color:white; font-size:60px;"">+</div>","null","html-keyboard-response","174","411484","0.0-8.0-0.31","fixation","","","","",""
"3176.9299999577925","Stimuli/Hangul_M44.bmp","188","image-keyboard-response","175","414663","0.0-8.0-1.31","test",",","",",","",""
"null","<div style=""color:white; font-size:60px;"">+</div>","null","html-keyboard-response","176","415675","0.0-8.0-0.32","fixation","","","","",""
"2629.7900000354275","Stimuli/Hangul_F44.bmp","190","image-keyboard-response","177","418299","0.0-8.0-1.32","test",".","",".","",""
"null","<div style=""color:white; font-size:60px;"">+</div>","null","html-keyboard-response","178","419319","0.0-8.0-0.33","fixation","","","","",""
"3488.3200000040233","Stimuli/Hangul_F45.bmp","188","image-keyboard-response","179","422809","0.0-8.0-1.33","test",".","",",","",""
"null","<div style=""color:white; font-size:60px;"">+</div>","null","html-keyboard-response","180","423818","0.0-8.0-0.34","fixation","","","","",""
"2490.380000032019","Stimuli/Hangul_F46.bmp","188","image-keyboard-response","181","426312","0.0-8.0-1.34","test",".","",",","",""
"null","<div style=""color:white; font-size:60px;"">+</div>","null","html-keyboard-response","182","427326","0.0-8.0-0.35","fixation","","","","",""
"2030.6900000432506","Stimuli/Hangul_F28.bmp","188","image-keyboard-response","183","429359","0.0-8.0-1.35","test",".","",",","",""
"null","<div style=""color:white; font-size:60px;"">+</div>","null","html-keyboard-response","184","430369","0.0-8.0-0.36","fixation","","","","",""
"2658.6050000041723","Stimuli/Hangul_M37.bmp","190","image-keyboard-response","185","433032","0.0-8.0-1.36","test",",","",".","",""
"null","<div style=""color:white; font-size:60px;"">+</div>","null","html-keyboard-response","186","434048","0.0-8.0-0.37","fixation","","","","",""
"4117.24500003038","Stimuli/Hangul_F37.bmp","188","image-keyboard-response","187","438168","0.0-8.0-1.37","test",".","",",","",""
"null","<div style=""color:white; font-size:60px;"">+</div>","null","html-keyboard-response","188","439172","0.0-8.0-0.38","fixation","","","","",""
"4107.3299999698065","Stimuli/Hangul_M42.bmp","190","image-keyboard-response","189","443281","0.0-8.0-1.38","test",",","",".","",""
"null","<div style=""color:white; font-size:60px;"">+</div>","null","html-keyboard-response","190","444302","0.0-8.0-0.39","fixation","","","","",""
"4402.250000042841","Stimuli/Hangul_M32.bmp","188","image-keyboard-response","191","448708","0.0-8.0-1.39","test",",","",",","",""
"null","<div style=""color:white; font-size:60px;"">+</div>","null","html-keyboard-response","192","449728","0.0-8.0-0.40","fixation","","","","",""
"3948.9900000044145","Stimuli/Hangul_F40.bmp","190","image-keyboard-response","193","453681","0.0-8.0-1.40","test",".","",".","",""
"null","<div style=""color:white; font-size:60px;"">+</div>","null","html-keyboard-response","194","454690","0.0-8.0-0.41","fixation","","","","",""
"2757.5049999868497","Stimuli/Hangul_M40.bmp","190","image-keyboard-response","195","457451","0.0-8.0-1.41","test",",","",".","",""
"null","<div style=""color:white; font-size:60px;"">+</div>","null","html-keyboard-response","196","458461","0.0-8.0-0.42","fixation","","","","",""
"1994.3900000071153","Stimuli/Hangul_M41.bmp","190","image-keyboard-response","197","460458","0.0-8.0-1.42","test",",","",".","",""
"null","<div style=""color:white; font-size:60px;"">+</div>","null","html-keyboard-response","198","461475","0.0-8.0-0.43","fixation","","","","",""
"3171.539999952074","Stimuli/Hangul_M49.bmp","188","image-keyboard-response","199","464650","0.0-8.0-1.43","test",",","",",","",""
"null","<div style=""color:white; font-size:60px;"">+</div>","null","html-keyboard-response","200","465662","0.0-8.0-0.44","fixation","","","","",""
"3288.3900000015274","Stimuli/Hangul_F32.bmp","190","image-keyboard-response","201","468954","0.0-8.0-1.44","test",".","",".","",""
"null","<div style=""color:white; font-size:60px;"">+</div>","null","html-keyboard-response","202","469962","0.0-8.0-0.45","fixation","","","","",""
"2772.8099999949336","Stimuli/Hangul_M26.bmp","188","image-keyboard-response","203","472739","0.0-8.0-1.45","test",",","",",","",""
"null","<div style=""color:white; font-size:60px;"">+</div>","null","html-keyboard-response","204","473745","0.0-8.0-0.46","fixation","","","","",""
"2398.2649999670684","Stimuli/Hangul_M45.bmp","190","image-keyboard-response","205","476145","0.0-8.0-1.46","test",",","",".","",""
"null","<div style=""color:white; font-size:60px;"">+</div>","null","html-keyboard-response","206","477161","0.0-8.0-0.47","fixation","","","","",""
"4546.2850000476465","Stimuli/Hangul_F34.bmp","190","image-keyboard-response","207","481710","0.0-8.0-1.47","test",".","",".","",""
"null","<div style=""color:white; font-size:60px;"">+</div>","null","html-keyboard-response","208","482721","0.0-8.0-0.48","fixation","","","","",""
"2460.6999999959953","Stimuli/Hangul_M47.bmp","190","image-keyboard-response","209","485185","0.0-8.0-1.48","test",",","",".","",""
"null","<div style=""color:white; font-size:60px;"">+</div>","null","html-keyboard-response","210","486202","0.0-8.0-0.49","fixation","","","","",""
"2845.325000002049","Stimuli/Hangul_M38.bmp","190","image-keyboard-response","211","489050","0.0-8.0-1.49","test",",","",".","",""
"27412.234999996144","<p style=""color:white;"">Half way there! Please take a moment to rest.</p> <p style=""color:white;"">When you are ready to continue with block 3 of 4, press the space bar.</p> ","32","html-keyboard-response","212","516464","0.0-9.0","","","","","",""
"null","<div style=""color:white; font-size:60px;"">+</div>","null","html-keyboard-response","213","519489","0.0-10.0-0.0","fixation","","","","",""
"3842.4600000143982","Stimuli/Hangul_F60.bmp","190","image-keyboard-response","214","523336","0.0-10.0-1.0","test",".","",".","",""
"null","<div style=""color:white; font-size:60px;"">+</div>","null","html-keyboard-response","215","524340","0.0-10.0-0.1","fixation","","","","",""
"2261.149999976624","Stimuli/Hangul_M61.bmp","190","image-keyboard-response","216","526605","0.0-10.0-1.1","test",",","",".","",""
"null","<div style=""color:white; font-size:60px;"">+</div>","null","html-keyboard-response","217","527614","0.0-10.0-0.2","fixation","","","","",""
"1924.04000001261","Stimuli/Hangul_M55.bmp","188","image-keyboard-response","218","529540","0.0-10.0-1.2","test",",","",",","",""
"null","<div style=""color:white; font-size:60px;"">+</div>","null","html-keyboard-response","219","530559","0.0-10.0-0.3","fixation","","","","",""
"1896.6000000364147","Stimuli/Hangul_F63.bmp","188","image-keyboard-response","220","532459","0.0-10.0-1.3","test",".","",",","",""
"null","<div style=""color:white; font-size:60px;"">+</div>","null","html-keyboard-response","221","533471","0.0-10.0-0.4","fixation","","","","",""
"1801.1200000182725","Stimuli/Hangul_F72.bmp","188","image-keyboard-response","222","535274","0.0-10.0-1.4","test",".","",",","",""
"null","<div style=""color:white; font-size:60px;"">+</div>","null","html-keyboard-response","223","536284","0.0-10.0-0.5","fixation","","","","",""
"2326.5750000136904","Stimuli/Hangul_F57.bmp","190","image-keyboard-response","224","538613","0.0-10.0-1.5","test",".","",".","",""
"null","<div style=""color:white; font-size:60px;"">+</div>","null","html-keyboard-response","225","539626","0.0-10.0-0.6","fixation","","","","",""
"2398.990000016056","Stimuli/Hangul_F70.bmp","188","image-keyboard-response","226","542032","0.0-10.0-1.6","test",".","",",","",""
"null","<div style=""color:white; font-size:60px;"">+</div>","null","html-keyboard-response","227","543041","0.0-10.0-0.7","fixation","","","","",""
"2194.169999973383","Stimuli/Hangul_F71.bmp","188","image-keyboard-response","228","545237","0.0-10.0-1.7","test",".","",",","",""
"null","<div style=""color:white; font-size:60px;"">+</div>","null","html-keyboard-response","229","546250","0.0-10.0-0.8","fixation","","","","",""
"2269.06500000041","Stimuli/Hangul_M69.bmp","190","image-keyboard-response","230","548523","0.0-10.0-1.8","test",",","",".","",""
"null","<div style=""color:white; font-size:60px;"">+</div>","null","html-keyboard-response","231","549541","0.0-10.0-0.9","fixation","","","","",""
"2389.179999998305","Stimuli/Hangul_M71.bmp","188","image-keyboard-response","232","551932","0.0-10.0-1.9","test",",","",",","",""
"null","<div style=""color:white; font-size:60px;"">+</div>","null","html-keyboard-response","233","552935","0.0-10.0-0.10","fixation","","","","",""
"3062.8900000010617","Stimuli/Hangul_M50.bmp","188","image-keyboard-response","234","556000","0.0-10.0-1.10","test",",","",",","",""
"null","<div style=""color:white; font-size:60px;"">+</div>","null","html-keyboard-response","235","557006","0.0-10.0-0.11","fixation","","","","",""
"2499.7450000373647","Stimuli/Hangul_M63.bmp","190","image-keyboard-response","236","559509","0.0-10.0-1.11","test",",","",".","",""
"null","<div style=""color:white; font-size:60px;"">+</div>","null","html-keyboard-response","237","560524","0.0-10.0-0.12","fixation","","","","",""
"3384.729999990668","Stimuli/Hangul_F69.bmp","188","image-keyboard-response","238","563911","0.0-10.0-1.12","test",".","",",","",""
"null","<div style=""color:white; font-size:60px;"">+</div>","null","html-keyboard-response","239","564917","0.0-10.0-0.13","fixation","","","","",""
"4237.954999960493","Stimuli/Hangul_M65.bmp","190","image-keyboard-response","240","569158","0.0-10.0-1.13","test",",","",".","",""
"null","<div style=""color:white; font-size:60px;"">+</div>","null","html-keyboard-response","241","570164","0.0-10.0-0.14","fixation","","","","",""
"2718.7400000402704","Stimuli/Hangul_F53.bmp","188","image-keyboard-response","242","572887","0.0-10.0-1.14","test",".","",",","",""
"null","<div style=""color:white; font-size:60px;"">+</div>","null","html-keyboard-response","243","573899","0.0-10.0-0.15","fixation","","","","",""
"2125.0400000135414","Stimuli/Hangul_M62.bmp","188","image-keyboard-response","244","576025","0.0-10.0-1.15","test",",","",",","",""
"null","<div style=""color:white; font-size:60px;"">+</div>","null","html-keyboard-response","245","577043","0.0-10.0-0.16","fixation","","","","",""
"2021.7549999943003","Stimuli/Hangul_M56.bmp","190","image-keyboard-response","246","579068","0.0-10.0-1.16","test",",","",".","",""
"null","<div style=""color:white; font-size:60px;"">+</div>","null","html-keyboard-response","247","580083","0.0-10.0-0.17","fixation","","","","",""
"1650.850000034552","Stimuli/Hangul_F74.bmp","188","image-keyboard-response","248","581736","0.0-10.0-1.17","test",".","",",","",""
"null","<div style=""color:white; font-size:60px;"">+</div>","null","html-keyboard-response","249","582744","0.0-10.0-0.18","fixation","","","","",""
"2132.0700000505894","Stimuli/Hangul_M54.bmp","190","image-keyboard-response","250","584878","0.0-10.0-1.18","test",",","",".","",""
"null","<div style=""color:white; font-size:60px;"">+</div>","null","html-keyboard-response","251","585884","0.0-10.0-0.19","fixation","","","","",""
"2880.7749999687076","Stimuli/Hangul_F66.bmp","190","image-keyboard-response","252","588768","0.0-10.0-1.19","test",".","",".","",""
"null","<div style=""color:white; font-size:60px;"">+</div>","null","html-keyboard-response","253","589775","0.0-10.0-0.20","fixation","","","","",""
"2896.2000000174157","Stimuli/Hangul_F56.bmp","188","image-keyboard-response","254","592673","0.0-10.0-1.20","test",".","",",","",""
"null","<div style=""color:white; font-size:60px;"">+</div>","null","html-keyboard-response","255","593688","0.0-10.0-0.21","fixation","","","","",""
"2172.0850000274368","Stimuli/Hangul_F67.bmp","188","image-keyboard-response","256","595863","0.0-10.0-1.21","test",".","",",","",""
"null","<div style=""color:white; font-size:60px;"">+</div>","null","html-keyboard-response","257","596875","0.0-10.0-0.22","fixation","","","","",""
"3027.9750000336207","Stimuli/Hangul_M51.bmp","188","image-keyboard-response","258","599906","0.0-10.0-1.22","test",",","",",","",""
"null","<div style=""color:white; font-size:60px;"">+</div>","null","html-keyboard-response","259","600915","0.0-10.0-0.23","fixation","","","","",""
"5597.429999965243","Stimuli/Hangul_F64.bmp","188","image-keyboard-response","260","606512","0.0-10.0-1.23","test",".","",",","",""
"null","<div style=""color:white; font-size:60px;"">+</div>","null","html-keyboard-response","261","607519","0.0-10.0-0.24","fixation","","","","",""
"2623.334999952931","Stimuli/Hangul_F61.bmp","190","image-keyboard-response","262","610147","0.0-10.0-1.24","test",".","",".","",""
"null","<div style=""color:white; font-size:60px;"">+</div>","null","html-keyboard-response","263","611159","0.0-10.0-0.25","fixation","","","","",""
"2154.050000011921","Stimuli/Hangul_M66.bmp","190","image-keyboard-response","264","613316","0.0-10.0-1.25","test",",","",".","",""
"null","<div style=""color:white; font-size:60px;"">+</div>","null","html-keyboard-response","265","614341","0.0-10.0-0.26","fixation","","","","",""
"4758.640000014566","Stimuli/Hangul_F55.bmp","188","image-keyboard-response","266","619103","0.0-10.0-1.26","test",".","",",","",""
"null","<div style=""color:white; font-size:60px;"">+</div>","null","html-keyboard-response","267","620118","0.0-10.0-0.27","fixation","","","","",""
"2329.889999993611","Stimuli/Hangul_F54.bmp","188","image-keyboard-response","268","622452","0.0-10.0-1.27","test",".","",",","",""
"null","<div style=""color:white; font-size:60px;"">+</div>","null","html-keyboard-response","269","623464","0.0-10.0-0.28","fixation","","","","",""
"2523.9350000047125","Stimuli/Hangul_M58.bmp","190","image-keyboard-response","270","625989","0.0-10.0-1.28","test",",","",".","",""
"null","<div style=""color:white; font-size:60px;"">+</div>","null","html-keyboard-response","271","626997","0.0-10.0-0.29","fixation","","","","",""
"2859.340000024531","Stimuli/Hangul_F59.bmp","190","image-keyboard-response","272","629861","0.0-10.0-1.29","test",".","",".","",""
"null","<div style=""color:white; font-size:60px;"">+</div>","null","html-keyboard-response","273","630871","0.0-10.0-0.30","fixation","","","","",""
"2918.5900000156835","Stimuli/Hangul_M60.bmp","188","image-keyboard-response","274","633791","0.0-10.0-1.30","test",",","",",","",""
"null","<div style=""color:white; font-size:60px;"">+</div>","null","html-keyboard-response","275","634806","0.0-10.0-0.31","fixation","","","","",""
"2067.0500000123866","Stimuli/Hangul_M72.bmp","188","image-keyboard-response","276","636876","0.0-10.0-1.31","test",",","",",","",""
"null","<div style=""color:white; font-size:60px;"">+</div>","null","html-keyboard-response","277","637882","0.0-10.0-0.32","fixation","","","","",""
"2348.564999992959","Stimuli/Hangul_M68.bmp","188","image-keyboard-response","278","640233","0.0-10.0-1.32","test",",","",",","",""
"null","<div style=""color:white; font-size:60px;"">+</div>","null","html-keyboard-response","279","641240","0.0-10.0-0.33","fixation","","","","",""
"2275.3600000287406","Stimuli/Hangul_M67.bmp","190","image-keyboard-response","280","643519","0.0-10.0-1.33","test",",","",".","",""
"null","<div style=""color:white; font-size:60px;"">+</div>","null","html-keyboard-response","281","644532","0.0-10.0-0.34","fixation","","","","",""
"3402.765000006184","Stimuli/Hangul_M64.bmp","190","image-keyboard-response","282","647936","0.0-10.0-1.34","test",",","",".","",""
"null","<div style=""color:white; font-size:60px;"">+</div>","null","html-keyboard-response","283","648939","0.0-10.0-0.35","fixation","","","","",""
"3460.6000000494532","Stimuli/Hangul_F62.bmp","190","image-keyboard-response","284","652402","0.0-10.0-1.35","test",".","",".","",""
"null","<div style=""color:white; font-size:60px;"">+</div>","null","html-keyboard-response","285","653410","0.0-10.0-0.36","fixation","","","","",""
"3052.404999965802","Stimuli/Hangul_M73.bmp","190","image-keyboard-response","286","656466","0.0-10.0-1.36","test",",","",".","",""
"null","<div style=""color:white; font-size:60px;"">+</div>","null","html-keyboard-response","287","657471","0.0-10.0-0.37","fixation","","","","",""
"2523.4400000190362","Stimuli/Hangul_M70.bmp","188","image-keyboard-response","288","659998","0.0-10.0-1.37","test",",","",",","",""
"null","<div style=""color:white; font-size:60px;"">+</div>","null","html-keyboard-response","289","661003","0.0-10.0-0.38","fixation","","","","",""
"2263.1299999775365","Stimuli/Hangul_F73.bmp","190","image-keyboard-response","290","663264","0.0-10.0-1.38","test",".","",".","",""
"null","<div style=""color:white; font-size:60px;"">+</div>","null","html-keyboard-response","291","664269","0.0-10.0-0.39","fixation","","","","",""
"2516.089999990072","Stimuli/Hangul_F50.bmp","190","image-keyboard-response","292","666789","0.0-10.0-1.39","test",".","",".","",""
"null","<div style=""color:white; font-size:60px;"">+</div>","null","html-keyboard-response","293","667796","0.0-10.0-0.40","fixation","","","","",""
"3250.0099999597296","Stimuli/Hangul_F68.bmp","188","image-keyboard-response","294","671048","0.0-10.0-1.40","test",".","",",","",""
"null","<div style=""color:white; font-size:60px;"">+</div>","null","html-keyboard-response","295","672062","0.0-10.0-0.41","fixation","","","","",""
"1887.624999973923","Stimuli/Hangul_M52.bmp","188","image-keyboard-response","296","673954","0.0-10.0-1.41","test",",","",",","",""
"null","<div style=""color:white; font-size:60px;"">+</div>","null","html-keyboard-response","297","674967","0.0-10.0-0.42","fixation","","","","",""
"3038.925000000745","Stimuli/Hangul_F58.bmp","190","image-keyboard-response","298","678008","0.0-10.0-1.42","test",".","",".","",""
"null","<div style=""color:white; font-size:60px;"">+</div>","null","html-keyboard-response","299","679013","0.0-10.0-0.43","fixation","","","","",""
"5090.810000023339","Stimuli/Hangul_F65.bmp","188","image-keyboard-response","300","684112","0.0-10.0-1.43","test",".","",",","",""
"null","<div style=""color:white; font-size:60px;"">+</div>","null","html-keyboard-response","301","685116","0.0-10.0-0.44","fixation","","","","",""
"2389.969999960158","Stimuli/Hangul_M57.bmp","188","image-keyboard-response","302","687509","0.0-10.0-1.44","test",",","",",","",""
"null","<div style=""color:white; font-size:60px;"">+</div>","null","html-keyboard-response","303","688514","0.0-10.0-0.45","fixation","","","","",""
"2816.560000006575","Stimuli/Hangul_F52.bmp","190","image-keyboard-response","304","691333","0.0-10.0-1.45","test",".","",".","",""
"null","<div style=""color:white; font-size:60px;"">+</div>","null","html-keyboard-response","305","692349","0.0-10.0-0.46","fixation","","","","",""
"3504.5500000123866","Stimuli/Hangul_M53.bmp","190","image-keyboard-response","306","695857","0.0-10.0-1.46","test",",","",".","",""
"null","<div style=""color:white; font-size:60px;"">+</div>","null","html-keyboard-response","307","696874","0.0-10.0-0.47","fixation","","","","",""
"4232.394999999087","Stimuli/Hangul_M59.bmp","188","image-keyboard-response","308","701110","0.0-10.0-1.47","test",",","",",","",""
"null","<div style=""color:white; font-size:60px;"">+</div>","null","html-keyboard-response","309","702118","0.0-10.0-0.48","fixation","","","","",""
"2560.4849999654107","Stimuli/Hangul_M74.bmp","190","image-keyboard-response","310","704682","0.0-10.0-1.48","test",",","",".","",""
"null","<div style=""color:white; font-size:60px;"">+</div>","null","html-keyboard-response","311","705686","0.0-10.0-0.49","fixation","","","","",""
"3375.5849999724887","Stimuli/Hangul_F51.bmp","188","image-keyboard-response","312","709064","0.0-10.0-1.49","test",".","",",","",""
"152413.53000001982","<p style=""color:white;"">One more block to go! Please take a moment to rest.</p> <p style=""color:white;"">When you are ready to continue with block 4 of 4, press the space bar.</p> ","32","html-keyboard-response","313","861497","0.0-11.0","","","","","",""
"null","<div style=""color:white; font-size:60px;"">+</div>","null","html-keyboard-response","314","864515","0.0-12.0-0.0","fixation","","","","",""
"2184.349999995902","Stimuli/Hangul_M87.bmp","190","image-keyboard-response","315","866707","0.0-12.0-1.0","test",",","",".","",""
"null","<div style=""color:white; font-size:60px;"">+</div>","null","html-keyboard-response","316","867719","0.0-12.0-0.1","fixation","","","","",""
"6008.010000048671","Stimuli/Hangul_M79.bmp","190","image-keyboard-response","317","873730","0.0-12.0-1.1","test",",","",".","",""
"null","<div style=""color:white; font-size:60px;"">+</div>","null","html-keyboard-response","318","874744","0.0-12.0-0.2","fixation","","","","",""
"2330.2399999811314","Stimuli/Hangul_F95.bmp","188","image-keyboard-response","319","877080","0.0-12.0-1.2","test",".","",",","",""
"null","<div style=""color:white; font-size:60px;"">+</div>","null","html-keyboard-response","320","878089","0.0-12.0-0.3","fixation","","","","",""
"3005.4200000013225","Stimuli/Hangul_F81.bmp","188","image-keyboard-response","321","881103","0.0-12.0-1.3","test",".","",",","",""
"null","<div style=""color:white; font-size:60px;"">+</div>","null","html-keyboard-response","322","882108","0.0-12.0-0.4","fixation","","","","",""
"4314.109999977518","Stimuli/Hangul_F86.bmp","190","image-keyboard-response","323","886426","0.0-12.0-1.4","test",".","",".","",""
"null","<div style=""color:white; font-size:60px;"">+</div>","null","html-keyboard-response","324","887436","0.0-12.0-0.5","fixation","","","","",""
"12009.184999973513","Stimuli/Hangul_F79.bmp","188","image-keyboard-response","325","899449","0.0-12.0-1.5","test",".","",",","",""
"null","<div style=""color:white; font-size:60px;"">+</div>","null","html-keyboard-response","326","900467","0.0-12.0-0.6","fixation","","","","",""
"2431.8099999800324","Stimuli/Hangul_F98.bmp","190","image-keyboard-response","327","902903","0.0-12.0-1.6","test",".","",".","",""
"null","<div style=""color:white; font-size:60px;"">+</div>","null","html-keyboard-response","328","903923","0.0-12.0-0.7","fixation","","","","",""
"2586.6950000054203","Stimuli/Hangul_M81.bmp","188","image-keyboard-response","329","906512","0.0-12.0-1.7","test",",","",",","",""
"null","<div style=""color:white; font-size:60px;"">+</div>","null","html-keyboard-response","330","907515","0.0-12.0-0.8","fixation","","","","",""
"2854.8549999832176","Stimuli/Hangul_M77.bmp","190","image-keyboard-response","331","910375","0.0-12.0-1.8","test",",","",".","",""
"null","<div style=""color:white; font-size:60px;"">+</div>","null","html-keyboard-response","332","911392","0.0-12.0-0.9","fixation","","","","",""
"2872.5099999574013","Stimuli/Hangul_F92.bmp","190","image-keyboard-response","333","914267","0.0-12.0-1.9","test",".","",".","",""
"null","<div style=""color:white; font-size:60px;"">+</div>","null","html-keyboard-response","334","915271","0.0-12.0-0.10","fixation","","","","",""
"2491.824999975506","Stimuli/Hangul_F99.bmp","188","image-keyboard-response","335","917766","0.0-12.0-1.10","test",".","",",","",""
"null","<div style=""color:white; font-size:60px;"">+</div>","null","html-keyboard-response","336","918780","0.0-12.0-0.11","fixation","","","","",""
"1963.1200000294484","Stimuli/Hangul_F97.bmp","188","image-keyboard-response","337","920745","0.0-12.0-1.11","test",".","",",","",""
"null","<div style=""color:white; font-size:60px;"">+</div>","null","html-keyboard-response","338","921763","0.0-12.0-0.12","fixation","","","","",""
"1732.7800000202842","Stimuli/Hangul_M84.bmp","190","image-keyboard-response","339","923499","0.0-12.0-1.12","test",",","",".","",""
"null","<div style=""color:white; font-size:60px;"">+</div>","null","html-keyboard-response","340","924513","0.0-12.0-0.13","fixation","","","","",""
"1934.3450000160374","Stimuli/Hangul_M82.bmp","188","image-keyboard-response","341","926449","0.0-12.0-1.13","test",",","",",","",""
"null","<div style=""color:white; font-size:60px;"">+</div>","null","html-keyboard-response","342","927467","0.0-12.0-0.14","fixation","","","","",""
"1655.0150000257418","Stimuli/Hangul_M75.bmp","190","image-keyboard-response","343","929124","0.0-12.0-1.14","test",",","",".","",""
"null","<div style=""color:white; font-size:60px;"">+</div>","null","html-keyboard-response","344","930133","0.0-12.0-0.15","fixation","","","","",""
"2013.649999978952","Stimuli/Hangul_M99.bmp","190","image-keyboard-response","345","932150","0.0-12.0-1.15","test",",","",".","",""
"null","<div style=""color:white; font-size:60px;"">+</div>","null","html-keyboard-response","346","933159","0.0-12.0-0.16","fixation","","","","",""
"2196.8399999896064","Stimuli/Hangul_M98.bmp","190","image-keyboard-response","347","935358","0.0-12.0-1.16","test",",","",".","",""
"null","<div style=""color:white; font-size:60px;"">+</div>","null","html-keyboard-response","348","936364","0.0-12.0-0.17","fixation","","","","",""
"6273.855000035837","Stimuli/Hangul_F93.bmp","188","image-keyboard-response","349","942641","0.0-12.0-1.17","test",".","",",","",""
"null","<div style=""color:white; font-size:60px;"">+</div>","null","html-keyboard-response","350","943646","0.0-12.0-0.18","fixation","","","","",""
"2163.2300000055693","Stimuli/Hangul_M94.bmp","190","image-keyboard-response","351","945815","0.0-12.0-1.18","test",",","",".","",""
"null","<div style=""color:white; font-size:60px;"">+</div>","null","html-keyboard-response","352","946823","0.0-12.0-0.19","fixation","","","","",""
"3351.0649999952875","Stimuli/Hangul_F84.bmp","188","image-keyboard-response","353","950176","0.0-12.0-1.19","test",".","",",","",""
"null","<div style=""color:white; font-size:60px;"">+</div>","null","html-keyboard-response","354","951185","0.0-12.0-0.20","fixation","","","","",""
"3561.4949999726377","Stimuli/Hangul_F75.bmp","190","image-keyboard-response","355","954750","0.0-12.0-1.20","test",".","",".","",""
"null","<div style=""color:white; font-size:60px;"">+</div>","null","html-keyboard-response","356","955766","0.0-12.0-0.21","fixation","","","","",""
"3036.9599999976344","Stimuli/Hangul_F85.bmp","190","image-keyboard-response","357","958806","0.0-12.0-1.21","test",".","",".","",""
"null","<div style=""color:white; font-size:60px;"">+</div>","null","html-keyboard-response","358","959811","0.0-12.0-0.22","fixation","","","","",""
"2355.8699999703094","Stimuli/Hangul_M97.bmp","188","image-keyboard-response","359","962171","0.0-12.0-1.22","test",",","",",","",""
"null","<div style=""color:white; font-size:60px;"">+</div>","null","html-keyboard-response","360","963184","0.0-12.0-0.23","fixation","","","","",""
"2047.9449999984354","Stimuli/Hangul_M88.bmp","188","image-keyboard-response","361","965234","0.0-12.0-1.23","test",",","",",","",""
"null","<div style=""color:white; font-size:60px;"">+</div>","null","html-keyboard-response","362","966253","0.0-12.0-0.24","fixation","","","","",""
"3941.549999988638","Stimuli/Hangul_F80.bmp","190","image-keyboard-response","363","970198","0.0-12.0-1.24","test",".","",".","",""
"null","<div style=""color:white; font-size:60px;"">+</div>","null","html-keyboard-response","364","971206","0.0-12.0-0.25","fixation","","","","",""
"2414.4300000043586","Stimuli/Hangul_M95.bmp","190","image-keyboard-response","365","973625","0.0-12.0-1.25","test",",","",".","",""
"null","<div style=""color:white; font-size:60px;"">+</div>","null","html-keyboard-response","366","974628","0.0-12.0-0.26","fixation","","","","",""
"2688.1500000017695","Stimuli/Hangul_M85.bmp","188","image-keyboard-response","367","977320","0.0-12.0-1.26","test",",","",",","",""
"null","<div style=""color:white; font-size:60px;"">+</div>","null","html-keyboard-response","368","978333","0.0-12.0-0.27","fixation","","","","",""
"1973.485000024084","Stimuli/Hangul_F90.bmp","188","image-keyboard-response","369","980310","0.0-12.0-1.27","test",".","",",","",""
"null","<div style=""color:white; font-size:60px;"">+</div>","null","html-keyboard-response","370","981317","0.0-12.0-0.28","fixation","","","","",""
"1862.6900000381283","Stimuli/Hangul_F76.bmp","190","image-keyboard-response","371","983181","0.0-12.0-1.28","test",".","",".","",""
"null","<div style=""color:white; font-size:60px;"">+</div>","null","html-keyboard-response","372","984190","0.0-12.0-0.29","fixation","","","","",""
"3790.630000003148","Stimuli/Hangul_F78.bmp","188","image-keyboard-response","373","987983","0.0-12.0-1.29","test",".","",",","",""
"null","<div style=""color:white; font-size:60px;"">+</div>","null","html-keyboard-response","374","988987","0.0-12.0-0.30","fixation","","","","",""
"2332.029999990482","Stimuli/Hangul_M93.bmp","190","image-keyboard-response","375","991322","0.0-12.0-1.30","test",",","",".","",""
"null","<div style=""color:white; font-size:60px;"">+</div>","null","html-keyboard-response","376","992332","0.0-12.0-0.31","fixation","","","","",""
"2732.259999960661","Stimuli/Hangul_M78.bmp","190","image-keyboard-response","377","995067","0.0-12.0-1.31","test",",","",".","",""
"null","<div style=""color:white; font-size:60px;"">+</div>","null","html-keyboard-response","378","996070","0.0-12.0-0.32","fixation","","","","",""
"2472.8350000223145","Stimuli/Hangul_M91.bmp","188","image-keyboard-response","379","998547","0.0-12.0-1.32","test",",","",",","",""
"null","<div style=""color:white; font-size:60px;"">+</div>","null","html-keyboard-response","380","999561","0.0-12.0-0.33","fixation","","","","",""
"2046.5449999901466","Stimuli/Hangul_M96.bmp","190","image-keyboard-response","381","1001609","0.0-12.0-1.33","test",",","",".","",""
"null","<div style=""color:white; font-size:60px;"">+</div>","null","html-keyboard-response","382","1002614","0.0-12.0-0.34","fixation","","","","",""
"1752.2050000261515","Stimuli/Hangul_F83.bmp","190","image-keyboard-response","383","1004370","0.0-12.0-1.34","test",".","",".","",""
"null","<div style=""color:white; font-size:60px;"">+</div>","null","html-keyboard-response","384","1005388","0.0-12.0-0.35","fixation","","","","",""
"2179.665000003297","Stimuli/Hangul_M83.bmp","188","image-keyboard-response","385","1007570","0.0-12.0-1.35","test",",","",",","",""
"null","<div style=""color:white; font-size:60px;"">+</div>","null","html-keyboard-response","386","1008581","0.0-12.0-0.36","fixation","","","","",""
"2092.7900000242516","Stimuli/Hangul_M89.bmp","188","image-keyboard-response","387","1010676","0.0-12.0-1.36","test",",","",",","",""
"null","<div style=""color:white; font-size:60px;"">+</div>","null","html-keyboard-response","388","1011693","0.0-12.0-0.37","fixation","","","","",""
"2109.8149999743327","Stimuli/Hangul_M90.bmp","188","image-keyboard-response","389","1013807","0.0-12.0-1.37","test",",","",",","",""
"null","<div style=""color:white; font-size:60px;"">+</div>","null","html-keyboard-response","390","1014808","0.0-12.0-0.38","fixation","","","","",""
"1962.8999999840744","Stimuli/Hangul_F91.bmp","188","image-keyboard-response","391","1016773","0.0-12.0-1.38","test",".","",",","",""
"null","<div style=""color:white; font-size:60px;"">+</div>","null","html-keyboard-response","392","1017788","0.0-12.0-0.39","fixation","","","","",""
"2025.1849999767728","Stimuli/Hangul_F89.bmp","190","image-keyboard-response","393","1019818","0.0-12.0-1.39","test",".","",".","",""
"null","<div style=""color:white; font-size:60px;"">+</div>","null","html-keyboard-response","394","1020831","0.0-12.0-0.40","fixation","","","","",""
"2243.8050000346266","Stimuli/Hangul_F88.bmp","188","image-keyboard-response","395","1023077","0.0-12.0-1.40","test",".","",",","",""
"null","<div style=""color:white; font-size:60px;"">+</div>","null","html-keyboard-response","396","1024084","0.0-12.0-0.41","fixation","","","","",""
"2115.7099999836646","Stimuli/Hangul_F82.bmp","190","image-keyboard-response","397","1026204","0.0-12.0-1.41","test",".","",".","",""
"null","<div style=""color:white; font-size:60px;"">+</div>","null","html-keyboard-response","398","1027211","0.0-12.0-0.42","fixation","","","","",""
"2066.0700000007637","Stimuli/Hangul_M80.bmp","188","image-keyboard-response","399","1029279","0.0-12.0-1.42","test",",","",",","",""
"null","<div style=""color:white; font-size:60px;"">+</div>","null","html-keyboard-response","400","1030292","0.0-12.0-0.43","fixation","","","","",""
"2151.7499999608845","Stimuli/Hangul_F94.bmp","188","image-keyboard-response","401","1032445","0.0-12.0-1.43","test",".","",",","",""
"null","<div style=""color:white; font-size:60px;"">+</div>","null","html-keyboard-response","402","1033457","0.0-12.0-0.44","fixation","","","","",""
"2779.949999996461","Stimuli/Hangul_M92.bmp","188","image-keyboard-response","403","1036235","0.0-12.0-1.44","test",",","",",","",""
"null","<div style=""color:white; font-size:60px;"">+</div>","null","html-keyboard-response","404","1037251","0.0-12.0-0.45","fixation","","","","",""
"1308.0399999744259","Stimuli/Hangul_M76.bmp","190","image-keyboard-response","405","1038563","0.0-12.0-1.45","test",",","",".","",""
"null","<div style=""color:white; font-size:60px;"">+</div>","null","html-keyboard-response","406","1039566","0.0-12.0-0.46","fixation","","","","",""
"2925.825000042096","Stimuli/Hangul_F77.bmp","188","image-keyboard-response","407","1042495","0.0-12.0-1.46","test",".","",",","",""
"null","<div style=""color:white; font-size:60px;"">+</div>","null","html-keyboard-response","408","1043502","0.0-12.0-0.47","fixation","","","","",""
"1939.0350000467151","Stimuli/Hangul_M86.bmp","190","image-keyboard-response","409","1045446","0.0-12.0-1.47","test",",","",".","",""
"null","<div style=""color:white; font-size:60px;"">+</div>","null","html-keyboard-response","410","1046454","0.0-12.0-0.48","fixation","","","","",""
"2199.5899999747053","Stimuli/Hangul_F87.bmp","188","image-keyboard-response","411","1048656","0.0-12.0-1.48","test",".","",",","",""
"null","<div style=""color:white; font-size:60px;"">+</div>","null","html-keyboard-response","412","1049672","0.0-12.0-0.49","fixation","","","","",""
"2623.7949999631383","Stimuli/Hangul_F96.bmp","188","image-keyboard-response","413","1052300","0.0-12.0-1.49","test",".","",",","",""
"2867.5949999596924","<p style=""color:white;"">Phase I of the experiment is complete.</p> <p style=""color:white;"">Press the space bar to proceed to Phase II of the experiment.</p> ","32","html-keyboard-response","414","1055171","0.0-13.0","","","","","",""
"41804.21000003116","<p style=""color:white;"">Now we are interested in how well you can predict patterns in the series of figures. You will be asked to predict whether the next figure in the series is more male-like or female-like. When you see the <q>Next Figure</q> prompt, press the corresponding response keys to indicate your prediction: </p><p style=""color:white;""> Male &#8594 <q>,</q> (comma)</p><p style=""color:white;""> Female &#8594 <q>.</q> (period)</p><p style=""color:white;"">The actual figure will then appear on the screen. After you see the figure, please guess the assigned gender with response keys. </p><p style=""color:white;"">As before, you will receive 2 cents for correctly classifying each figure.</p><p style=""color:white;"">Press either response keys to continue.</p>","188","html-keyboard-response","415","1098984","0.0-14.0","","","","","",""
"11837.94499997748","<p style=""color:white;"">PREDICTION BONUS</p> <p style=""color:white;"">Your prediction accuracy is the total number of correct predictions you make over the 200 trials.</p> <p style=""color:white;"">In addition to the 2 cents per correct figure classification, you have the chance to receive a bonus of 40 dollars IF your accuracy is above average relative to previous participants.</p><p style=""color:white;"">If your accuracy is below average relative to previous participants, then you will not receive the 40 dollar bonus.</p><p style=""color:white;"">Press the space bar to continue.</p>","32","html-keyboard-response","416","1110824","0.0-15.0","","","","","",""
"7792.34499996528","<p style=""color:white;"">Here are some examples.</p> <p style=""color:white;"">For each, predict whether the next figure looks more male-like or female-like. Then, when the figure appears, guess whether it looks more male-like or female-like and indicate your choice.</p> <p style=""color:white;"">Press the space bar to continue.</p>","32","html-keyboard-response","417","1118619","0.0-16.0","","","","","",""
"878.8250000216067","<p style=""color:white;""> Next Figure: Male or Female? </p>","188","html-keyboard-response","418","1121501","0.0-17.0-0.0","prediction_train","","","",",",""
"null","<div style=""color:white; font-size:60px;"">+</div>","null","html-keyboard-response","419","1122508","0.0-17.0-1.0","fixation","","","","",""
"1281.879999965895","Stimuli/Hangul_E1.bmp","190","image-keyboard-response","420","1123793","0.0-17.0-2.0","c2_train",",","","","","."
"1887.4500000383705","<p style=""color:white;""> Next Figure: Male or Female? </p>","190","html-keyboard-response","421","1125684","0.0-17.0-0.1","prediction_train","","","",".",""
"null","<div style=""color:white; font-size:60px;"">+</div>","null","html-keyboard-response","422","1126703","0.0-17.0-1.1","fixation","","","","",""
"841.1449999548495","Stimuli/Hangul_E0.bmp","190","image-keyboard-response","423","1127548","0.0-17.0-2.1","c2_train",",","","","","."
"7042.520000017248","<p style=""color:white;""> Next Figure: Male or Female? </p>","188","html-keyboard-response","424","1134594","0.0-17.0-0.2","prediction_train","","","",",",""
"null","<div style=""color:white; font-size:60px;"">+</div>","null","html-keyboard-response","425","1135604","0.0-17.0-1.2","fixation","","","","",""
"3542.485000041779","Stimuli/Hangul_E2.bmp","190","image-keyboard-response","426","1139152","0.0-17.0-2.2","c2_train",".","","","","."
"4187.254999997094","<p style=""color:white;"">Let us begin! Press the space bar when you are ready to start block 1 of 4.</p> ","32","html-keyboard-response","427","1143343","0.0-18.0","","","","","",""
"1080.0550000276417","<p style=""color:white;""> Next Figure: Male or Female? </p>","190","html-keyboard-response","428","1146428","0.0-19.0-0.0","prediction","","","",".",""
"null","<div style=""color:white; font-size:60px;"">+</div>","null","html-keyboard-response","429","1147436","0.0-19.0-1.0","fixation","","","","",""
"948.6849999520928","Stimuli/Hangul_F16.bmp","190","image-keyboard-response","430","1148387","0.0-19.0-2.0","c2_test",".","","","","."
"2969.7850000229664","<p style=""color:white;""> Next Figure: Male or Female? </p>","188","html-keyboard-response","431","1151358","0.0-19.0-0.1","prediction","","","",",",""
"null","<div style=""color:white; font-size:60px;"">+</div>","null","html-keyboard-response","432","1152371","0.0-19.0-1.1","fixation","","","","",""
"722.6399999926798","Stimuli/Hangul_M4.bmp","188","image-keyboard-response","433","1153095","0.0-19.0-2.1","c2_test",",","","","",","
"2498.974999994971","<p style=""color:white;""> Next Figure: Male or Female? </p>","188","html-keyboard-response","434","1155596","0.0-19.0-0.2","prediction","","","",",",""
"null","<div style=""color:white; font-size:60px;"">+</div>","null","html-keyboard-response","435","1156613","0.0-19.0-1.2","fixation","","","","",""
"2187.1999999857508","Stimuli/Hangul_M22.bmp","190","image-keyboard-response","436","1158805","0.0-19.0-2.2","c2_test",",","","","","."
"763.6899999924935","<p style=""color:white;""> Next Figure: Male or Female? </p>","190","html-keyboard-response","437","1159567","0.0-19.0-0.3","prediction","","","",".",""
"null","<div style=""color:white; font-size:60px;"">+</div>","null","html-keyboard-response","438","1160578","0.0-19.0-1.3","fixation","","","","",""
"3023.65499996813","Stimuli/Hangul_M24.bmp","188","image-keyboard-response","439","1163604","0.0-19.0-2.3","c2_test",",","","","",","
"2324.3550000479445","<p style=""color:white;""> Next Figure: Male or Female? </p>","188","html-keyboard-response","440","1165932","0.0-19.0-0.4","prediction","","","",",",""
"null","<div style=""color:white; font-size:60px;"">+</div>","null","html-keyboard-response","441","1166937","0.0-19.0-1.4","fixation","","","","",""
"1212.3199999914505","Stimuli/Hangul_M5.bmp","190","image-keyboard-response","442","1168151","0.0-19.0-2.4","c2_test",",","","","","."
"1322.7699999697506","<p style=""color:white;""> Next Figure: Male or Female? </p>","190","html-keyboard-response","443","1169475","0.0-19.0-0.5","prediction","","","",".",""
"null","<div style=""color:white; font-size:60px;"">+</div>","null","html-keyboard-response","444","1170484","0.0-19.0-1.5","fixation","","","","",""
"755.8250000001863","Stimuli/Hangul_F8.bmp","190","image-keyboard-response","445","1171244","0.0-19.0-2.5","c2_test",".","","","","."
"1702.5249999715015","<p style=""color:white;""> Next Figure: Male or Female? </p>","190","html-keyboard-response","446","1172948","0.0-19.0-0.6","prediction","","","",".",""
"null","<div style=""color:white; font-size:60px;"">+</div>","null","html-keyboard-response","447","1173951","0.0-19.0-1.6","fixation","","","","",""
"1433.2500000018626","Stimuli/Hangul_M6.bmp","188","image-keyboard-response","448","1175386","0.0-19.0-2.6","c2_test",",","","","",","
"533.8699999847449","<p style=""color:white;""> Next Figure: Male or Female? </p>","188","html-keyboard-response","449","1175922","0.0-19.0-0.7","prediction","","","",",",""
"null","<div style=""color:white; font-size:60px;"">+</div>","null","html-keyboard-response","450","1176927","0.0-19.0-1.7","fixation","","","","",""
"1173.2049999991432","Stimuli/Hangul_M21.bmp","190","image-keyboard-response","451","1178103","0.0-19.0-2.7","c2_test",",","","","","."
"1670.3900000429712","<p style=""color:white;""> Next Figure: Male or Female? </p>","190","html-keyboard-response","452","1179775","0.0-19.0-0.8","prediction","","","",".",""
"null","<div style=""color:white; font-size:60px;"">+</div>","null","html-keyboard-response","453","1180783","0.0-19.0-1.8","fixation","","","","",""
"957.1100000175647","Stimuli/Hangul_M0.bmp","190","image-keyboard-response","454","1181744","0.0-19.0-2.8","c2_test",",","","","","."
"1875.5599999567494","<p style=""color:white;""> Next Figure: Male or Female? </p>","188","html-keyboard-response","455","1183622","0.0-19.0-0.9","prediction","","","",",",""
"null","<div style=""color:white; font-size:60px;"">+</div>","null","html-keyboard-response","456","1184636","0.0-19.0-1.9","fixation","","","","",""
"1964.7799999802373","Stimuli/Hangul_M11.bmp","188","image-keyboard-response","457","1186606","0.0-19.0-2.9","c2_test",",","","","",","
"995.8800000022165","<p style=""color:white;""> Next Figure: Male or Female? </p>","190","html-keyboard-response","458","1187604","0.0-19.0-0.10","prediction","","","",".",""
"null","<div style=""color:white; font-size:60px;"">+</div>","null","html-keyboard-response","459","1188611","0.0-19.0-1.10","fixation","","","","",""
"1369.1349999862723","Stimuli/Hangul_M10.bmp","190","image-keyboard-response","460","1189982","0.0-19.0-2.10","c2_test",",","","","","."
"1489.2849999596365","<p style=""color:white;""> Next Figure: Male or Female? </p>","188","html-keyboard-response","461","1191475","0.0-19.0-0.11","prediction","","","",",",""
"null","<div style=""color:white; font-size:60px;"">+</div>","null","html-keyboard-response","462","1192487","0.0-19.0-1.11","fixation","","","","",""
"1011.2749999971129","Stimuli/Hangul_F4.bmp","188","image-keyboard-response","463","1193501","0.0-19.0-2.11","c2_test",".","","","",","
"954.4699999969453","<p style=""color:white;""> Next Figure: Male or Female? </p>","188","html-keyboard-response","464","1194459","0.0-19.0-0.12","prediction","","","",",",""
"null","<div style=""color:white; font-size:60px;"">+</div>","null","html-keyboard-response","465","1195472","0.0-19.0-1.12","fixation","","","","",""
"1186.2100000143982","Stimuli/Hangul_M17.bmp","190","image-keyboard-response","466","1196661","0.0-19.0-2.12","c2_test",",","","","","."
"1390.4099999926984","<p style=""color:white;""> Next Figure: Male or Female? </p>","190","html-keyboard-response","467","1198055","0.0-19.0-0.13","prediction","","","",".",""
"null","<div style=""color:white; font-size:60px;"">+</div>","null","html-keyboard-response","468","1199068","0.0-19.0-1.13","fixation","","","","",""
"1515.6149999820627","Stimuli/Hangul_M23.bmp","190","image-keyboard-response","469","1200588","0.0-19.0-2.13","c2_test",",","","","","."
"774.5900000445545","<p style=""color:white;""> Next Figure: Male or Female? </p>","190","html-keyboard-response","470","1201365","0.0-19.0-0.14","prediction","","","",".",""
"null","<div style=""color:white; font-size:60px;"">+</div>","null","html-keyboard-response","471","1202383","0.0-19.0-1.14","fixation","","","","",""
"832.0250000106171","Stimuli/Hangul_M7.bmp","188","image-keyboard-response","472","1203217","0.0-19.0-2.14","c2_test",",","","","",","
"974.6300000115298","<p style=""color:white;""> Next Figure: Male or Female? </p>","188","html-keyboard-response","473","1204196","0.0-19.0-0.15","prediction","","","",",",""
"null","<div style=""color:white; font-size:60px;"">+</div>","null","html-keyboard-response","474","1205207","0.0-19.0-1.15","fixation","","","","",""
"654.1950000100769","Stimuli/Hangul_M1.bmp","188","image-keyboard-response","475","1205864","0.0-19.0-2.15","c2_test",",","","","",","
"670.3399999532849","<p style=""color:white;""> Next Figure: Male or Female? </p>","188","html-keyboard-response","476","1206538","0.0-19.0-0.16","prediction","","","",",",""
"null","<div style=""color:white; font-size:60px;"">+</div>","null","html-keyboard-response","477","1207552","0.0-19.0-1.16","fixation","","","","",""
"862.4050000216812","Stimuli/Hangul_F6.bmp","190","image-keyboard-response","478","1208416","0.0-19.0-2.16","c2_test",".","","","","."
"540.4949999647215","<p style=""color:white;""> Next Figure: Male or Female? </p>","190","html-keyboard-response","479","1208960","0.0-19.0-0.17","prediction","","","",".",""
"null","<div style=""color:white; font-size:60px;"">+</div>","null","html-keyboard-response","480","1209962","0.0-19.0-1.17","fixation","","","","",""
"47.6249999483116","Stimuli/Hangul_F12.bmp","188","image-keyboard-response","481","1210011","0.0-19.0-2.17","c2_test",".","","","",","
"618.819999974221","<p style=""color:white;""> Next Figure: Male or Female? </p>","190","html-keyboard-response","482","1210631","0.0-19.0-0.18","prediction","","","",".",""
"null","<div style=""color:white; font-size:60px;"">+</div>","null","html-keyboard-response","483","1211637","0.0-19.0-1.18","fixation","","","","",""
"249.9299999908544","Stimuli/Hangul_M15.bmp","188","image-keyboard-response","484","1211889","0.0-19.0-2.18","c2_test",",","","","",","
"450.08499996038154","<p style=""color:white;""> Next Figure: Male or Female? </p>","190","html-keyboard-response","485","1212343","0.0-19.0-0.19","prediction","","","",".",""
"null","<div style=""color:white; font-size:60px;"">+</div>","null","html-keyboard-response","486","1213357","0.0-19.0-1.19","fixation","","","","",""
"60.91499998001382","Stimuli/Hangul_F10.bmp","188","image-keyboard-response","487","1213420","0.0-19.0-2.19","c2_test",".","","","",","
"358.48499997518957","<p style=""color:white;""> Next Figure: Male or Female? </p>","188","html-keyboard-response","488","1213780","0.0-19.0-0.20","prediction","","","",",",""
"null","<div style=""color:white; font-size:60px;"">+</div>","null","html-keyboard-response","489","1214794","0.0-19.0-1.20","fixation","","","","",""
"44.79000001447275","Stimuli/Hangul_F22.bmp","190","image-keyboard-response","490","1214840","0.0-19.0-2.20","c2_test",".","","","","."
"331.3849999685772","<p style=""color:white;""> Next Figure: Male or Female? </p>","190","html-keyboard-response","491","1215173","0.0-19.0-0.21","prediction","","","",".",""
"null","<div style=""color:white; font-size:60px;"">+</div>","null","html-keyboard-response","492","1216189","0.0-19.0-1.21","fixation","","","","",""
"168.9699999988079","Stimuli/Hangul_F3.bmp","188","image-keyboard-response","493","1216360","0.0-19.0-2.21","c2_test",".","","","",","
"267.3200000426732","<p style=""color:white;""> Next Figure: Male or Female? </p>","188","html-keyboard-response","494","1216630","0.0-19.0-0.22","prediction","","","",",",""
"null","<div style=""color:white; font-size:60px;"">+</div>","null","html-keyboard-response","495","1217641","0.0-19.0-1.22","fixation","","","","",""
"11.495000042486936","Stimuli/Hangul_M13.bmp","190","image-keyboard-response","496","1217654","0.0-19.0-2.22","c2_test",",","","","","."
"303.16000001039356","<p style=""color:white;""> Next Figure: Male or Female? </p>","188","html-keyboard-response","497","1217959","0.0-19.0-0.23","prediction","","","",",",""
"null","<div style=""color:white; font-size:60px;"">+</div>","null","html-keyboard-response","498","1218962","0.0-19.0-1.23","fixation","","","","",""
"14.460000034887344","Stimuli/Hangul_F19.bmp","188","image-keyboard-response","499","1218978","0.0-19.0-2.23","c2_test",".","","","",","
"479.91500003263354","<p style=""color:white;""> Next Figure: Male or Female? </p>","188","html-keyboard-response","500","1219461","0.0-19.0-0.24","prediction","","","",",",""
"null","<div style=""color:white; font-size:60px;"">+</div>","null","html-keyboard-response","501","1220471","0.0-19.0-1.24","fixation","","","","",""
"643.3850000030361","Stimuli/Hangul_M2.bmp","188","image-keyboard-response","502","1221117","0.0-19.0-2.24","c2_test",",","","","",","
"804.7750000259839","<p style=""color:white;""> Next Figure: Male or Female? </p>","190","html-keyboard-response","503","1221924","0.0-19.0-0.25","prediction","","","",".",""
"null","<div style=""color:white; font-size:60px;"">+</div>","null","html-keyboard-response","504","1222934","0.0-19.0-1.25","fixation","","","","",""
"89.42000003298745","Stimuli/Hangul_M19.bmp","188","image-keyboard-response","505","1223031","0.0-19.0-2.25","c2_test",",","","","",","
"464.6000000066124","<p style=""color:white;""> Next Figure: Male or Female? </p>","188","html-keyboard-response","506","1223498","0.0-19.0-0.26","prediction","","","",",",""
"null","<div style=""color:white; font-size:60px;"">+</div>","null","html-keyboard-response","507","1224503","0.0-19.0-1.26","fixation","","","","",""
"307.12499999208376","Stimuli/Hangul_M18.bmp","188","image-keyboard-response","508","1224813","0.0-19.0-2.26","c2_test",",","","","",","
"386.11000002129003","<p style=""color:white;""> Next Figure: Male or Female? </p>","188","html-keyboard-response","509","1225203","0.0-19.0-0.27","prediction","","","",",",""
"null","<div style=""color:white; font-size:60px;"">+</div>","null","html-keyboard-response","510","1226211","0.0-19.0-1.27","fixation","","","","",""
"272.57999998982996","Stimuli/Hangul_F0.bmp","188","image-keyboard-response","511","1226487","0.0-19.0-2.27","c2_test",".","","","",","
"566.5049999952316","<p style=""color:white;""> Next Figure: Male or Female? </p>","190","html-keyboard-response","512","1227064","0.0-19.0-0.28","prediction","","","",".",""
"null","<div style=""color:white; font-size:60px;"">+</div>","null","html-keyboard-response","513","1228077","0.0-19.0-1.28","fixation","","","","",""
"101.60000005271286","Stimuli/Hangul_F13.bmp","188","image-keyboard-response","514","1228180","0.0-19.0-2.28","c2_test",".","","","",","
"459.1800000052899","<p style=""color:white;""> Next Figure: Male or Female? </p>","188","html-keyboard-response","515","1228641","0.0-19.0-0.29","prediction","","","",",",""
"null","<div style=""color:white; font-size:60px;"">+</div>","null","html-keyboard-response","516","1229652","0.0-19.0-1.29","fixation","","","","",""
"281.16499999305233","Stimuli/Hangul_M14.bmp","188","image-keyboard-response","517","1229935","0.0-19.0-2.29","c2_test",",","","","",","
"395.27999999700114","<p style=""color:white;""> Next Figure: Male or Female? </p>","190","html-keyboard-response","518","1230331","0.0-19.0-0.30","prediction","","","",".",""
"null","<div style=""color:white; font-size:60px;"">+</div>","null","html-keyboard-response","519","1231336","0.0-19.0-1.30","fixation","","","","",""
"31.469999987166375","Stimuli/Hangul_F18.bmp","188","image-keyboard-response","520","1231369","0.0-19.0-2.30","c2_test",".","","","",","
"337.3600000049919","<p style=""color:white;""> Next Figure: Male or Female? </p>","188","html-keyboard-response","521","1231708","0.0-19.0-0.31","prediction","","","",",",""
"null","<div style=""color:white; font-size:60px;"">+</div>","null","html-keyboard-response","522","1232723","0.0-19.0-1.31","fixation","","","","",""
"174.9699999927543","Stimuli/Hangul_F24.bmp","190","image-keyboard-response","523","1232901","0.0-19.0-2.31","c2_test",".","","","","."
"443.8300000037998","<p style=""color:white;""> Next Figure: Male or Female? </p>","190","html-keyboard-response","524","1233348","0.0-19.0-0.32","prediction","","","",".",""
"null","<div style=""color:white; font-size:60px;"">+</div>","null","html-keyboard-response","525","1234355","0.0-19.0-1.32","fixation","","","","",""
"536.7899999837391","Stimuli/Hangul_F9.bmp","188","image-keyboard-response","526","1234894","0.0-19.0-2.32","c2_test",".","","","",","
"603.8399999961257","<p style=""color:white;""> Next Figure: Male or Female? </p>","188","html-keyboard-response","527","1235501","0.0-19.0-0.33","prediction","","","",",",""
"null","<div style=""color:white; font-size:60px;"">+</div>","null","html-keyboard-response","528","1236512","0.0-19.0-1.33","fixation","","","","",""
"256.4600000041537","Stimuli/Hangul_M16.bmp","188","image-keyboard-response","529","1236770","0.0-19.0-2.33","c2_test",",","","","",","
"627.9149999609217","<p style=""color:white;""> Next Figure: Male or Female? </p>","190","html-keyboard-response","530","1237401","0.0-19.0-0.34","prediction","","","",".",""
"null","<div style=""color:white; font-size:60px;"">+</div>","null","html-keyboard-response","531","1238411","0.0-19.0-1.34","fixation","","","","",""
"292.09499998250976","Stimuli/Hangul_M9.bmp","188","image-keyboard-response","532","1238705","0.0-19.0-2.34","c2_test",",","","","",","
"434.43999998271465","<p style=""color:white;""> Next Figure: Male or Female? </p>","188","html-keyboard-response","533","1239143","0.0-19.0-0.35","prediction","","","",",",""
"null","<div style=""color:white; font-size:60px;"">+</div>","null","html-keyboard-response","534","1240145","0.0-19.0-1.35","fixation","","","","",""
"251.57999998191372","Stimuli/Hangul_F5.bmp","190","image-keyboard-response","535","1240399","0.0-19.0-2.35","c2_test",".","","","","."
"371.225000009872","<p style=""color:white;""> Next Figure: Male or Female? </p>","190","html-keyboard-response","536","1240772","0.0-19.0-0.36","prediction","","","",".",""
"null","<div style=""color:white; font-size:60px;"">+</div>","null","html-keyboard-response","537","1241780","0.0-19.0-1.36","fixation","","","","",""
"41.12500004703179","Stimuli/Hangul_F7.bmp","190","image-keyboard-response","538","1241823","0.0-19.0-2.36","c2_test",".","","","","."
"368.3949999976903","<p style=""color:white;""> Next Figure: Male or Female? </p>","190","html-keyboard-response","539","1242194","0.0-19.0-0.37","prediction","","","",".",""
"null","<div style=""color:white; font-size:60px;"">+</div>","null","html-keyboard-response","540","1243209","0.0-19.0-1.37","fixation","","","","",""
"477.9100000159815","Stimuli/Hangul_M12.bmp","190","image-keyboard-response","541","1243689","0.0-19.0-2.37","c2_test",",","","","","."
"364.3799999845214","<p style=""color:white;""> Next Figure: Male or Female? </p>","190","html-keyboard-response","542","1244056","0.0-19.0-0.38","prediction","","","",".",""
"null","<div style=""color:white; font-size:60px;"">+</div>","null","html-keyboard-response","543","1245065","0.0-19.0-1.38","fixation","","","","",""
"275.68500000052154","Stimuli/Hangul_F23.bmp","190","image-keyboard-response","544","1245343","0.0-19.0-2.38","c2_test",".","","","","."
"339.82499997364357","<p style=""color:white;""> Next Figure: Male or Female? </p>","188","html-keyboard-response","545","1245686","0.0-19.0-0.39","prediction","","","",",",""
"null","<div style=""color:white; font-size:60px;"">+</div>","null","html-keyboard-response","546","1246702","0.0-19.0-1.39","fixation","","","","",""
"236.97000002721325","Stimuli/Hangul_M3.bmp","190","image-keyboard-response","547","1246941","0.0-19.0-2.39","c2_test",",","","","","."
"366.38500000117347","<p style=""color:white;""> Next Figure: Male or Female? </p>","190","html-keyboard-response","548","1247311","0.0-19.0-0.40","prediction","","","",".",""
"null","<div style=""color:white; font-size:60px;"">+</div>","null","html-keyboard-response","549","1248322","0.0-19.0-1.40","fixation","","","","",""
"298.1150000123307","Stimuli/Hangul_F2.bmp","188","image-keyboard-response","550","1248622","0.0-19.0-2.40","c2_test",".","","","",","
"394.59500001976267","<p style=""color:white;""> Next Figure: Male or Female? </p>","190","html-keyboard-response","551","1249021","0.0-19.0-0.41","prediction","","","",".",""
"null","<div style=""color:white; font-size:60px;"">+</div>","null","html-keyboard-response","552","1250025","0.0-19.0-1.41","fixation","","","","",""
"335.40999999968335","Stimuli/Hangul_F21.bmp","188","image-keyboard-response","553","1250362","0.0-19.0-2.41","c2_test",".","","","",","
"311.6300000110641","<p style=""color:white;""> Next Figure: Male or Female? </p>","188","html-keyboard-response","554","1250675","0.0-19.0-0.42","prediction","","","",",",""
"null","<div style=""color:white; font-size:60px;"">+</div>","null","html-keyboard-response","555","1251681","0.0-19.0-1.42","fixation","","","","",""
"240.894999995362","Stimuli/Hangul_F14.bmp","188","image-keyboard-response","556","1251924","0.0-19.0-2.42","c2_test",".","","","",","
"418.1899999966845","<p style=""color:white;""> Next Figure: Male or Female? </p>","190","html-keyboard-response","557","1252344","0.0-19.0-0.43","prediction","","","",".",""
"null","<div style=""color:white; font-size:60px;"">+</div>","null","html-keyboard-response","558","1253348","0.0-19.0-1.43","fixation","","","","",""
"115.01000000862405","Stimuli/Hangul_F15.bmp","188","image-keyboard-response","559","1253465","0.0-19.0-2.43","c2_test",".","","","",","
"308.78999998094514","<p style=""color:white;""> Next Figure: Male or Female? </p>","188","html-keyboard-response","560","1253777","0.0-19.0-0.44","prediction","","","",",",""
"null","<div style=""color:white; font-size:60px;"">+</div>","null","html-keyboard-response","561","1254790","0.0-19.0-1.44","fixation","","","","",""
"160.88999999919906","Stimuli/Hangul_M8.bmp","190","image-keyboard-response","562","1254953","0.0-19.0-2.44","c2_test",",","","","","."
"274.1200000164099","<p style=""color:white;""> Next Figure: Male or Female? </p>","190","html-keyboard-response","563","1255228","0.0-19.0-0.45","prediction","","","",".",""
"null","<div style=""color:white; font-size:60px;"">+</div>","null","html-keyboard-response","564","1256234","0.0-19.0-1.45","fixation","","","","",""
"184.28500002482906","Stimuli/Hangul_F17.bmp","190","image-keyboard-response","565","1256420","0.0-19.0-2.45","c2_test",".","","","","."
"327.7349999989383","<p style=""color:white;""> Next Figure: Male or Female? </p>","190","html-keyboard-response","566","1256751","0.0-19.0-0.46","prediction","","","",".",""
"null","<div style=""color:white; font-size:60px;"">+</div>","null","html-keyboard-response","567","1257768","0.0-19.0-1.46","fixation","","","","",""
"218.410000030417","Stimuli/Hangul_F11.bmp","188","image-keyboard-response","568","1257989","0.0-19.0-2.46","c2_test",".","","","",","
"283.18500000750646","<p style=""color:white;""> Next Figure: Male or Female? </p>","190","html-keyboard-response","569","1258275","0.0-19.0-0.47","prediction","","","",".",""
"null","<div style=""color:white; font-size:60px;"">+</div>","null","html-keyboard-response","570","1259286","0.0-19.0-1.47","fixation","","","","",""
"8.295000006910414","Stimuli/Hangul_F1.bmp","190","image-keyboard-response","571","1259296","0.0-19.0-2.47","c2_test",".","","","","."
"288.81499997805804","<p style=""color:white;""> Next Figure: Male or Female? </p>","188","html-keyboard-response","572","1259589","0.0-19.0-0.48","prediction","","","",",",""
"null","<div style=""color:white; font-size:60px;"">+</div>","null","html-keyboard-response","573","1260600","0.0-19.0-1.48","fixation","","","","",""
"700.635000015609","Stimuli/Hangul_F20.bmp","188","image-keyboard-response","574","1261303","0.0-19.0-2.48","c2_test",".","","","",","
"1242.9949999786913","<p style=""color:white;""> Next Figure: Male or Female? </p>","188","html-keyboard-response","575","1262550","0.0-19.0-0.49","prediction","","","",",",""
"null","<div style=""color:white; font-size:60px;"">+</div>","null","html-keyboard-response","576","1263561","0.0-19.0-1.49","fixation","","","","",""
"474.6100000338629","Stimuli/Hangul_M20.bmp","188","image-keyboard-response","577","1264040","0.0-19.0-2.49","c2_test",",","","","",","
"888415.469999949","<p style=""color:white;"">Good job, block 1 complete! Please take a moment to rest.</p> <p style=""color:white;"">When you are ready to continue with block 2 of 4, press the space bar.</p> ","32","html-keyboard-response","578","2152470","0.0-20.0","","","","","",""
"477.4850000394508","<p style=""color:white;""> Next Figure: Male or Female? </p>","188","html-keyboard-response","579","2154959","0.0-21.0-0.0","prediction","","","",",",""
"null","<div style=""color:white; font-size:60px;"">+</div>","null","html-keyboard-response","580","2155961","0.0-21.0-1.0","fixation","","","","",""
"1960.7649999670684","Stimuli/Hangul_M43.bmp","188","image-keyboard-response","581","2157924","0.0-21.0-2.0","c2_test",",","","","",","
"3213.1500000250526","<p style=""color:white;""> Next Figure: Male or Female? </p>","190","html-keyboard-response","582","2161140","0.0-21.0-0.1","prediction","","","",".",""
"null","<div style=""color:white; font-size:60px;"">+</div>","null","html-keyboard-response","583","2162144","0.0-21.0-1.1","fixation","","","","",""
"1575.7400000002235","Stimuli/Hangul_F47.bmp","190","image-keyboard-response","584","2163722","0.0-21.0-2.1","c2_test",".","","","","."
"2900.084999972023","<p style=""color:white;""> Next Figure: Male or Female? </p>","188","html-keyboard-response","585","2166624","0.0-21.0-0.2","prediction","","","",",",""
"null","<div style=""color:white; font-size:60px;"">+</div>","null","html-keyboard-response","586","2167627","0.0-21.0-1.2","fixation","","","","",""
"842.9550000000745","Stimuli/Hangul_F37.bmp","188","image-keyboard-response","587","2168474","0.0-21.0-2.2","c2_test",".","","","",","
"2449.1450000205077","<p style=""color:white;""> Next Figure: Male or Female? </p>","190","html-keyboard-response","588","2170926","0.0-21.0-0.3","prediction","","","",".",""
"null","<div style=""color:white; font-size:60px;"">+</div>","null","html-keyboard-response","589","2171930","0.0-21.0-1.3","fixation","","","","",""
"540.3700000024401","Stimuli/Hangul_F27.bmp","190","image-keyboard-response","590","2172474","0.0-21.0-2.3","c2_test",".","","","","."
"2228.155000018887","<p style=""color:white;""> Next Figure: Male or Female? </p>","188","html-keyboard-response","591","2174707","0.0-21.0-0.4","prediction","","","",",",""
"null","<div style=""color:white; font-size:60px;"">+</div>","null","html-keyboard-response","592","2175714","0.0-21.0-1.4","fixation","","","","",""
"632.3900000425056","Stimuli/Hangul_M35.bmp","188","image-keyboard-response","593","2176349","0.0-21.0-2.4","c2_test",",","","","",","
"2004.949999973178","<p style=""color:white;""> Next Figure: Male or Female? </p>","190","html-keyboard-response","594","2178357","0.0-21.0-0.5","prediction","","","",".",""
"null","<div style=""color:white; font-size:60px;"">+</div>","null","html-keyboard-response","595","2179373","0.0-21.0-1.5","fixation","","","","",""
"587.3699999647215","Stimuli/Hangul_M47.bmp","190","image-keyboard-response","596","2179964","0.0-21.0-2.5","c2_test",",","","","","."
"1874.0100000286475","<p style=""color:white;""> Next Figure: Male or Female? </p>","190","html-keyboard-response","597","2181841","0.0-21.0-0.6","prediction","","","",".",""
"null","<div style=""color:white; font-size:60px;"">+</div>","null","html-keyboard-response","598","2182849","0.0-21.0-1.6","fixation","","","","",""
"37.275000009685755","Stimuli/Hangul_F39.bmp","190","image-keyboard-response","599","2182889","0.0-21.0-2.6","c2_test",".","","","","."
"1121.9949999940582","<p style=""color:white;""> Next Figure: Male or Female? </p>","188","html-keyboard-response","600","2184013","0.0-21.0-0.7","prediction","","","",",",""
"null","<div style=""color:white; font-size:60px;"">+</div>","null","html-keyboard-response","601","2185027","0.0-21.0-1.7","fixation","","","","",""
"72.34499999321997","Stimuli/Hangul_M33.bmp","190","image-keyboard-response","602","2185103","0.0-21.0-2.7","c2_test",",","","","","."
"790.0399999925867","<p style=""color:white;""> Next Figure: Male or Female? </p>","188","html-keyboard-response","603","2185894","0.0-21.0-0.8","prediction","","","",",",""
"null","<div style=""color:white; font-size:60px;"">+</div>","null","html-keyboard-response","604","2186903","0.0-21.0-1.8","fixation","","","","",""
"460.1700000348501","Stimuli/Hangul_F26.bmp","188","image-keyboard-response","605","2187364","0.0-21.0-2.8","c2_test",".","","","",","
"750.89999998454","<p style=""color:white;""> Next Figure: Male or Female? </p>","188","html-keyboard-response","606","2188116","0.0-21.0-0.9","prediction","","","",",",""
"null","<div style=""color:white; font-size:60px;"">+</div>","null","html-keyboard-response","607","2189127","0.0-21.0-1.9","fixation","","","","",""
"129.3450000230223","Stimuli/Hangul_M44.bmp","190","image-keyboard-response","608","2189258","0.0-21.0-2.9","c2_test",",","","","","."
"636.545000015758","<p style=""color:white;""> Next Figure: Male or Female? </p>","190","html-keyboard-response","609","2189895","0.0-21.0-0.10","prediction","","","",".",""
"null","<div style=""color:white; font-size:60px;"">+</div>","null","html-keyboard-response","610","2190902","0.0-21.0-1.10","fixation","","","","",""
"623.8850000081584","Stimuli/Hangul_F44.bmp","188","image-keyboard-response","611","2191527","0.0-21.0-2.10","c2_test",".","","","",","
"294.3849999574013","<p style=""color:white;""> Next Figure: Male or Female? </p>","190","html-keyboard-response","612","2191823","0.0-21.0-0.11","prediction","","","",".",""
"null","<div style=""color:white; font-size:60px;"">+</div>","null","html-keyboard-response","613","2192840","0.0-21.0-1.11","fixation","","","","",""
"201.98499999241903","Stimuli/Hangul_M48.bmp","190","image-keyboard-response","614","2193044","0.0-21.0-2.11","c2_test",",","","","","."
"502.5550000136718","<p style=""color:white;""> Next Figure: Male or Female? </p>","190","html-keyboard-response","615","2193550","0.0-21.0-0.12","prediction","","","",".",""
"null","<div style=""color:white; font-size:60px;"">+</div>","null","html-keyboard-response","616","2194561","0.0-21.0-1.12","fixation","","","","",""
"36.59000003244728","Stimuli/Hangul_M28.bmp","190","image-keyboard-response","617","2194601","0.0-21.0-2.12","c2_test",",","","","","."
"534.0800000121817","<p style=""color:white;""> Next Figure: Male or Female? </p>","190","html-keyboard-response","618","2195136","0.0-21.0-0.13","prediction","","","",".",""
"null","<div style=""color:white; font-size:60px;"">+</div>","null","html-keyboard-response","619","2196153","0.0-21.0-1.13","fixation","","","","",""
"524.8099999735132","Stimuli/Hangul_M27.bmp","188","image-keyboard-response","620","2196680","0.0-21.0-2.13","c2_test",",","","","",","
"502.6450000004843","<p style=""color:white;""> Next Figure: Male or Female? </p>","190","html-keyboard-response","621","2197184","0.0-21.0-0.14","prediction","","","",".",""
"null","<div style=""color:white; font-size:60px;"">+</div>","null","html-keyboard-response","622","2198197","0.0-21.0-1.14","fixation","","","","",""
"480.8100000373088","Stimuli/Hangul_F28.bmp","190","image-keyboard-response","623","2198681","0.0-21.0-2.14","c2_test",".","","","","."
"537.3999999719672","<p style=""color:white;""> Next Figure: Male or Female? </p>","188","html-keyboard-response","624","2199222","0.0-21.0-0.15","prediction","","","",",",""
"null","<div style=""color:white; font-size:60px;"">+</div>","null","html-keyboard-response","625","2200227","0.0-21.0-1.15","fixation","","","","",""
"499.8949999571778","Stimuli/Hangul_F32.bmp","188","image-keyboard-response","626","2200728","0.0-21.0-2.15","c2_test",".","","","",","
"431.40000000130385","<p style=""color:white;""> Next Figure: Male or Female? </p>","190","html-keyboard-response","627","2201163","0.0-21.0-0.16","prediction","","","",".",""
"null","<div style=""color:white; font-size:60px;"">+</div>","null","html-keyboard-response","628","2202169","0.0-21.0-1.16","fixation","","","","",""
"379.9049999797717","Stimuli/Hangul_F36.bmp","188","image-keyboard-response","629","2202553","0.0-21.0-2.16","c2_test",".","","","",","
"459.03499994892627","<p style=""color:white;""> Next Figure: Male or Female? </p>","190","html-keyboard-response","630","2203016","0.0-21.0-0.17","prediction","","","",".",""
"null","<div style=""color:white; font-size:60px;"">+</div>","null","html-keyboard-response","631","2204036","0.0-21.0-1.17","fixation","","","","",""
"394.1600000252947","Stimuli/Hangul_F25.bmp","190","image-keyboard-response","632","2204438","0.0-21.0-2.17","c2_test",".","","","","."
"496.37500004610047","<p style=""color:white;""> Next Figure: Male or Female? </p>","190","html-keyboard-response","633","2204937","0.0-21.0-0.18","prediction","","","",".",""
"null","<div style=""color:white; font-size:60px;"">+</div>","null","html-keyboard-response","634","2205940","0.0-21.0-1.18","fixation","","","","",""
"378.89000005088747","Stimuli/Hangul_M30.bmp","190","image-keyboard-response","635","2206320","0.0-21.0-2.18","c2_test",",","","","","."
"465.2099999948405","<p style=""color:white;""> Next Figure: Male or Female? </p>","190","html-keyboard-response","636","2206788","0.0-21.0-0.19","prediction","","","",".",""
"null","<div style=""color:white; font-size:60px;"">+</div>","null","html-keyboard-response","637","2207794","0.0-21.0-1.19","fixation","","","","",""
"269.54499998828396","Stimuli/Hangul_F33.bmp","188","image-keyboard-response","638","2208066","0.0-21.0-2.19","c2_test",".","","","",","
"466.4450000273064","<p style=""color:white;""> Next Figure: Male or Female? </p>","188","html-keyboard-response","639","2208534","0.0-21.0-0.20","prediction","","","",",",""
"null","<div style=""color:white; font-size:60px;"">+</div>","null","html-keyboard-response","640","2209541","0.0-21.0-1.20","fixation","","","","",""
"91.32499998668209","Stimuli/Hangul_F31.bmp","190","image-keyboard-response","641","2209635","0.0-21.0-2.20","c2_test",".","","","","."
"462.1249999618158","<p style=""color:white;""> Next Figure: Male or Female? </p>","188","html-keyboard-response","642","2210099","0.0-21.0-0.21","prediction","","","",",",""
"null","<div style=""color:white; font-size:60px;"">+</div>","null","html-keyboard-response","643","2211104","0.0-21.0-1.21","fixation","","","","",""
"259.00000002002344","Stimuli/Hangul_F40.bmp","190","image-keyboard-response","644","2211365","0.0-21.0-2.21","c2_test",".","","","","."
"388.1399999954738","<p style=""color:white;""> Next Figure: Male or Female? </p>","190","html-keyboard-response","645","2211757","0.0-21.0-0.22","prediction","","","",".",""
"null","<div style=""color:white; font-size:60px;"">+</div>","null","html-keyboard-response","646","2212770","0.0-21.0-1.22","fixation","","","","",""
"134.78000002214685","Stimuli/Hangul_F34.bmp","190","image-keyboard-response","647","2212907","0.0-21.0-2.22","c2_test",".","","","","."
"415.78499996103346","<p style=""color:white;""> Next Figure: Male or Female? </p>","190","html-keyboard-response","648","2213326","0.0-21.0-0.23","prediction","","","",".",""
"null","<div style=""color:white; font-size:60px;"">+</div>","null","html-keyboard-response","649","2214337","0.0-21.0-1.23","fixation","","","","",""
"54.59000001428649","Stimuli/Hangul_F42.bmp","190","image-keyboard-response","650","2214394","0.0-21.0-2.23","c2_test",".","","","","."
"389.0400000382215","<p style=""color:white;""> Next Figure: Male or Female? </p>","188","html-keyboard-response","651","2214785","0.0-21.0-0.24","prediction","","","",",",""
"null","<div style=""color:white; font-size:60px;"">+</div>","null","html-keyboard-response","652","2215792","0.0-21.0-1.24","fixation","","","","",""
"844.3300000508316","Stimuli/Hangul_M32.bmp","190","image-keyboard-response","653","2216638","0.0-21.0-2.24","c2_test",",","","","","."
"394.15499998722225","<p style=""color:white;""> Next Figure: Male or Female? </p>","188","html-keyboard-response","654","2217035","0.0-21.0-0.25","prediction","","","",",",""
"null","<div style=""color:white; font-size:60px;"">+</div>","null","html-keyboard-response","655","2218046","0.0-21.0-1.25","fixation","","","","",""
