"rt","stimulus","key_press","trial_type","trial_index","time_elapsed","internal_node_id","test_part","correct_response","C1_train","C1","A","C2"
"1585.8450001105666","<p style=""color:white;"">Welcome to the experiment! Press any key to begin.</p>","32","html-keyboard-response","0","1595","0.0-0.0","","","","","",""
"28894.49500013143","<p style=""color:white;"">You will see a series of abstract figures. They are adaptations of signs in the Korean alphabet, but that is not important for this study. </p><p style=""color:white;"">Abstract figures sometimes have a more masculine or feminine shape. Here, each figure has already been assigned a gender as <q>Male</q> or <q>Female</q> by a panel of respondents in a pilot study. The respondents were not given specific instructions on how to do this, but were only told to use their intuition and to take into account the entire configuration of the stimulus. </p><p style=""color:white;"">Your task now is to guess the assigned gender of each figure. Please press the corresponding response keys to indicate your choice: </p><p style=""color:white;""> Male &#8594 <q>,</q> (comma)</p><p style=""color:white;""> Female &#8594 <q>.</q> (period)</p><p style=""color:white;"">Press either response keys to continue.</p>","188","html-keyboard-response","1","30491","0.0-1.0","","","","","",""
"15477.539999876171","<p style=""color:white;"">Your choice is correct if it matches the gender assigned by the majority of respondents in the pilot study.</p> <p style=""color:white;"">For each correct choice you will receive 2 cents. There will be 200 trials divided into 4 blocks of 50 trials. You will be able to take a break after every 50 trials.</p> <p style=""color:white;"">Press the space bar to continue.</p>","32","html-keyboard-response","2","45969","0.0-2.0","","","","","",""
"3455.2350002340972","<p style=""color:white;"">Here are some examples.</p> <p style=""color:white;"">For each, guess whether the assigned figure is male-like or female-like and indicate your choice by pressing either response keys.</p> <p style=""color:white;"">Press the space bar to continue.</p>","32","html-keyboard-response","3","49425","0.0-3.0","","","","","",""
"null","<div style=""color:white; font-size:60px;"">+</div>","null","html-keyboard-response","4","52429","0.0-4.0-0.0","fixation","","","","",""
"2490.999999921769","Stimuli/Hangul_E0.bmp","188","image-keyboard-response","5","54921","0.0-4.0-1.0","c1_train",",",",","","",""
"null","<div style=""color:white; font-size:60px;"">+</div>","null","html-keyboard-response","6","55923","0.0-4.0-0.1","fixation","","","","",""
"1869.8950000107288","Stimuli/Hangul_E1.bmp","188","image-keyboard-response","7","57794","0.0-4.0-1.1","c1_train",",",",","","",""
"null","<div style=""color:white; font-size:60px;"">+</div>","null","html-keyboard-response","8","58795","0.0-4.0-0.2","fixation","","","","",""
"1365.0750000961125","Stimuli/Hangul_E2.bmp","190","image-keyboard-response","9","60161","0.0-4.0-1.2","c1_train",".",".","","",""
"2022.8650001809","<p style=""color:white;"">Let us begin! Press the space bar when you are ready to start block 1 of 4.</p> ","32","html-keyboard-response","10","62185","0.0-5.0","","","","","",""
"null","<div style=""color:white; font-size:60px;"">+</div>","null","html-keyboard-response","11","65188","0.0-6.0-0.0","fixation","","","","",""
"1916.0150000825524","Stimuli/Hangul_F9.bmp","190","image-keyboard-response","12","67105","0.0-6.0-1.0","test",".","",".","",""
"null","<div style=""color:white; font-size:60px;"">+</div>","null","html-keyboard-response","13","68107","0.0-6.0-0.1","fixation","","","","",""
"1997.9650001041591","Stimuli/Hangul_M0.bmp","188","image-keyboard-response","14","70106","0.0-6.0-1.1","test",",","",",","",""
"null","<div style=""color:white; font-size:60px;"">+</div>","null","html-keyboard-response","15","71107","0.0-6.0-0.2","fixation","","","","",""
"2461.6700001060963","Stimuli/Hangul_M1.bmp","188","image-keyboard-response","16","73569","0.0-6.0-1.2","test",",","",",","",""
"null","<div style=""color:white; font-size:60px;"">+</div>","null","html-keyboard-response","17","74571","0.0-6.0-0.3","fixation","","","","",""
"2517.5550002604723","Stimuli/Hangul_M23.bmp","188","image-keyboard-response","18","77089","0.0-6.0-1.3","test",",","",",","",""
"null","<div style=""color:white; font-size:60px;"">+</div>","null","html-keyboard-response","19","78091","0.0-6.0-0.4","fixation","","","","",""
"2037.3249999247491","Stimuli/Hangul_F11.bmp","190","image-keyboard-response","20","80130","0.0-6.0-1.4","test",".","",".","",""
"null","<div style=""color:white; font-size:60px;"">+</div>","null","html-keyboard-response","21","81132","0.0-6.0-0.5","fixation","","","","",""
"2028.8900001905859","Stimuli/Hangul_M6.bmp","190","image-keyboard-response","22","83161","0.0-6.0-1.5","test",",","",".","",""
"null","<div style=""color:white; font-size:60px;"">+</div>","null","html-keyboard-response","23","84163","0.0-6.0-0.6","fixation","","","","",""
"1708.8599996641278","Stimuli/Hangul_M13.bmp","190","image-keyboard-response","24","85873","0.0-6.0-1.6","test",",","",".","",""
"null","<div style=""color:white; font-size:60px;"">+</div>","null","html-keyboard-response","25","86877","0.0-6.0-0.7","fixation","","","","",""
"1467.6449997350574","Stimuli/Hangul_F7.bmp","188","image-keyboard-response","26","88345","0.0-6.0-1.7","test",".","",",","",""
"null","<div style=""color:white; font-size:60px;"">+</div>","null","html-keyboard-response","27","89347","0.0-6.0-0.8","fixation","","","","",""
"1557.9300001263618","Stimuli/Hangul_M11.bmp","188","image-keyboard-response","28","90906","0.0-6.0-1.8","test",",","",",","",""
"null","<div style=""color:white; font-size:60px;"">+</div>","null","html-keyboard-response","29","91907","0.0-6.0-0.9","fixation","","","","",""
"2052.170000039041","Stimuli/Hangul_M17.bmp","190","image-keyboard-response","30","93961","0.0-6.0-1.9","test",",","",".","",""
"null","<div style=""color:white; font-size:60px;"">+</div>","null","html-keyboard-response","31","94962","0.0-6.0-0.10","fixation","","","","",""
"2125.9999996982515","Stimuli/Hangul_F22.bmp","188","image-keyboard-response","32","97089","0.0-6.0-1.10","test",".","",",","",""
"null","<div style=""color:white; font-size:60px;"">+</div>","null","html-keyboard-response","33","98091","0.0-6.0-0.11","fixation","","","","",""
"1756.790000014007","Stimuli/Hangul_F14.bmp","188","image-keyboard-response","34","99849","0.0-6.0-1.11","test",".","",",","",""
"null","<div style=""color:white; font-size:60px;"">+</div>","null","html-keyboard-response","35","100851","0.0-6.0-0.12","fixation","","","","",""
"2206.0100003145635","Stimuli/Hangul_M22.bmp","190","image-keyboard-response","36","103058","0.0-6.0-1.12","test",",","",".","",""
"null","<div style=""color:white; font-size:60px;"">+</div>","null","html-keyboard-response","37","104060","0.0-6.0-0.13","fixation","","","","",""
"2715.7899998128414","Stimuli/Hangul_M2.bmp","190","image-keyboard-response","38","106778","0.0-6.0-1.13","test",",","",".","",""
"null","<div style=""color:white; font-size:60px;"">+</div>","null","html-keyboard-response","39","107780","0.0-6.0-0.14","fixation","","","","",""
"2436.8149996735156","Stimuli/Hangul_F1.bmp","190","image-keyboard-response","40","110218","0.0-6.0-1.14","test",".","",".","",""
"null","<div style=""color:white; font-size:60px;"">+</div>","null","html-keyboard-response","41","111219","0.0-6.0-0.15","fixation","","","","",""
"1333.6350000463426","Stimuli/Hangul_M10.bmp","188","image-keyboard-response","42","112554","0.0-6.0-1.15","test",",","",",","",""
"null","<div style=""color:white; font-size:60px;"">+</div>","null","html-keyboard-response","43","113555","0.0-6.0-0.16","fixation","","","","",""
"1790.1249998249114","Stimuli/Hangul_F0.bmp","188","image-keyboard-response","44","115346","0.0-6.0-1.16","test",".","",",","",""
"null","<div style=""color:white; font-size:60px;"">+</div>","null","html-keyboard-response","45","116348","0.0-6.0-0.17","fixation","","","","",""
"1804.7800003550947","Stimuli/Hangul_M20.bmp","188","image-keyboard-response","46","118154","0.0-6.0-1.17","test",",","",",","",""
"null","<div style=""color:white; font-size:60px;"">+</div>","null","html-keyboard-response","47","119156","0.0-6.0-0.18","fixation","","","","",""
"1493.379999883473","Stimuli/Hangul_F21.bmp","190","image-keyboard-response","48","120650","0.0-6.0-1.18","test",".","",".","",""
"null","<div style=""color:white; font-size:60px;"">+</div>","null","html-keyboard-response","49","121651","0.0-6.0-0.19","fixation","","","","",""
"1708.9200001209974","Stimuli/Hangul_M16.bmp","188","image-keyboard-response","50","123362","0.0-6.0-1.19","test",",","",",","",""
"null","<div style=""color:white; font-size:60px;"">+</div>","null","html-keyboard-response","51","124363","0.0-6.0-0.20","fixation","","","","",""
"2871.2850003503263","Stimuli/Hangul_F17.bmp","188","image-keyboard-response","52","127235","0.0-6.0-1.20","test",".","",",","",""
"null","<div style=""color:white; font-size:60px;"">+</div>","null","html-keyboard-response","53","128236","0.0-6.0-0.21","fixation","","","","",""
"2180.964999832213","Stimuli/Hangul_F16.bmp","190","image-keyboard-response","54","130418","0.0-6.0-1.21","test",".","",".","",""
"null","<div style=""color:white; font-size:60px;"">+</div>","null","html-keyboard-response","55","131420","0.0-6.0-0.22","fixation","","","","",""
"1797.054999973625","Stimuli/Hangul_F23.bmp","190","image-keyboard-response","56","133218","0.0-6.0-1.22","test",".","",".","",""
"null","<div style=""color:white; font-size:60px;"">+</div>","null","html-keyboard-response","57","134220","0.0-6.0-0.23","fixation","","","","",""
"1516.3449998944998","Stimuli/Hangul_F6.bmp","188","image-keyboard-response","58","135738","0.0-6.0-1.23","test",".","",",","",""
"null","<div style=""color:white; font-size:60px;"">+</div>","null","html-keyboard-response","59","136739","0.0-6.0-0.24","fixation","","","","",""
"1862.3799998313189","Stimuli/Hangul_F8.bmp","190","image-keyboard-response","60","138602","0.0-6.0-1.24","test",".","",".","",""
"null","<div style=""color:white; font-size:60px;"">+</div>","null","html-keyboard-response","61","139604","0.0-6.0-0.25","fixation","","","","",""
"2085.6600003317","Stimuli/Hangul_F24.bmp","190","image-keyboard-response","62","141690","0.0-6.0-1.25","test",".","",".","",""
"null","<div style=""color:white; font-size:60px;"">+</div>","null","html-keyboard-response","63","142693","0.0-6.0-0.26","fixation","","","","",""
"1524.364999961108","Stimuli/Hangul_F13.bmp","188","image-keyboard-response","64","144218","0.0-6.0-1.26","test",".","",",","",""
"null","<div style=""color:white; font-size:60px;"">+</div>","null","html-keyboard-response","65","145220","0.0-6.0-0.27","fixation","","","","",""
"1693.1799999438226","Stimuli/Hangul_M3.bmp","188","image-keyboard-response","66","146914","0.0-6.0-1.27","test",",","",",","",""
"null","<div style=""color:white; font-size:60px;"">+</div>","null","html-keyboard-response","67","147916","0.0-6.0-0.28","fixation","","","","",""
"2029.3900002725422","Stimuli/Hangul_M8.bmp","188","image-keyboard-response","68","149946","0.0-6.0-1.28","test",",","",",","",""
"null","<div style=""color:white; font-size:60px;"">+</div>","null","html-keyboard-response","69","150949","0.0-6.0-0.29","fixation","","","","",""
"1580.2099998109043","Stimuli/Hangul_F10.bmp","190","image-keyboard-response","70","152530","0.0-6.0-1.29","test",".","",".","",""
"null","<div style=""color:white; font-size:60px;"">+</div>","null","html-keyboard-response","71","153531","0.0-6.0-0.30","fixation","","","","",""
"2221.3400001637638","Stimuli/Hangul_M19.bmp","190","image-keyboard-response","72","155754","0.0-6.0-1.30","test",",","",".","",""
"null","<div style=""color:white; font-size:60px;"">+</div>","null","html-keyboard-response","73","156755","0.0-6.0-0.31","fixation","","","","",""
"2869.9050000868738","Stimuli/Hangul_M12.bmp","188","image-keyboard-response","74","159626","0.0-6.0-1.31","test",",","",",","",""
"null","<div style=""color:white; font-size:60px;"">+</div>","null","html-keyboard-response","75","160628","0.0-6.0-0.32","fixation","","","","",""
"1805.0750000402331","Stimuli/Hangul_M4.bmp","188","image-keyboard-response","76","162434","0.0-6.0-1.32","test",",","",",","",""
"null","<div style=""color:white; font-size:60px;"">+</div>","null","html-keyboard-response","77","163436","0.0-6.0-0.33","fixation","","","","",""
"2204.820000100881","Stimuli/Hangul_M15.bmp","188","image-keyboard-response","78","165642","0.0-6.0-1.33","test",",","",",","",""
"null","<div style=""color:white; font-size:60px;"">+</div>","null","html-keyboard-response","79","166644","0.0-6.0-0.34","fixation","","","","",""
"1756.6100000403821","Stimuli/Hangul_M7.bmp","188","image-keyboard-response","80","168402","0.0-6.0-1.34","test",",","",",","",""
"null","<div style=""color:white; font-size:60px;"">+</div>","null","html-keyboard-response","81","169403","0.0-6.0-0.35","fixation","","","","",""
"1334.2249998822808","Stimuli/Hangul_F18.bmp","190","image-keyboard-response","82","170738","0.0-6.0-1.35","test",".","",".","",""
"null","<div style=""color:white; font-size:60px;"">+</div>","null","html-keyboard-response","83","171740","0.0-6.0-0.36","fixation","","","","",""
"1565.3349999338388","Stimuli/Hangul_M14.bmp","188","image-keyboard-response","84","173307","0.0-6.0-1.36","test",",","",",","",""
"null","<div style=""color:white; font-size:60px;"">+</div>","null","html-keyboard-response","85","174308","0.0-6.0-0.37","fixation","","","","",""
"1669.250000268221","Stimuli/Hangul_F3.bmp","188","image-keyboard-response","86","175978","0.0-6.0-1.37","test",".","",",","",""
"null","<div style=""color:white; font-size:60px;"">+</div>","null","html-keyboard-response","87","176981","0.0-6.0-0.38","fixation","","","","",""
"1820.7649998366833","Stimuli/Hangul_M24.bmp","188","image-keyboard-response","88","178802","0.0-6.0-1.38","test",",","",",","",""
"null","<div style=""color:white; font-size:60px;"">+</div>","null","html-keyboard-response","89","179803","0.0-6.0-0.39","fixation","","","","",""
"1693.7500000931323","Stimuli/Hangul_F19.bmp","188","image-keyboard-response","90","181498","0.0-6.0-1.39","test",".","",",","",""
"null","<div style=""color:white; font-size:60px;"">+</div>","null","html-keyboard-response","91","182499","0.0-6.0-0.40","fixation","","","","",""
"2046.7349998652935","Stimuli/Hangul_M9.bmp","188","image-keyboard-response","92","184547","0.0-6.0-1.40","test",",","",",","",""
"null","<div style=""color:white; font-size:60px;"">+</div>","null","html-keyboard-response","93","185548","0.0-6.0-0.41","fixation","","","","",""
"1677.3299998603761","Stimuli/Hangul_M5.bmp","188","image-keyboard-response","94","187226","0.0-6.0-1.41","test",",","",",","",""
"null","<div style=""color:white; font-size:60px;"">+</div>","null","html-keyboard-response","95","188228","0.0-6.0-0.42","fixation","","","","",""
"1748.7999997101724","Stimuli/Hangul_F2.bmp","190","image-keyboard-response","96","189978","0.0-6.0-1.42","test",".","",".","",""
"null","<div style=""color:white; font-size:60px;"">+</div>","null","html-keyboard-response","97","190980","0.0-6.0-0.43","fixation","","","","",""
"1500.9999996982515","Stimuli/Hangul_F4.bmp","190","image-keyboard-response","98","192482","0.0-6.0-1.43","test",".","",".","",""
"null","<div style=""color:white; font-size:60px;"">+</div>","null","html-keyboard-response","99","193484","0.0-6.0-0.44","fixation","","","","",""
"1558.085000142455","Stimuli/Hangul_F5.bmp","188","image-keyboard-response","100","195043","0.0-6.0-1.44","test",".","",",","",""
"null","<div style=""color:white; font-size:60px;"">+</div>","null","html-keyboard-response","101","196046","0.0-6.0-0.45","fixation","","","","",""
"1467.365000396967","Stimuli/Hangul_M18.bmp","188","image-keyboard-response","102","197514","0.0-6.0-1.45","test",",","",",","",""
"null","<div style=""color:white; font-size:60px;"">+</div>","null","html-keyboard-response","103","198515","0.0-6.0-0.46","fixation","","","","",""
"1894.3199999630451","Stimuli/Hangul_F12.bmp","190","image-keyboard-response","104","200410","0.0-6.0-1.46","test",".","",".","",""
"null","<div style=""color:white; font-size:60px;"">+</div>","null","html-keyboard-response","105","201412","0.0-6.0-0.47","fixation","","","","",""
"2165.4799999669194","Stimuli/Hangul_F15.bmp","190","image-keyboard-response","106","203578","0.0-6.0-1.47","test",".","",".","",""
"null","<div style=""color:white; font-size:60px;"">+</div>","null","html-keyboard-response","107","204580","0.0-6.0-0.48","fixation","","","","",""
"1901.3099996373057","Stimuli/Hangul_F20.bmp","188","image-keyboard-response","108","206482","0.0-6.0-1.48","test",".","",",","",""
"null","<div style=""color:white; font-size:60px;"">+</div>","null","html-keyboard-response","109","207484","0.0-6.0-0.49","fixation","","","","",""
"1588.8649998232722","Stimuli/Hangul_M21.bmp","188","image-keyboard-response","110","209074","0.0-6.0-1.49","test",",","",",","",""
"2053.2250003889203","<p style=""color:white;"">Good job, block 1 complete! Please take a moment to rest.</p> <p style=""color:white;"">When you are ready to continue with block 2 of 4, press the space bar.</p> ","32","html-keyboard-response","111","211130","0.0-7.0","","","","","",""
"null","<div style=""color:white; font-size:60px;"">+</div>","null","html-keyboard-response","112","214133","0.0-8.0-0.0","fixation","","","","",""
"1547.600000165403","Stimuli/Hangul_M47.bmp","188","image-keyboard-response","113","215682","0.0-8.0-1.0","test",",","",",","",""
"null","<div style=""color:white; font-size:60px;"">+</div>","null","html-keyboard-response","114","216684","0.0-8.0-0.1","fixation","","","","",""
"1582.1450003422797","Stimuli/Hangul_M41.bmp","190","image-keyboard-response","115","218267","0.0-8.0-1.1","test",",","",".","",""
"null","<div style=""color:white; font-size:60px;"">+</div>","null","html-keyboard-response","116","219267","0.0-8.0-0.2","fixation","","","","",""
"1645.744999870658","Stimuli/Hangul_M42.bmp","188","image-keyboard-response","117","220914","0.0-8.0-1.2","test",",","",",","",""
"null","<div style=""color:white; font-size:60px;"">+</div>","null","html-keyboard-response","118","221915","0.0-8.0-0.3","fixation","","","","",""
"1462.0799999684095","Stimuli/Hangul_F45.bmp","188","image-keyboard-response","119","223378","0.0-8.0-1.3","test",".","",",","",""
"null","<div style=""color:white; font-size:60px;"">+</div>","null","html-keyboard-response","120","224379","0.0-8.0-0.4","fixation","","","","",""
"1805.4749998264015","Stimuli/Hangul_M37.bmp","188","image-keyboard-response","121","226186","0.0-8.0-1.4","test",",","",",","",""
"null","<div style=""color:white; font-size:60px;"">+</div>","null","html-keyboard-response","122","227189","0.0-8.0-0.5","fixation","","","","",""
"1517.214999999851","Stimuli/Hangul_F33.bmp","190","image-keyboard-response","123","228707","0.0-8.0-1.5","test",".","",".","",""
"null","<div style=""color:white; font-size:60px;"">+</div>","null","html-keyboard-response","124","229709","0.0-8.0-0.6","fixation","","","","",""
"2476.249999832362","Stimuli/Hangul_M32.bmp","188","image-keyboard-response","125","232186","0.0-8.0-1.6","test",",","",",","",""
"null","<div style=""color:white; font-size:60px;"">+</div>","null","html-keyboard-response","126","233187","0.0-8.0-0.7","fixation","","","","",""
"1797.5349999032915","Stimuli/Hangul_F49.bmp","190","image-keyboard-response","127","234986","0.0-8.0-1.7","test",".","",".","",""
"null","<div style=""color:white; font-size:60px;"">+</div>","null","html-keyboard-response","128","235988","0.0-8.0-0.8","fixation","","","","",""
"1445.1550003141165","Stimuli/Hangul_M28.bmp","188","image-keyboard-response","129","237434","0.0-8.0-1.8","test",",","",",","",""
"null","<div style=""color:white; font-size:60px;"">+</div>","null","html-keyboard-response","130","238436","0.0-8.0-0.9","fixation","","","","",""
"1589.8299999535084","Stimuli/Hangul_M33.bmp","190","image-keyboard-response","131","240027","0.0-8.0-1.9","test",",","",".","",""
"null","<div style=""color:white; font-size:60px;"">+</div>","null","html-keyboard-response","132","241029","0.0-8.0-0.10","fixation","","","","",""
"1555.9350000694394","Stimuli/Hangul_F27.bmp","188","image-keyboard-response","133","242586","0.0-8.0-1.10","test",".","",",","",""
"null","<div style=""color:white; font-size:60px;"">+</div>","null","html-keyboard-response","134","243588","0.0-8.0-0.11","fixation","","","","",""
"1533.2450000569224","Stimuli/Hangul_M29.bmp","188","image-keyboard-response","135","245122","0.0-8.0-1.11","test",",","",",","",""
"null","<div style=""color:white; font-size:60px;"">+</div>","null","html-keyboard-response","136","246124","0.0-8.0-0.12","fixation","","","","",""
"2221.7200002633035","Stimuli/Hangul_F26.bmp","188","image-keyboard-response","137","248346","0.0-8.0-1.12","test",".","",",","",""
"null","<div style=""color:white; font-size:60px;"">+</div>","null","html-keyboard-response","138","249347","0.0-8.0-0.13","fixation","","","","",""
"1558.4549997001886","Stimuli/Hangul_M26.bmp","188","image-keyboard-response","139","250907","0.0-8.0-1.13","test",",","",",","",""
"null","<div style=""color:white; font-size:60px;"">+</div>","null","html-keyboard-response","140","251909","0.0-8.0-0.14","fixation","","","","",""
"1716.1999996751547","Stimuli/Hangul_M46.bmp","188","image-keyboard-response","141","253626","0.0-8.0-1.14","test",",","",",","",""
"null","<div style=""color:white; font-size:60px;"">+</div>","null","html-keyboard-response","142","254628","0.0-8.0-0.15","fixation","","","","",""
"1509.0800002217293","Stimuli/Hangul_F28.bmp","188","image-keyboard-response","143","256138","0.0-8.0-1.15","test",".","",",","",""
"null","<div style=""color:white; font-size:60px;"">+</div>","null","html-keyboard-response","144","257139","0.0-8.0-0.16","fixation","","","","",""
"1494.4099998101592","Stimuli/Hangul_F35.bmp","190","image-keyboard-response","145","258634","0.0-8.0-1.16","test",".","",".","",""
"null","<div style=""color:white; font-size:60px;"">+</div>","null","html-keyboard-response","146","259636","0.0-8.0-0.17","fixation","","","","",""
"2085.735000204295","Stimuli/Hangul_M34.bmp","188","image-keyboard-response","147","261723","0.0-8.0-1.17","test",",","",",","",""
"null","<div style=""color:white; font-size:60px;"">+</div>","null","html-keyboard-response","148","262724","0.0-8.0-0.18","fixation","","","","",""
"1460.6349999085069","Stimuli/Hangul_M35.bmp","188","image-keyboard-response","149","264186","0.0-8.0-1.18","test",",","",",","",""
"null","<div style=""color:white; font-size:60px;"">+</div>","null","html-keyboard-response","150","265187","0.0-8.0-0.19","fixation","","","","",""
"1534.2950001358986","Stimuli/Hangul_F43.bmp","188","image-keyboard-response","151","266722","0.0-8.0-1.19","test",".","",",","",""
"null","<div style=""color:white; font-size:60px;"">+</div>","null","html-keyboard-response","152","267723","0.0-8.0-0.20","fixation","","","","",""
"1686.3199998624623","Stimuli/Hangul_M40.bmp","190","image-keyboard-response","153","269410","0.0-8.0-1.20","test",",","",".","",""
"null","<div style=""color:white; font-size:60px;"">+</div>","null","html-keyboard-response","154","270412","0.0-8.0-0.21","fixation","","","","",""
"1437.7850000746548","Stimuli/Hangul_F39.bmp","188","image-keyboard-response","155","271851","0.0-8.0-1.21","test",".","",",","",""
"null","<div style=""color:white; font-size:60px;"">+</div>","null","html-keyboard-response","156","272853","0.0-8.0-0.22","fixation","","","","",""
"3684.8899996839464","Stimuli/Hangul_M31.bmp","188","image-keyboard-response","157","276538","0.0-8.0-1.22","test",",","",",","",""
"null","<div style=""color:white; font-size:60px;"">+</div>","null","html-keyboard-response","158","277540","0.0-8.0-0.23","fixation","","","","",""
"1725.5450002849102","Stimuli/Hangul_M36.bmp","190","image-keyboard-response","159","279266","0.0-8.0-1.23","test",",","",".","",""
"null","<div style=""color:white; font-size:60px;"">+</div>","null","html-keyboard-response","160","280269","0.0-8.0-0.24","fixation","","","","",""
"2220.710000023246","Stimuli/Hangul_F41.bmp","188","image-keyboard-response","161","282491","0.0-8.0-1.24","test",".","",",","",""
"null","<div style=""color:white; font-size:60px;"">+</div>","null","html-keyboard-response","162","283492","0.0-8.0-0.25","fixation","","","","",""
"1700.7100000046194","Stimuli/Hangul_F29.bmp","190","image-keyboard-response","163","285194","0.0-8.0-1.25","test",".","",".","",""
"null","<div style=""color:white; font-size:60px;"">+</div>","null","html-keyboard-response","164","286196","0.0-8.0-0.26","fixation","","","","",""
"1789.10499997437","Stimuli/Hangul_M30.bmp","188","image-keyboard-response","165","287986","0.0-8.0-1.26","test",",","",",","",""
"null","<div style=""color:white; font-size:60px;"">+</div>","null","html-keyboard-response","166","288987","0.0-8.0-0.27","fixation","","","","",""
"1374.2499998770654","Stimuli/Hangul_F31.bmp","190","image-keyboard-response","167","290362","0.0-8.0-1.27","test",".","",".","",""
"null","<div style=""color:white; font-size:60px;"">+</div>","null","html-keyboard-response","168","291364","0.0-8.0-0.28","fixation","","","","",""
"1693.690000101924","Stimuli/Hangul_F46.bmp","188","image-keyboard-response","169","293058","0.0-8.0-1.28","test",".","",",","",""
"null","<div style=""color:white; font-size:60px;"">+</div>","null","html-keyboard-response","170","294061","0.0-8.0-0.29","fixation","","","","",""
"2620.240000076592","Stimuli/Hangul_F36.bmp","190","image-keyboard-response","171","296682","0.0-8.0-1.29","test",".","",".","",""
"null","<div style=""color:white; font-size:60px;"">+</div>","null","html-keyboard-response","172","297684","0.0-8.0-0.30","fixation","","","","",""
"1557.2850001044571","Stimuli/Hangul_M44.bmp","188","image-keyboard-response","173","299242","0.0-8.0-1.30","test",",","",",","",""
"null","<div style=""color:white; font-size:60px;"">+</div>","null","html-keyboard-response","174","300244","0.0-8.0-0.31","fixation","","","","",""
"1484.2599998228252","Stimuli/Hangul_M25.bmp","188","image-keyboard-response","175","301730","0.0-8.0-1.31","test",",","",",","",""
"null","<div style=""color:white; font-size:60px;"">+</div>","null","html-keyboard-response","176","302731","0.0-8.0-0.32","fixation","","","","",""
"1542.9149996489286","Stimuli/Hangul_F38.bmp","188","image-keyboard-response","177","304275","0.0-8.0-1.32","test",".","",",","",""
"null","<div style=""color:white; font-size:60px;"">+</div>","null","html-keyboard-response","178","305276","0.0-8.0-0.33","fixation","","","","",""
"1548.9149997010827","Stimuli/Hangul_F40.bmp","188","image-keyboard-response","179","306826","0.0-8.0-1.33","test",".","",",","",""
"null","<div style=""color:white; font-size:60px;"">+</div>","null","html-keyboard-response","180","307830","0.0-8.0-0.34","fixation","","","","",""
"1603.5149996168911","Stimuli/Hangul_M48.bmp","188","image-keyboard-response","181","309434","0.0-8.0-1.34","test",",","",",","",""
"null","<div style=""color:white; font-size:60px;"">+</div>","null","html-keyboard-response","182","310435","0.0-8.0-0.35","fixation","","","","",""
"1485.8249998651445","Stimuli/Hangul_M27.bmp","188","image-keyboard-response","183","311922","0.0-8.0-1.35","test",",","",",","",""
"null","<div style=""color:white; font-size:60px;"">+</div>","null","html-keyboard-response","184","312924","0.0-8.0-0.36","fixation","","","","",""
"1420.9449999034405","Stimuli/Hangul_F30.bmp","190","image-keyboard-response","185","314347","0.0-8.0-1.36","test",".","",".","",""
"null","<div style=""color:white; font-size:60px;"">+</div>","null","html-keyboard-response","186","315348","0.0-8.0-0.37","fixation","","","","",""
"1628.53500014171","Stimuli/Hangul_M49.bmp","188","image-keyboard-response","187","316978","0.0-8.0-1.37","test",",","",",","",""
"null","<div style=""color:white; font-size:60px;"">+</div>","null","html-keyboard-response","188","317980","0.0-8.0-0.38","fixation","","","","",""
"1517.2549998387694","Stimuli/Hangul_F37.bmp","190","image-keyboard-response","189","319498","0.0-8.0-1.38","test",".","",".","",""
"null","<div style=""color:white; font-size:60px;"">+</div>","null","html-keyboard-response","190","320499","0.0-8.0-0.39","fixation","","","","",""
"1597.8850000537932","Stimuli/Hangul_M39.bmp","188","image-keyboard-response","191","322098","0.0-8.0-1.39","test",",","",",","",""
"null","<div style=""color:white; font-size:60px;"">+</div>","null","html-keyboard-response","192","323100","0.0-8.0-0.40","fixation","","","","",""
"1733.4300000220537","Stimuli/Hangul_F47.bmp","188","image-keyboard-response","193","324834","0.0-8.0-1.40","test",".","",",","",""
"null","<div style=""color:white; font-size:60px;"">+</div>","null","html-keyboard-response","194","325837","0.0-8.0-0.41","fixation","","","","",""
"1572.3350001499057","Stimuli/Hangul_M45.bmp","188","image-keyboard-response","195","327410","0.0-8.0-1.41","test",",","",",","",""
"null","<div style=""color:white; font-size:60px;"">+</div>","null","html-keyboard-response","196","328411","0.0-8.0-0.42","fixation","","","","",""
"1437.399999704212","Stimuli/Hangul_F32.bmp","190","image-keyboard-response","197","329850","0.0-8.0-1.42","test",".","",".","",""
"null","<div style=""color:white; font-size:60px;"">+</div>","null","html-keyboard-response","198","330851","0.0-8.0-0.43","fixation","","","","",""
"1949.58999985829","Stimuli/Hangul_F44.bmp","190","image-keyboard-response","199","332802","0.0-8.0-1.43","test",".","",".","",""
"null","<div style=""color:white; font-size:60px;"">+</div>","null","html-keyboard-response","200","333804","0.0-8.0-0.44","fixation","","","","",""
"1725.2449998632073","Stimuli/Hangul_M43.bmp","188","image-keyboard-response","201","335530","0.0-8.0-1.44","test",",","",",","",""
"null","<div style=""color:white; font-size:60px;"">+</div>","null","html-keyboard-response","202","336531","0.0-8.0-0.45","fixation","","","","",""
"1525.510000064969","Stimuli/Hangul_F34.bmp","190","image-keyboard-response","203","338058","0.0-8.0-1.45","test",".","",".","",""
"null","<div style=""color:white; font-size:60px;"">+</div>","null","html-keyboard-response","204","339059","0.0-8.0-0.46","fixation","","","","",""
"1685.5949996970594","Stimuli/Hangul_F48.bmp","190","image-keyboard-response","205","340746","0.0-8.0-1.46","test",".","",".","",""
"null","<div style=""color:white; font-size:60px;"">+</div>","null","html-keyboard-response","206","341747","0.0-8.0-0.47","fixation","","","","",""
"1566.1599999293685","Stimuli/Hangul_F25.bmp","188","image-keyboard-response","207","343314","0.0-8.0-1.47","test",".","",",","",""
"null","<div style=""color:white; font-size:60px;"">+</div>","null","html-keyboard-response","208","344315","0.0-8.0-0.48","fixation","","","","",""
"1614.2649999819696","Stimuli/Hangul_F42.bmp","190","image-keyboard-response","209","345930","0.0-8.0-1.48","test",".","",".","",""
"null","<div style=""color:white; font-size:60px;"">+</div>","null","html-keyboard-response","210","346933","0.0-8.0-0.49","fixation","","","","",""
"1844.10999994725","Stimuli/Hangul_M38.bmp","188","image-keyboard-response","211","348777","0.0-8.0-1.49","test",",","",",","",""
"1974.9900000169873","<p style=""color:white;"">Half way there! Please take a moment to rest.</p> <p style=""color:white;"">When you are ready to continue with block 3 of 4, press the space bar.</p> ","32","html-keyboard-response","212","350753","0.0-9.0","","","","","",""
"null","<div style=""color:white; font-size:60px;"">+</div>","null","html-keyboard-response","213","353757","0.0-10.0-0.0","fixation","","","","",""
"1515.6499999575317","Stimuli/Hangul_M65.bmp","188","image-keyboard-response","214","355273","0.0-10.0-1.0","test",",","",",","",""
"null","<div style=""color:white; font-size:60px;"">+</div>","null","html-keyboard-response","215","356275","0.0-10.0-0.1","fixation","","","","",""
"1470.0749996118248","Stimuli/Hangul_F63.bmp","188","image-keyboard-response","216","357746","0.0-10.0-1.1","test",".","",",","",""
"null","<div style=""color:white; font-size:60px;"">+</div>","null","html-keyboard-response","217","358748","0.0-10.0-0.2","fixation","","","","",""
"1940.4550003819168","Stimuli/Hangul_M71.bmp","188","image-keyboard-response","218","360690","0.0-10.0-1.2","test",",","",",","",""
"null","<div style=""color:white; font-size:60px;"">+</div>","null","html-keyboard-response","219","361691","0.0-10.0-0.3","fixation","","","","",""
"1885.1100001484156","Stimuli/Hangul_M63.bmp","188","image-keyboard-response","220","363577","0.0-10.0-1.3","test",",","",",","",""
"null","<div style=""color:white; font-size:60px;"">+</div>","null","html-keyboard-response","221","364580","0.0-10.0-0.4","fixation","","","","",""
"1868.8749996945262","Stimuli/Hangul_F54.bmp","190","image-keyboard-response","222","366450","0.0-10.0-1.4","test",".","",".","",""
"null","<div style=""color:white; font-size:60px;"">+</div>","null","html-keyboard-response","223","367451","0.0-10.0-0.5","fixation","","","","",""
"1414.4499995745718","Stimuli/Hangul_F72.bmp","188","image-keyboard-response","224","368866","0.0-10.0-1.5","test",".","",",","",""
"null","<div style=""color:white; font-size:60px;"">+</div>","null","html-keyboard-response","225","369867","0.0-10.0-0.6","fixation","","","","",""
"1437.4500000849366","Stimuli/Hangul_F58.bmp","188","image-keyboard-response","226","371305","0.0-10.0-1.6","test",".","",",","",""
"null","<div style=""color:white; font-size:60px;"">+</div>","null","html-keyboard-response","227","372308","0.0-10.0-0.7","fixation","","","","",""
"1549.0399999544024","Stimuli/Hangul_M60.bmp","188","image-keyboard-response","228","373857","0.0-10.0-1.7","test",",","",",","",""
"null","<div style=""color:white; font-size:60px;"">+</div>","null","html-keyboard-response","229","374860","0.0-10.0-0.8","fixation","","","","",""
"1452.9000003822148","Stimuli/Hangul_M55.bmp","188","image-keyboard-response","230","376313","0.0-10.0-1.8","test",",","",",","",""
"null","<div style=""color:white; font-size:60px;"">+</div>","null","html-keyboard-response","231","377315","0.0-10.0-0.9","fixation","","","","",""
"1518.1499999016523","Stimuli/Hangul_M51.bmp","188","image-keyboard-response","232","378833","0.0-10.0-1.9","test",",","",",","",""
"null","<div style=""color:white; font-size:60px;"">+</div>","null","html-keyboard-response","233","379835","0.0-10.0-0.10","fixation","","","","",""
"1589.9700000882149","Stimuli/Hangul_F71.bmp","190","image-keyboard-response","234","381426","0.0-10.0-1.10","test",".","",".","",""
"null","<div style=""color:white; font-size:60px;"">+</div>","null","html-keyboard-response","235","382428","0.0-10.0-0.11","fixation","","","","",""
"1621.0600002668798","Stimuli/Hangul_M52.bmp","190","image-keyboard-response","236","384049","0.0-10.0-1.11","test",",","",".","",""
"null","<div style=""color:white; font-size:60px;"">+</div>","null","html-keyboard-response","237","385051","0.0-10.0-0.12","fixation","","","","",""
"1382.319999858737","Stimuli/Hangul_M73.bmp","188","image-keyboard-response","238","386434","0.0-10.0-1.12","test",",","",",","",""
"null","<div style=""color:white; font-size:60px;"">+</div>","null","html-keyboard-response","239","387435","0.0-10.0-0.13","fixation","","","","",""
"1525.4399999976158","Stimuli/Hangul_F52.bmp","188","image-keyboard-response","240","388962","0.0-10.0-1.13","test",".","",",","",""
"null","<div style=""color:white; font-size:60px;"">+</div>","null","html-keyboard-response","241","389963","0.0-10.0-0.14","fixation","","","","",""
"1542.7950001321733","Stimuli/Hangul_F67.bmp","188","image-keyboard-response","242","391506","0.0-10.0-1.14","test",".","",",","",""
"null","<div style=""color:white; font-size:60px;"">+</div>","null","html-keyboard-response","243","392509","0.0-10.0-0.15","fixation","","","","",""
"1524.1499999538064","Stimuli/Hangul_F65.bmp","190","image-keyboard-response","244","394034","0.0-10.0-1.15","test",".","",".","",""
"null","<div style=""color:white; font-size:60px;"">+</div>","null","html-keyboard-response","245","395035","0.0-10.0-0.16","fixation","","","","",""
"1373.6950000748038","Stimuli/Hangul_F66.bmp","190","image-keyboard-response","246","396410","0.0-10.0-1.16","test",".","",".","",""
"null","<div style=""color:white; font-size:60px;"">+</div>","null","html-keyboard-response","247","397414","0.0-10.0-0.17","fixation","","","","",""
"1650.9750001132488","Stimuli/Hangul_F70.bmp","188","image-keyboard-response","248","399066","0.0-10.0-1.17","test",".","",",","",""
"null","<div style=""color:white; font-size:60px;"">+</div>","null","html-keyboard-response","249","400067","0.0-10.0-0.18","fixation","","","","",""
"1381.264999974519","Stimuli/Hangul_M57.bmp","188","image-keyboard-response","250","401449","0.0-10.0-1.18","test",",","",",","",""
"null","<div style=""color:white; font-size:60px;"">+</div>","null","html-keyboard-response","251","402451","0.0-10.0-0.19","fixation","","","","",""
"1302.0550003275275","Stimuli/Hangul_M67.bmp","190","image-keyboard-response","252","403754","0.0-10.0-1.19","test",",","",".","",""
"null","<div style=""color:white; font-size:60px;"">+</div>","null","html-keyboard-response","253","404756","0.0-10.0-0.20","fixation","","","","",""
"1508.7749999947846","Stimuli/Hangul_M58.bmp","188","image-keyboard-response","254","406265","0.0-10.0-1.20","test",",","",",","",""
"null","<div style=""color:white; font-size:60px;"">+</div>","null","html-keyboard-response","255","407267","0.0-10.0-0.21","fixation","","","","",""
"1427.180000115186","Stimuli/Hangul_F61.bmp","188","image-keyboard-response","256","408697","0.0-10.0-1.21","test",".","",",","",""
"null","<div style=""color:white; font-size:60px;"">+</div>","null","html-keyboard-response","257","409700","0.0-10.0-0.22","fixation","","","","",""
"1589.4499998539686","Stimuli/Hangul_F56.bmp","190","image-keyboard-response","258","411290","0.0-10.0-1.22","test",".","",".","",""
"null","<div style=""color:white; font-size:60px;"">+</div>","null","html-keyboard-response","259","412292","0.0-10.0-0.23","fixation","","","","",""
"1340.6500001437962","Stimuli/Hangul_M61.bmp","188","image-keyboard-response","260","413634","0.0-10.0-1.23","test",",","",",","",""
"null","<div style=""color:white; font-size:60px;"">+</div>","null","html-keyboard-response","261","414636","0.0-10.0-0.24","fixation","","","","",""
"1486.0000000335276","Stimuli/Hangul_F73.bmp","190","image-keyboard-response","262","416123","0.0-10.0-1.24","test",".","",".","",""
"null","<div style=""color:white; font-size:60px;"">+</div>","null","html-keyboard-response","263","417125","0.0-10.0-0.25","fixation","","","","",""
"1684.2100000940263","Stimuli/Hangul_F64.bmp","190","image-keyboard-response","264","418810","0.0-10.0-1.25","test",".","",".","",""
"null","<div style=""color:white; font-size:60px;"">+</div>","null","html-keyboard-response","265","419811","0.0-10.0-0.26","fixation","","","","",""
"1405.8600002899766","Stimuli/Hangul_M72.bmp","188","image-keyboard-response","266","421218","0.0-10.0-1.26","test",",","",",","",""
"null","<div style=""color:white; font-size:60px;"">+</div>","null","html-keyboard-response","267","422220","0.0-10.0-0.27","fixation","","","","",""
"1445.2450000680983","Stimuli/Hangul_F50.bmp","190","image-keyboard-response","268","423666","0.0-10.0-1.27","test",".","",".","",""
"null","<div style=""color:white; font-size:60px;"">+</div>","null","html-keyboard-response","269","424668","0.0-10.0-0.28","fixation","","","","",""
"1333.345000166446","Stimuli/Hangul_M54.bmp","188","image-keyboard-response","270","426002","0.0-10.0-1.28","test",",","",",","",""
"null","<div style=""color:white; font-size:60px;"">+</div>","null","html-keyboard-response","271","427003","0.0-10.0-0.29","fixation","","","","",""
"1446.7500001192093","Stimuli/Hangul_M53.bmp","188","image-keyboard-response","272","428451","0.0-10.0-1.29","test",",","",",","",""
"null","<div style=""color:white; font-size:60px;"">+</div>","null","html-keyboard-response","273","429453","0.0-10.0-0.30","fixation","","","","",""
"1405.2300001494586","Stimuli/Hangul_F51.bmp","190","image-keyboard-response","274","430858","0.0-10.0-1.30","test",".","",".","",""
"null","<div style=""color:white; font-size:60px;"">+</div>","null","html-keyboard-response","275","431861","0.0-10.0-0.31","fixation","","","","",""
"3356.0500000603497","Stimuli/Hangul_M64.bmp","188","image-keyboard-response","276","435218","0.0-10.0-1.31","test",",","",",","",""
"null","<div style=""color:white; font-size:60px;"">+</div>","null","html-keyboard-response","277","436219","0.0-10.0-0.32","fixation","","","","",""
"1413.8000002130866","Stimuli/Hangul_M59.bmp","188","image-keyboard-response","278","437634","0.0-10.0-1.32","test",",","",",","",""
"null","<div style=""color:white; font-size:60px;"">+</div>","null","html-keyboard-response","279","438636","0.0-10.0-0.33","fixation","","","","",""
"1486.0900002531707","Stimuli/Hangul_F74.bmp","190","image-keyboard-response","280","440123","0.0-10.0-1.33","test",".","",".","",""
"null","<div style=""color:white; font-size:60px;"">+</div>","null","html-keyboard-response","281","441124","0.0-10.0-0.34","fixation","","","","",""
"2460.9600002877414","Stimuli/Hangul_F62.bmp","188","image-keyboard-response","282","443586","0.0-10.0-1.34","test",".","",",","",""
"null","<div style=""color:white; font-size:60px;"">+</div>","null","html-keyboard-response","283","444588","0.0-10.0-0.35","fixation","","","","",""
"1469.5800002664328","Stimuli/Hangul_F60.bmp","190","image-keyboard-response","284","446058","0.0-10.0-1.35","test",".","",".","",""
"null","<div style=""color:white; font-size:60px;"">+</div>","null","html-keyboard-response","285","447060","0.0-10.0-0.36","fixation","","","","",""
"1437.0099999941885","Stimuli/Hangul_F57.bmp","190","image-keyboard-response","286","448498","0.0-10.0-1.36","test",".","",".","",""
"null","<div style=""color:white; font-size:60px;"">+</div>","null","html-keyboard-response","287","449499","0.0-10.0-0.37","fixation","","","","",""
"1502.7950000949204","Stimuli/Hangul_M69.bmp","188","image-keyboard-response","288","451003","0.0-10.0-1.37","test",",","",",","",""
"null","<div style=""color:white; font-size:60px;"">+</div>","null","html-keyboard-response","289","452005","0.0-10.0-0.38","fixation","","","","",""
"1548.0100000277162","Stimuli/Hangul_M74.bmp","188","image-keyboard-response","290","453554","0.0-10.0-1.38","test",",","",",","",""
"null","<div style=""color:white; font-size:60px;"">+</div>","null","html-keyboard-response","291","454555","0.0-10.0-0.39","fixation","","","","",""
"1558.5449999198318","Stimuli/Hangul_M70.bmp","188","image-keyboard-response","292","456114","0.0-10.0-1.39","test",",","",",","",""
"null","<div style=""color:white; font-size:60px;"">+</div>","null","html-keyboard-response","293","457117","0.0-10.0-0.40","fixation","","","","",""
"1676.2999999336898","Stimuli/Hangul_M68.bmp","188","image-keyboard-response","294","458794","0.0-10.0-1.40","test",",","",",","",""
"null","<div style=""color:white; font-size:60px;"">+</div>","null","html-keyboard-response","295","459795","0.0-10.0-0.41","fixation","","","","",""
"1462.2649997472763","Stimuli/Hangul_F59.bmp","190","image-keyboard-response","296","461259","0.0-10.0-1.41","test",".","",".","",""
"null","<div style=""color:white; font-size:60px;"">+</div>","null","html-keyboard-response","297","462261","0.0-10.0-0.42","fixation","","","","",""
"1563.8399999588728","Stimuli/Hangul_F68.bmp","190","image-keyboard-response","298","463826","0.0-10.0-1.42","test",".","",".","",""
"null","<div style=""color:white; font-size:60px;"">+</div>","null","html-keyboard-response","299","464829","0.0-10.0-0.43","fixation","","","","",""
"1788.4499998763204","Stimuli/Hangul_M66.bmp","188","image-keyboard-response","300","466618","0.0-10.0-1.43","test",",","",",","",""
"null","<div style=""color:white; font-size:60px;"">+</div>","null","html-keyboard-response","301","467620","0.0-10.0-0.44","fixation","","","","",""
"1909.514999948442","Stimuli/Hangul_F69.bmp","190","image-keyboard-response","302","469530","0.0-10.0-1.44","test",".","",".","",""
"null","<div style=""color:white; font-size:60px;"">+</div>","null","html-keyboard-response","303","470532","0.0-10.0-0.45","fixation","","","","",""
"1532.9950000159442","Stimuli/Hangul_M62.bmp","188","image-keyboard-response","304","472067","0.0-10.0-1.45","test",",","",",","",""
"null","<div style=""color:white; font-size:60px;"">+</div>","null","html-keyboard-response","305","473069","0.0-10.0-0.46","fixation","","","","",""
"1485.0250002928078","Stimuli/Hangul_F53.bmp","190","image-keyboard-response","306","474555","0.0-10.0-1.46","test",".","",".","",""
"null","<div style=""color:white; font-size:60px;"">+</div>","null","html-keyboard-response","307","475556","0.0-10.0-0.47","fixation","","","","",""
"1629.7100000083447","Stimuli/Hangul_F55.bmp","188","image-keyboard-response","308","477186","0.0-10.0-1.47","test",".","",",","",""
"null","<div style=""color:white; font-size:60px;"">+</div>","null","html-keyboard-response","309","478188","0.0-10.0-0.48","fixation","","","","",""
"1525.6449999287724","Stimuli/Hangul_M56.bmp","188","image-keyboard-response","310","479714","0.0-10.0-1.48","test",",","",",","",""
"null","<div style=""color:white; font-size:60px;"">+</div>","null","html-keyboard-response","311","480715","0.0-10.0-0.49","fixation","","","","",""
"1566.999999806285","Stimuli/Hangul_M50.bmp","188","image-keyboard-response","312","482283","0.0-10.0-1.49","test",",","",",","",""
"1814.5800000056624","<p style=""color:white;"">One more block to go! Please take a moment to rest.</p> <p style=""color:white;"">When you are ready to continue with block 4 of 4, press the space bar.</p> ","32","html-keyboard-response","313","484098","0.0-11.0","","","","","",""
"null","<div style=""color:white; font-size:60px;"">+</div>","null","html-keyboard-response","314","487103","0.0-12.0-0.0","fixation","","","","",""
"1674.4650001637638","Stimuli/Hangul_M77.bmp","188","image-keyboard-response","315","488778","0.0-12.0-1.0","test",",","",",","",""
"null","<div style=""color:white; font-size:60px;"">+</div>","null","html-keyboard-response","316","489780","0.0-12.0-0.1","fixation","","","","",""
"1389.899999834597","Stimuli/Hangul_F77.bmp","190","image-keyboard-response","317","491171","0.0-12.0-1.1","test",".","",".","",""
"null","<div style=""color:white; font-size:60px;"">+</div>","null","html-keyboard-response","318","492172","0.0-12.0-0.2","fixation","","","","",""
"2070.8650001324713","Stimuli/Hangul_M75.bmp","188","image-keyboard-response","319","494244","0.0-12.0-1.2","test",",","",",","",""
"null","<div style=""color:white; font-size:60px;"">+</div>","null","html-keyboard-response","320","495246","0.0-12.0-0.3","fixation","","","","",""
"1402.8300000354648","Stimuli/Hangul_M92.bmp","188","image-keyboard-response","321","496650","0.0-12.0-1.3","test",",","",",","",""
"null","<div style=""color:white; font-size:60px;"">+</div>","null","html-keyboard-response","322","497651","0.0-12.0-0.4","fixation","","","","",""
"1398.0100001208484","Stimuli/Hangul_M95.bmp","188","image-keyboard-response","323","499050","0.0-12.0-1.4","test",",","",",","",""
"null","<div style=""color:white; font-size:60px;"">+</div>","null","html-keyboard-response","324","500052","0.0-12.0-0.5","fixation","","","","",""
"1325.4249999299645","Stimuli/Hangul_M90.bmp","188","image-keyboard-response","325","501378","0.0-12.0-1.5","test",",","",",","",""
"null","<div style=""color:white; font-size:60px;"">+</div>","null","html-keyboard-response","326","502380","0.0-12.0-0.6","fixation","","","","",""
"1341.660000383854","Stimuli/Hangul_F87.bmp","190","image-keyboard-response","327","503722","0.0-12.0-1.6","test",".","",".","",""
"null","<div style=""color:white; font-size:60px;"">+</div>","null","html-keyboard-response","328","504724","0.0-12.0-0.7","fixation","","","","",""
"1438.2750000804663","Stimuli/Hangul_F84.bmp","190","image-keyboard-response","329","506163","0.0-12.0-1.7","test",".","",".","",""
"null","<div style=""color:white; font-size:60px;"">+</div>","null","html-keyboard-response","330","507165","0.0-12.0-0.8","fixation","","","","",""
"1427.784999832511","Stimuli/Hangul_F78.bmp","190","image-keyboard-response","331","508594","0.0-12.0-1.8","test",".","",".","",""
"null","<div style=""color:white; font-size:60px;"">+</div>","null","html-keyboard-response","332","509596","0.0-12.0-0.9","fixation","","","","",""
"1300.5400002002716","Stimuli/Hangul_F89.bmp","190","image-keyboard-response","333","510898","0.0-12.0-1.9","test",".","",".","",""
"null","<div style=""color:white; font-size:60px;"">+</div>","null","html-keyboard-response","334","511901","0.0-12.0-0.10","fixation","","","","",""
"1476.594999898225","Stimuli/Hangul_F83.bmp","190","image-keyboard-response","335","513378","0.0-12.0-1.10","test",".","",".","",""
"null","<div style=""color:white; font-size:60px;"">+</div>","null","html-keyboard-response","336","514381","0.0-12.0-0.11","fixation","","","","",""
"1268.900000024587","Stimuli/Hangul_F94.bmp","190","image-keyboard-response","337","515650","0.0-12.0-1.11","test",".","",".","",""
"null","<div style=""color:white; font-size:60px;"">+</div>","null","html-keyboard-response","338","516652","0.0-12.0-0.12","fixation","","","","",""
"1326.3900000602007","Stimuli/Hangul_M76.bmp","188","image-keyboard-response","339","517979","0.0-12.0-1.12","test",",","",",","",""
"null","<div style=""color:white; font-size:60px;"">+</div>","null","html-keyboard-response","340","518981","0.0-12.0-0.13","fixation","","","","",""
"1412.5199997797608","Stimuli/Hangul_M93.bmp","188","image-keyboard-response","341","520394","0.0-12.0-1.13","test",",","",",","",""
"null","<div style=""color:white; font-size:60px;"">+</div>","null","html-keyboard-response","342","521396","0.0-12.0-0.14","fixation","","","","",""
"1372.8350000455976","Stimuli/Hangul_F92.bmp","190","image-keyboard-response","343","522770","0.0-12.0-1.14","test",".","",".","",""
"null","<div style=""color:white; font-size:60px;"">+</div>","null","html-keyboard-response","344","523771","0.0-12.0-0.15","fixation","","","","",""
"1350.4050001502037","Stimuli/Hangul_F95.bmp","190","image-keyboard-response","345","525122","0.0-12.0-1.15","test",".","",".","",""
"null","<div style=""color:white; font-size:60px;"">+</div>","null","html-keyboard-response","346","526124","0.0-12.0-0.16","fixation","","","","",""
"1389.8799996823072","Stimuli/Hangul_F93.bmp","190","image-keyboard-response","347","527514","0.0-12.0-1.16","test",".","",".","",""
"null","<div style=""color:white; font-size:60px;"">+</div>","null","html-keyboard-response","348","528516","0.0-12.0-0.17","fixation","","","","",""
"1406.4750000834465","Stimuli/Hangul_M91.bmp","188","image-keyboard-response","349","529922","0.0-12.0-1.17","test",",","",",","",""
"null","<div style=""color:white; font-size:60px;"">+</div>","null","html-keyboard-response","350","530924","0.0-12.0-0.18","fixation","","","","",""
"1476.4649998396635","Stimuli/Hangul_M83.bmp","188","image-keyboard-response","351","532402","0.0-12.0-1.18","test",",","",",","",""
"null","<div style=""color:white; font-size:60px;"">+</div>","null","html-keyboard-response","352","533404","0.0-12.0-0.19","fixation","","","","",""
"1333.584999665618","Stimuli/Hangul_M97.bmp","188","image-keyboard-response","353","534738","0.0-12.0-1.19","test",",","",",","",""
"null","<div style=""color:white; font-size:60px;"">+</div>","null","html-keyboard-response","354","535739","0.0-12.0-0.20","fixation","","","","",""
"1278.080000076443","Stimuli/Hangul_F81.bmp","190","image-keyboard-response","355","537018","0.0-12.0-1.20","test",".","",".","",""
"null","<div style=""color:white; font-size:60px;"">+</div>","null","html-keyboard-response","356","538019","0.0-12.0-0.21","fixation","","","","",""
"1414.3150001764297","Stimuli/Hangul_M79.bmp","188","image-keyboard-response","357","539434","0.0-12.0-1.21","test",",","",",","",""
"null","<div style=""color:white; font-size:60px;"">+</div>","null","html-keyboard-response","358","540436","0.0-12.0-0.22","fixation","","","","",""
"1277.7499998919666","Stimuli/Hangul_F90.bmp","188","image-keyboard-response","359","541714","0.0-12.0-1.22","test",".","",",","",""
"null","<div style=""color:white; font-size:60px;"">+</div>","null","html-keyboard-response","360","542717","0.0-12.0-0.23","fixation","","","","",""
"2700.470000039786","Stimuli/Hangul_F91.bmp","190","image-keyboard-response","361","545418","0.0-12.0-1.23","test",".","",".","",""
"null","<div style=""color:white; font-size:60px;"">+</div>","null","html-keyboard-response","362","546420","0.0-12.0-0.24","fixation","","","","",""
"1580.2000002004206","Stimuli/Hangul_F79.bmp","190","image-keyboard-response","363","548002","0.0-12.0-1.24","test",".","",".","",""
"null","<div style=""color:white; font-size:60px;"">+</div>","null","html-keyboard-response","364","549004","0.0-12.0-0.25","fixation","","","","",""
"1324.9149997718632","Stimuli/Hangul_M84.bmp","188","image-keyboard-response","365","550330","0.0-12.0-1.25","test",",","",",","",""
"null","<div style=""color:white; font-size:60px;"">+</div>","null","html-keyboard-response","366","551331","0.0-12.0-0.26","fixation","","","","",""
"1534.3100000172853","Stimuli/Hangul_F75.bmp","190","image-keyboard-response","367","552867","0.0-12.0-1.26","test",".","",".","",""
"null","<div style=""color:white; font-size:60px;"">+</div>","null","html-keyboard-response","368","553869","0.0-12.0-0.27","fixation","","","","",""
"1460.47000028193","Stimuli/Hangul_M98.bmp","188","image-keyboard-response","369","555330","0.0-12.0-1.27","test",",","",",","",""
"null","<div style=""color:white; font-size:60px;"">+</div>","null","html-keyboard-response","370","556332","0.0-12.0-0.28","fixation","","","","",""
"1893.8099998049438","Stimuli/Hangul_M96.bmp","188","image-keyboard-response","371","558226","0.0-12.0-1.28","test",",","",",","",""
"null","<div style=""color:white; font-size:60px;"">+</div>","null","html-keyboard-response","372","559228","0.0-12.0-0.29","fixation","","","","",""
"4677.514999639243","Stimuli/Hangul_M82.bmp","188","image-keyboard-response","373","563906","0.0-12.0-1.29","test",",","",",","",""
"null","<div style=""color:white; font-size:60px;"">+</div>","null","html-keyboard-response","374","564909","0.0-12.0-0.30","fixation","","","","",""
"1627.6099998503923","Stimuli/Hangul_F96.bmp","190","image-keyboard-response","375","566538","0.0-12.0-1.30","test",".","",".","",""
"null","<div style=""color:white; font-size:60px;"">+</div>","null","html-keyboard-response","376","567540","0.0-12.0-0.31","fixation","","","","",""
"1413.2900000549853","Stimuli/Hangul_F98.bmp","190","image-keyboard-response","377","568954","0.0-12.0-1.31","test",".","",".","",""
"null","<div style=""color:white; font-size:60px;"">+</div>","null","html-keyboard-response","378","569955","0.0-12.0-0.32","fixation","","","","",""
"1390.5499996617436","Stimuli/Hangul_F76.bmp","190","image-keyboard-response","379","571346","0.0-12.0-1.32","test",".","",".","",""
"null","<div style=""color:white; font-size:60px;"">+</div>","null","html-keyboard-response","380","572348","0.0-12.0-0.33","fixation","","","","",""
"1613.7250000610948","Stimuli/Hangul_M94.bmp","188","image-keyboard-response","381","573963","0.0-12.0-1.33","test",",","",",","",""
"null","<div style=""color:white; font-size:60px;"">+</div>","null","html-keyboard-response","382","574964","0.0-12.0-0.34","fixation","","","","",""
"1645.4150001518428","Stimuli/Hangul_F86.bmp","190","image-keyboard-response","383","576610","0.0-12.0-1.34","test",".","",".","",""
"null","<div style=""color:white; font-size:60px;"">+</div>","null","html-keyboard-response","384","577612","0.0-12.0-0.35","fixation","","","","",""
"1500.6550000980496","Stimuli/Hangul_F97.bmp","190","image-keyboard-response","385","579114","0.0-12.0-1.35","test",".","",".","",""
"null","<div style=""color:white; font-size:60px;"">+</div>","null","html-keyboard-response","386","580115","0.0-12.0-0.36","fixation","","","","",""
"1262.3450001701713","Stimuli/Hangul_F80.bmp","190","image-keyboard-response","387","581378","0.0-12.0-1.36","test",".","",".","",""
"null","<div style=""color:white; font-size:60px;"">+</div>","null","html-keyboard-response","388","582379","0.0-12.0-0.37","fixation","","","","",""
"1486.0000000335276","Stimuli/Hangul_M88.bmp","188","image-keyboard-response","389","583866","0.0-12.0-1.37","test",",","",",","",""
"null","<div style=""color:white; font-size:60px;"">+</div>","null","html-keyboard-response","390","584868","0.0-12.0-0.38","fixation","","","","",""
"1557.8200002200902","Stimuli/Hangul_M86.bmp","188","image-keyboard-response","391","586427","0.0-12.0-1.38","test",",","",",","",""
"null","<div style=""color:white; font-size:60px;"">+</div>","null","html-keyboard-response","392","587429","0.0-12.0-0.39","fixation","","","","",""
"1435.8600000850856","Stimuli/Hangul_M81.bmp","188","image-keyboard-response","393","588866","0.0-12.0-1.39","test",",","",",","",""
"null","<div style=""color:white; font-size:60px;"">+</div>","null","html-keyboard-response","394","589869","0.0-12.0-0.40","fixation","","","","",""
"1396.279999986291","Stimuli/Hangul_M89.bmp","188","image-keyboard-response","395","591266","0.0-12.0-1.40","test",",","",",","",""
"null","<div style=""color:white; font-size:60px;"">+</div>","null","html-keyboard-response","396","592267","0.0-12.0-0.41","fixation","","","","",""
"2421.990000177175","Stimuli/Hangul_M99.bmp","188","image-keyboard-response","397","594690","0.0-12.0-1.41","test",",","",",","",""
"null","<div style=""color:white; font-size:60px;"">+</div>","null","html-keyboard-response","398","595691","0.0-12.0-0.42","fixation","","","","",""
"1534.0049997903407","Stimuli/Hangul_M78.bmp","188","image-keyboard-response","399","597227","0.0-12.0-1.42","test",",","",",","",""
"null","<div style=""color:white; font-size:60px;"">+</div>","null","html-keyboard-response","400","598229","0.0-12.0-0.43","fixation","","","","",""
"1508.2449996843934","Stimuli/Hangul_F82.bmp","190","image-keyboard-response","401","599738","0.0-12.0-1.43","test",".","",".","",""
"null","<div style=""color:white; font-size:60px;"">+</div>","null","html-keyboard-response","402","600740","0.0-12.0-0.44","fixation","","","","",""
"1421.440000180155","Stimuli/Hangul_M85.bmp","188","image-keyboard-response","403","602162","0.0-12.0-1.44","test",",","",",","",""
"null","<div style=""color:white; font-size:60px;"">+</div>","null","html-keyboard-response","404","603164","0.0-12.0-0.45","fixation","","","","",""
"1548.6750002019107","Stimuli/Hangul_M80.bmp","188","image-keyboard-response","405","604714","0.0-12.0-1.45","test",",","",",","",""
"null","<div style=""color:white; font-size:60px;"">+</div>","null","html-keyboard-response","406","605716","0.0-12.0-0.46","fixation","","","","",""
"1413.1999998353422","Stimuli/Hangul_F99.bmp","188","image-keyboard-response","407","607130","0.0-12.0-1.46","test",".","",",","",""
"null","<div style=""color:white; font-size:60px;"">+</div>","null","html-keyboard-response","408","608132","0.0-12.0-0.47","fixation","","","","",""
"1427.1849999204278","Stimuli/Hangul_F88.bmp","190","image-keyboard-response","409","609563","0.0-12.0-1.47","test",".","",".","",""
"null","<div style=""color:white; font-size:60px;"">+</div>","null","html-keyboard-response","410","610564","0.0-12.0-0.48","fixation","","","","",""
"1837.379999924451","Stimuli/Hangul_F85.bmp","190","image-keyboard-response","411","612402","0.0-12.0-1.48","test",".","",".","",""
"null","<div style=""color:white; font-size:60px;"">+</div>","null","html-keyboard-response","412","613403","0.0-12.0-0.49","fixation","","","","",""
"1805.764999706298","Stimuli/Hangul_M87.bmp","190","image-keyboard-response","413","615210","0.0-12.0-1.49","test",",","",".","",""
"2383.0849998630583","<p style=""color:white;"">Phase I of the experiment is complete.</p> <p style=""color:white;"">Press the space bar to proceed to Phase II of the experiment.</p> ","32","html-keyboard-response","414","617594","0.0-13.0","","","","","",""
"600030.7099996135","<p style=""color:white;"">Now we are interested in how well you can predict patterns in the series of figures. You will be asked to predict whether the next figure in the series is more male-like or female-like. When you see the <q>Next Figure</q> prompt, press the corresponding response keys to indicate your prediction: </p><p style=""color:white;""> Male &#8594 <q>,</q> (comma)</p><p style=""color:white;""> Female &#8594 <q>.</q> (period)</p><p style=""color:white;"">The actual figure will then appear on the screen. After you see the figure, please guess the assigned gender with response keys. </p><p style=""color:white;"">As before, you will receive 2 cents for correctly classifying each figure.</p><p style=""color:white;"">Press either response keys to continue.</p>","188","html-keyboard-response","415","1219627","0.0-14.0","","","","","",""
"16806.730000302196","<p style=""color:white;"">PREDICTION BONUS</p> <p style=""color:white;"">Your prediction accuracy is the total number of correct predictions you make over the 200 trials.</p> <p style=""color:white;"">In addition to the 2 cents per correct figure classification, you have the chance to receive a bonus of 40 dollars IF your accuracy is above average relative to previous participants.</p><p style=""color:white;"">If your accuracy is below average relative to previous participants, then you will not receive the 40 dollar bonus.</p><p style=""color:white;"">Press the space bar to continue.</p>","32","html-keyboard-response","416","1236434","0.0-15.0","","","","","",""
"12584.185000043362","<p style=""color:white;"">Here are some examples.</p> <p style=""color:white;"">For each, predict whether the next figure looks more male-like or female-like. Then, when the figure appears, guess whether it looks more male-like or female-like and indicate your choice.</p> <p style=""color:white;"">Press the space bar to continue.</p>","32","html-keyboard-response","417","1249019","0.0-16.0","","","","","",""
"2476.409999653697","<p style=""color:white;""> Next Figure: Male or Female? </p>","188","html-keyboard-response","418","1253498","0.0-17.0-0.0","prediction_train","","","",",",""
"null","<div style=""color:white; font-size:60px;"">+</div>","null","html-keyboard-response","419","1254501","0.0-17.0-1.0","fixation","","","","",""
"2884.3049998395145","Stimuli/Hangul_E1.bmp","188","image-keyboard-response","420","1257386","0.0-17.0-2.0","c2_train",",","","","",","
"1255.1750000566244","<p style=""color:white;""> Next Figure: Male or Female? </p>","188","html-keyboard-response","421","1258643","0.0-17.0-0.1","prediction_train","","","",",",""
"null","<div style=""color:white; font-size:60px;"">+</div>","null","html-keyboard-response","422","1259644","0.0-17.0-1.1","fixation","","","","",""
"678.4100001677871","Stimuli/Hangul_E0.bmp","188","image-keyboard-response","423","1260323","0.0-17.0-2.1","c2_train",",","","","",","
"750.8550002239645","<p style=""color:white;""> Next Figure: Male or Female? </p>","190","html-keyboard-response","424","1261075","0.0-17.0-0.2","prediction_train","","","",".",""
"null","<div style=""color:white; font-size:60px;"">+</div>","null","html-keyboard-response","425","1262077","0.0-17.0-1.2","fixation","","","","",""
"588.7549999170005","Stimuli/Hangul_E2.bmp","190","image-keyboard-response","426","1262666","0.0-17.0-2.2","c2_train",".","","","","."
"2095.105000305921","<p style=""color:white;"">Let us begin! Press the space bar when you are ready to start block 1 of 4.</p> ","32","html-keyboard-response","427","1264763","0.0-18.0","","","","","",""
"509.62499994784594","<p style=""color:white;""> Next Figure: Male or Female? </p>","188","html-keyboard-response","428","1267275","0.0-19.0-0.0","prediction","","","",",",""
"null","<div style=""color:white; font-size:60px;"">+</div>","null","html-keyboard-response","429","1268277","0.0-19.0-1.0","fixation","","","","",""
"796.6500003822148","Stimuli/Hangul_F3.bmp","188","image-keyboard-response","430","1269075","0.0-19.0-2.0","c2_test",".","","","",","
"790.4650000855327","<p style=""color:white;""> Next Figure: Male or Female? </p>","188","html-keyboard-response","431","1269866","0.0-19.0-0.1","prediction","","","",",",""
"null","<div style=""color:white; font-size:60px;"">+</div>","null","html-keyboard-response","432","1270867","0.0-19.0-1.1","fixation","","","","",""
"918.8450002111495","Stimuli/Hangul_F1.bmp","190","image-keyboard-response","433","1271787","0.0-19.0-2.1","c2_test",".","","","","."
"726.3850001618266","<p style=""color:white;""> Next Figure: Male or Female? </p>","190","html-keyboard-response","434","1272514","0.0-19.0-0.2","prediction","","","",".",""
"null","<div style=""color:white; font-size:60px;"">+</div>","null","html-keyboard-response","435","1273516","0.0-19.0-1.2","fixation","","","","",""
"717.2749997116625","Stimuli/Hangul_M5.bmp","188","image-keyboard-response","436","1274235","0.0-19.0-2.2","c2_test",",","","","",","
"982.615000102669","<p style=""color:white;""> Next Figure: Male or Female? </p>","188","html-keyboard-response","437","1275218","0.0-19.0-0.3","prediction","","","",",",""
"null","<div style=""color:white; font-size:60px;"">+</div>","null","html-keyboard-response","438","1276219","0.0-19.0-1.3","fixation","","","","",""
"854.0850002318621","Stimuli/Hangul_M1.bmp","188","image-keyboard-response","439","1277074","0.0-19.0-2.3","c2_test",",","","","",","
"1119.1250002011657","<p style=""color:white;""> Next Figure: Male or Female? </p>","190","html-keyboard-response","440","1278194","0.0-19.0-0.4","prediction","","","",".",""
"null","<div style=""color:white; font-size:60px;"">+</div>","null","html-keyboard-response","441","1279195","0.0-19.0-1.4","fixation","","","","",""
"805.5050000548363","Stimuli/Hangul_M12.bmp","188","image-keyboard-response","442","1280002","0.0-19.0-2.4","c2_test",",","","","",","
"1079.1449998505414","<p style=""color:white;""> Next Figure: Male or Female? </p>","188","html-keyboard-response","443","1281082","0.0-19.0-0.5","prediction","","","",",",""
"null","<div style=""color:white; font-size:60px;"">+</div>","null","html-keyboard-response","444","1282083","0.0-19.0-1.5","fixation","","","","",""
"1358.4400000981987","Stimuli/Hangul_F12.bmp","188","image-keyboard-response","445","1283442","0.0-19.0-2.5","c2_test",".","","","",","
"726.8050001002848","<p style=""color:white;""> Next Figure: Male or Female? </p>","188","html-keyboard-response","446","1284170","0.0-19.0-0.6","prediction","","","",",",""
"null","<div style=""color:white; font-size:60px;"">+</div>","null","html-keyboard-response","447","1285172","0.0-19.0-1.6","fixation","","","","",""
"572.9849999770522","Stimuli/Hangul_F18.bmp","190","image-keyboard-response","448","1285746","0.0-19.0-2.6","c2_test",".","","","","."
"501.3649999164045","<p style=""color:white;""> Next Figure: Male or Female? </p>","190","html-keyboard-response","449","1286250","0.0-19.0-0.7","prediction","","","",".",""
"null","<div style=""color:white; font-size:60px;"">+</div>","null","html-keyboard-response","450","1287251","0.0-19.0-1.7","fixation","","","","",""
"1022.1250001341105","Stimuli/Hangul_F16.bmp","188","image-keyboard-response","451","1288274","0.0-19.0-2.7","c2_test",".","","","",","
"806.9750000722706","<p style=""color:white;""> Next Figure: Male or Female? </p>","190","html-keyboard-response","452","1289082","0.0-19.0-0.8","prediction","","","",".",""
"null","<div style=""color:white; font-size:60px;"">+</div>","null","html-keyboard-response","453","1290083","0.0-19.0-1.8","fixation","","","","",""
"1157.7349998988211","Stimuli/Hangul_M8.bmp","188","image-keyboard-response","454","1291242","0.0-19.0-2.8","c2_test",",","","","",","
"375.0499999150634","<p style=""color:white;""> Next Figure: Male or Female? </p>","188","html-keyboard-response","455","1291618","0.0-19.0-0.9","prediction","","","",",",""
"null","<div style=""color:white; font-size:60px;"">+</div>","null","html-keyboard-response","456","1292619","0.0-19.0-1.9","fixation","","","","",""
"678.150000050664","Stimuli/Hangul_M17.bmp","188","image-keyboard-response","457","1293298","0.0-19.0-2.9","c2_test",",","","","",","
"455.89999994263053","<p style=""color:white;""> Next Figure: Male or Female? </p>","188","html-keyboard-response","458","1293754","0.0-19.0-0.10","prediction","","","",",",""
"null","<div style=""color:white; font-size:60px;"">+</div>","null","html-keyboard-response","459","1294755","0.0-19.0-1.10","fixation","","","","",""
"1109.8299999721348","Stimuli/Hangul_F22.bmp","188","image-keyboard-response","460","1295866","0.0-19.0-2.10","c2_test",".","","","",","
"406.99499985203147","<p style=""color:white;""> Next Figure: Male or Female? </p>","188","html-keyboard-response","461","1296274","0.0-19.0-0.11","prediction","","","",",",""
"null","<div style=""color:white; font-size:60px;"">+</div>","null","html-keyboard-response","462","1297276","0.0-19.0-1.11","fixation","","","","",""
"1412.0999998413026","Stimuli/Hangul_M9.bmp","188","image-keyboard-response","463","1298690","0.0-19.0-2.11","c2_test",",","","","",","
"654.8500000499189","<p style=""color:white;""> Next Figure: Male or Female? </p>","190","html-keyboard-response","464","1299346","0.0-19.0-0.12","prediction","","","",".",""
"null","<div style=""color:white; font-size:60px;"">+</div>","null","html-keyboard-response","465","1300348","0.0-19.0-1.12","fixation","","","","",""
"572.9649998247623","Stimuli/Hangul_F8.bmp","190","image-keyboard-response","466","1300922","0.0-19.0-2.12","c2_test",".","","","","."
"615.3250001370907","<p style=""color:white;""> Next Figure: Male or Female? </p>","188","html-keyboard-response","467","1301538","0.0-19.0-0.13","prediction","","","",",",""
"null","<div style=""color:white; font-size:60px;"">+</div>","null","html-keyboard-response","468","1302540","0.0-19.0-1.13","fixation","","","","",""
"764.5649998448789","Stimuli/Hangul_F2.bmp","188","image-keyboard-response","469","1303306","0.0-19.0-2.13","c2_test",".","","","",","
"734.9499999545515","<p style=""color:white;""> Next Figure: Male or Female? </p>","188","html-keyboard-response","470","1304043","0.0-19.0-0.14","prediction","","","",",",""
"null","<div style=""color:white; font-size:60px;"">+</div>","null","html-keyboard-response","471","1305044","0.0-19.0-1.14","fixation","","","","",""
"725.1650001853704","Stimuli/Hangul_F20.bmp","188","image-keyboard-response","472","1305770","0.0-19.0-2.14","c2_test",".","","","",","
"719.0450001507998","<p style=""color:white;""> Next Figure: Male or Female? </p>","190","html-keyboard-response","473","1306490","0.0-19.0-0.15","prediction","","","",".",""
"null","<div style=""color:white; font-size:60px;"">+</div>","null","html-keyboard-response","474","1307492","0.0-19.0-1.15","fixation","","","","",""
"781.2149999663234","Stimuli/Hangul_F7.bmp","188","image-keyboard-response","475","1308274","0.0-19.0-2.15","c2_test",".","","","",","
"526.9349999725819","<p style=""color:white;""> Next Figure: Male or Female? </p>","188","html-keyboard-response","476","1308802","0.0-19.0-0.16","prediction","","","",",",""
"null","<div style=""color:white; font-size:60px;"">+</div>","null","html-keyboard-response","477","1309804","0.0-19.0-1.16","fixation","","","","",""
"692.7700000815094","Stimuli/Hangul_F0.bmp","188","image-keyboard-response","478","1310498","0.0-19.0-2.16","c2_test",".","","","",","
"679.3349999934435","<p style=""color:white;""> Next Figure: Male or Female? </p>","190","html-keyboard-response","479","1311178","0.0-19.0-0.17","prediction","","","",".",""
"null","<div style=""color:white; font-size:60px;"">+</div>","null","html-keyboard-response","480","1312180","0.0-19.0-1.17","fixation","","","","",""
"532.9599999822676","Stimuli/Hangul_F4.bmp","190","image-keyboard-response","481","1312714","0.0-19.0-2.17","c2_test",".","","","","."
"639.3699999898672","<p style=""color:white;""> Next Figure: Male or Female? </p>","188","html-keyboard-response","482","1313354","0.0-19.0-0.18","prediction","","","",",",""
"null","<div style=""color:white; font-size:60px;"">+</div>","null","html-keyboard-response","483","1314356","0.0-19.0-1.18","fixation","","","","",""
"1021.2550000287592","Stimuli/Hangul_M2.bmp","188","image-keyboard-response","484","1315378","0.0-19.0-2.18","c2_test",",","","","",","
"854.6550003811717","<p style=""color:white;""> Next Figure: Male or Female? </p>","190","html-keyboard-response","485","1316234","0.0-19.0-0.19","prediction","","","",".",""
"null","<div style=""color:white; font-size:60px;"">+</div>","null","html-keyboard-response","486","1317235","0.0-19.0-1.19","fixation","","","","",""
"2501.769999973476","Stimuli/Hangul_F24.bmp","188","image-keyboard-response","487","1319738","0.0-19.0-2.19","c2_test",".","","","",","
"503.3200001344085","<p style=""color:white;""> Next Figure: Male or Female? </p>","188","html-keyboard-response","488","1320242","0.0-19.0-0.20","prediction","","","",",",""
"null","<div style=""color:white; font-size:60px;"">+</div>","null","html-keyboard-response","489","1321244","0.0-19.0-1.20","fixation","","","","",""
"660.8850001357496","Stimuli/Hangul_F11.bmp","188","image-keyboard-response","490","1321906","0.0-19.0-2.20","c2_test",".","","","",","
"391.2999997846782","<p style=""color:white;""> Next Figure: Male or Female? </p>","188","html-keyboard-response","491","1322298","0.0-19.0-0.21","prediction","","","",",",""
"null","<div style=""color:white; font-size:60px;"">+</div>","null","html-keyboard-response","492","1323299","0.0-19.0-1.21","fixation","","","","",""
"550.4149999469519","Stimuli/Hangul_M18.bmp","188","image-keyboard-response","493","1323850","0.0-19.0-2.21","c2_test",",","","","",","
"383.21000011637807","<p style=""color:white;""> Next Figure: Male or Female? </p>","190","html-keyboard-response","494","1324234","0.0-19.0-0.22","prediction","","","",".",""
"null","<div style=""color:white; font-size:60px;"">+</div>","null","html-keyboard-response","495","1325236","0.0-19.0-1.22","fixation","","","","",""
"510.07500011473894","Stimuli/Hangul_F10.bmp","190","image-keyboard-response","496","1325746","0.0-19.0-2.22","c2_test",".","","","","."
"742.4349999055266","<p style=""color:white;""> Next Figure: Male or Female? </p>","188","html-keyboard-response","497","1326490","0.0-19.0-0.23","prediction","","","",",",""
"null","<div style=""color:white; font-size:60px;"">+</div>","null","html-keyboard-response","498","1327493","0.0-19.0-1.23","fixation","","","","",""
"820.1299998909235","Stimuli/Hangul_F17.bmp","188","image-keyboard-response","499","1328314","0.0-19.0-2.23","c2_test",".","","","",","
"671.4649996720254","<p style=""color:white;""> Next Figure: Male or Female? </p>","190","html-keyboard-response","500","1328986","0.0-19.0-0.24","prediction","","","",".",""
"null","<div style=""color:white; font-size:60px;"">+</div>","null","html-keyboard-response","501","1329988","0.0-19.0-1.24","fixation","","","","",""
"2364.6100000478327","Stimuli/Hangul_M13.bmp","190","image-keyboard-response","502","1332354","0.0-19.0-2.24","c2_test",",","","","","."
"591.3249999284744","<p style=""color:white;""> Next Figure: Male or Female? </p>","188","html-keyboard-response","503","1332946","0.0-19.0-0.25","prediction","","","",",",""
"null","<div style=""color:white; font-size:60px;"">+</div>","null","html-keyboard-response","504","1333948","0.0-19.0-1.25","fixation","","","","",""
"740.9649998880923","Stimuli/Hangul_M0.bmp","188","image-keyboard-response","505","1334690","0.0-19.0-2.25","c2_test",",","","","",","
"718.5799996368587","<p style=""color:white;""> Next Figure: Male or Female? </p>","190","html-keyboard-response","506","1335410","0.0-19.0-0.26","prediction","","","",".",""
"null","<div style=""color:white; font-size:60px;"">+</div>","null","html-keyboard-response","507","1336412","0.0-19.0-1.26","fixation","","","","",""
"1212.9700002260506","Stimuli/Hangul_M6.bmp","188","image-keyboard-response","508","1337627","0.0-19.0-2.26","c2_test",",","","","",","
"726.535000372678","<p style=""color:white;""> Next Figure: Male or Female? </p>","188","html-keyboard-response","509","1338355","0.0-19.0-0.27","prediction","","","",",",""
"null","<div style=""color:white; font-size:60px;"">+</div>","null","html-keyboard-response","510","1339357","0.0-19.0-1.27","fixation","","","","",""
"563.9549996703863","Stimuli/Hangul_F13.bmp","188","image-keyboard-response","511","1339923","0.0-19.0-2.27","c2_test",".","","","",","
"487.10000002756715","<p style=""color:white;""> Next Figure: Male or Female? </p>","188","html-keyboard-response","512","1340411","0.0-19.0-0.28","prediction","","","",",",""
"null","<div style=""color:white; font-size:60px;"">+</div>","null","html-keyboard-response","513","1341412","0.0-19.0-1.28","fixation","","","","",""
"581.6500000655651","Stimuli/Hangul_F21.bmp","190","image-keyboard-response","514","1341995","0.0-19.0-2.28","c2_test",".","","","","."
"559.0300001204014","<p style=""color:white;""> Next Figure: Male or Female? </p>","190","html-keyboard-response","515","1342555","0.0-19.0-0.29","prediction","","","",".",""
"null","<div style=""color:white; font-size:60px;"">+</div>","null","html-keyboard-response","516","1343556","0.0-19.0-1.29","fixation","","","","",""
"645.1500002294779","Stimuli/Hangul_M20.bmp","188","image-keyboard-response","517","1344203","0.0-19.0-2.29","c2_test",",","","","",","
"734.5850002020597","<p style=""color:white;""> Next Figure: Male or Female? </p>","190","html-keyboard-response","518","1344939","0.0-19.0-0.30","prediction","","","",".",""
"null","<div style=""color:white; font-size:60px;"">+</div>","null","html-keyboard-response","519","1345940","0.0-19.0-1.30","fixation","","","","",""
"2062.39499989897","Stimuli/Hangul_F9.bmp","188","image-keyboard-response","520","1348003","0.0-19.0-2.30","c2_test",".","","","",","
"790.3050002641976","<p style=""color:white;""> Next Figure: Male or Female? </p>","190","html-keyboard-response","521","1348795","0.0-19.0-0.31","prediction","","","",".",""
"null","<div style=""color:white; font-size:60px;"">+</div>","null","html-keyboard-response","522","1349797","0.0-19.0-1.31","fixation","","","","",""
"1244.175000116229","Stimuli/Hangul_F19.bmp","188","image-keyboard-response","523","1351043","0.0-19.0-2.31","c2_test",".","","","",","
"598.944999743253","<p style=""color:white;""> Next Figure: Male or Female? </p>","190","html-keyboard-response","524","1351643","0.0-19.0-0.32","prediction","","","",".",""
"null","<div style=""color:white; font-size:60px;"">+</div>","null","html-keyboard-response","525","1352645","0.0-19.0-1.32","fixation","","","","",""
"780.8050001040101","Stimuli/Hangul_M10.bmp","188","image-keyboard-response","526","1353427","0.0-19.0-2.32","c2_test",",","","","",","
"525.0499998219311","<p style=""color:white;""> Next Figure: Male or Female? </p>","188","html-keyboard-response","527","1353955","0.0-19.0-0.33","prediction","","","",",",""
"null","<div style=""color:white; font-size:60px;"">+</div>","null","html-keyboard-response","528","1354956","0.0-19.0-1.33","fixation","","","","",""
"886.1699998378754","Stimuli/Hangul_F14.bmp","190","image-keyboard-response","529","1355843","0.0-19.0-2.33","c2_test",".","","","","."
"878.8350000977516","<p style=""color:white;""> Next Figure: Male or Female? </p>","188","html-keyboard-response","530","1356723","0.0-19.0-0.34","prediction","","","",",",""
"null","<div style=""color:white; font-size:60px;"">+</div>","null","html-keyboard-response","531","1357724","0.0-19.0-1.34","fixation","","","","",""
"533.9849996380508","Stimuli/Hangul_F5.bmp","188","image-keyboard-response","532","1358259","0.0-19.0-2.34","c2_test",".","","","",","
"422.4400003440678","<p style=""color:white;""> Next Figure: Male or Female? </p>","188","html-keyboard-response","533","1358683","0.0-19.0-0.35","prediction","","","",",",""
"null","<div style=""color:white; font-size:60px;"">+</div>","null","html-keyboard-response","534","1359684","0.0-19.0-1.35","fixation","","","","",""
"557.8750004060566","Stimuli/Hangul_M24.bmp","188","image-keyboard-response","535","1360243","0.0-19.0-2.35","c2_test",",","","","",","
"383.08499986305833","<p style=""color:white;""> Next Figure: Male or Female? </p>","188","html-keyboard-response","536","1360627","0.0-19.0-0.36","prediction","","","",",",""
"null","<div style=""color:white; font-size:60px;"">+</div>","null","html-keyboard-response","537","1361629","0.0-19.0-1.36","fixation","","","","",""
"557.5250000692904","Stimuli/Hangul_M16.bmp","188","image-keyboard-response","538","1362187","0.0-19.0-2.36","c2_test",",","","","",","
"535.0250001065433","<p style=""color:white;""> Next Figure: Male or Female? </p>","190","html-keyboard-response","539","1362723","0.0-19.0-0.37","prediction","","","",".",""
"null","<div style=""color:white; font-size:60px;"">+</div>","null","html-keyboard-response","540","1363725","0.0-19.0-1.37","fixation","","","","",""
"1061.1300002783537","Stimuli/Hangul_M4.bmp","188","image-keyboard-response","541","1364787","0.0-19.0-2.37","c2_test",",","","","",","
"782.6550002209842","<p style=""color:white;""> Next Figure: Male or Female? </p>","190","html-keyboard-response","542","1365571","0.0-19.0-0.38","prediction","","","",".",""
"null","<div style=""color:white; font-size:60px;"">+</div>","null","html-keyboard-response","543","1366572","0.0-19.0-1.38","fixation","","","","",""
"877.8450000099838","Stimuli/Hangul_M23.bmp","188","image-keyboard-response","544","1367451","0.0-19.0-2.38","c2_test",",","","","",","
"279.25499994307756","<p style=""color:white;""> Next Figure: Male or Female? </p>","188","html-keyboard-response","545","1367731","0.0-19.0-0.39","prediction","","","",",",""
"null","<div style=""color:white; font-size:60px;"">+</div>","null","html-keyboard-response","546","1368733","0.0-19.0-1.39","fixation","","","","",""
"605.6600003503263","Stimuli/Hangul_M15.bmp","188","image-keyboard-response","547","1369339","0.0-19.0-2.39","c2_test",",","","","",","
"558.7400002405047","<p style=""color:white;""> Next Figure: Male or Female? </p>","190","html-keyboard-response","548","1369899","0.0-19.0-0.40","prediction","","","",".",""
"null","<div style=""color:white; font-size:60px;"">+</div>","null","html-keyboard-response","549","1370900","0.0-19.0-1.40","fixation","","","","",""
"989.9450000375509","Stimuli/Hangul_M22.bmp","188","image-keyboard-response","550","1371891","0.0-19.0-2.40","c2_test",",","","","",","
"358.9349999092519","<p style=""color:white;""> Next Figure: Male or Female? </p>","188","html-keyboard-response","551","1372251","0.0-19.0-0.41","prediction","","","",",",""
"null","<div style=""color:white; font-size:60px;"">+</div>","null","html-keyboard-response","552","1373253","0.0-19.0-1.41","fixation","","","","",""
"820.6750000827014","Stimuli/Hangul_F15.bmp","188","image-keyboard-response","553","1374075","0.0-19.0-2.41","c2_test",".","","","",","
"718.9699998125434","<p style=""color:white;""> Next Figure: Male or Female? </p>","188","html-keyboard-response","554","1374795","0.0-19.0-0.42","prediction","","","",",",""
"null","<div style=""color:white; font-size:60px;"">+</div>","null","html-keyboard-response","555","1375796","0.0-19.0-1.42","fixation","","","","",""
"581.6299999132752","Stimuli/Hangul_M21.bmp","188","image-keyboard-response","556","1376379","0.0-19.0-2.42","c2_test",",","","","",","
"455.1750002428889","<p style=""color:white;""> Next Figure: Male or Female? </p>","190","html-keyboard-response","557","1376835","0.0-19.0-0.43","prediction","","","",".",""
"null","<div style=""color:white; font-size:60px;"">+</div>","null","html-keyboard-response","558","1377836","0.0-19.0-1.43","fixation","","","","",""
"773.4000002965331","Stimuli/Hangul_M7.bmp","188","image-keyboard-response","559","1378611","0.0-19.0-2.43","c2_test",",","","","",","
"447.03999999910593","<p style=""color:white;""> Next Figure: Male or Female? </p>","188","html-keyboard-response","560","1379059","0.0-19.0-0.44","prediction","","","",",",""
"null","<div style=""color:white; font-size:60px;"">+</div>","null","html-keyboard-response","561","1380060","0.0-19.0-1.44","fixation","","","","",""
"734.1050002723932","Stimuli/Hangul_M11.bmp","188","image-keyboard-response","562","1380795","0.0-19.0-2.44","c2_test",",","","","",","
"493.89500031247735","<p style=""color:white;""> Next Figure: Male or Female? </p>","188","html-keyboard-response","563","1381290","0.0-19.0-0.45","prediction","","","",",",""
"null","<div style=""color:white; font-size:60px;"">+</div>","null","html-keyboard-response","564","1382293","0.0-19.0-1.45","fixation","","","","",""
"1332.2700001299381","Stimuli/Hangul_F6.bmp","188","image-keyboard-response","565","1383627","0.0-19.0-2.45","c2_test",".","","","",","
"407.0950001478195","<p style=""color:white;""> Next Figure: Male or Female? </p>","190","html-keyboard-response","566","1384035","0.0-19.0-0.46","prediction","","","",".",""
"null","<div style=""color:white; font-size:60px;"">+</div>","null","html-keyboard-response","567","1385037","0.0-19.0-1.46","fixation","","","","",""
"724.9900000169873","Stimuli/Hangul_M14.bmp","188","image-keyboard-response","568","1385763","0.0-19.0-2.46","c2_test",",","","","",","
"351.24999983236194","<p style=""color:white;""> Next Figure: Male or Female? </p>","188","html-keyboard-response","569","1386115","0.0-19.0-0.47","prediction","","","",",",""
"null","<div style=""color:white; font-size:60px;"">+</div>","null","html-keyboard-response","570","1387116","0.0-19.0-1.47","fixation","","","","",""
"805.7349999435246","Stimuli/Hangul_M3.bmp","188","image-keyboard-response","571","1387923","0.0-19.0-2.47","c2_test",",","","","",","
"503.4700003452599","<p style=""color:white;""> Next Figure: Male or Female? </p>","190","html-keyboard-response","572","1388427","0.0-19.0-0.48","prediction","","","",".",""
"null","<div style=""color:white; font-size:60px;"">+</div>","null","html-keyboard-response","573","1389429","0.0-19.0-1.48","fixation","","","","",""
"1052.3149999789894","Stimuli/Hangul_M19.bmp","188","image-keyboard-response","574","1390483","0.0-19.0-2.48","c2_test",",","","","",","
"799.790000077337","<p style=""color:white;""> Next Figure: Male or Female? </p>","188","html-keyboard-response","575","1391283","0.0-19.0-0.49","prediction","","","",",",""
"null","<div style=""color:white; font-size:60px;"">+</div>","null","html-keyboard-response","576","1392284","0.0-19.0-1.49","fixation","","","","",""
"1558.0099998041987","Stimuli/Hangul_F23.bmp","188","image-keyboard-response","577","1393843","0.0-19.0-2.49","c2_test",".","","","",","
"2015.1650002226233","<p style=""color:white;"">Good job, block 1 complete! Please take a moment to rest.</p> <p style=""color:white;"">When you are ready to continue with block 2 of 4, press the space bar.</p> ","32","html-keyboard-response","578","1395859","0.0-20.0","","","","","",""
"732.6700002886355","<p style=""color:white;""> Next Figure: Male or Female? </p>","188","html-keyboard-response","579","1398595","0.0-21.0-0.0","prediction","","","",",",""
"null","<div style=""color:white; font-size:60px;"">+</div>","null","html-keyboard-response","580","1399597","0.0-21.0-1.0","fixation","","","","",""
"580.8250000700355","Stimuli/Hangul_M34.bmp","188","image-keyboard-response","581","1400179","0.0-21.0-2.0","c2_test",",","","","",","
"959.0900000184774","<p style=""color:white;""> Next Figure: Male or Female? </p>","188","html-keyboard-response","582","1401139","0.0-21.0-0.1","prediction","","","",",",""
"null","<div style=""color:white; font-size:60px;"">+</div>","null","html-keyboard-response","583","1402140","0.0-21.0-1.1","fixation","","","","",""
"590.7350000925362","Stimuli/Hangul_M25.bmp","188","image-keyboard-response","584","1402731","0.0-21.0-2.1","c2_test",",","","","",","
"374.2649997584522","<p style=""color:white;""> Next Figure: Male or Female? </p>","190","html-keyboard-response","585","1403107","0.0-21.0-0.2","prediction","","","",".",""
"null","<div style=""color:white; font-size:60px;"">+</div>","null","html-keyboard-response","586","1404110","0.0-21.0-1.2","fixation","","","","",""
"659.8499999381602","Stimuli/Hangul_M27.bmp","188","image-keyboard-response","587","1404771","0.0-21.0-2.2","c2_test",",","","","",","
"687.3749997466803","<p style=""color:white;""> Next Figure: Male or Female? </p>","188","html-keyboard-response","588","1405459","0.0-21.0-0.3","prediction","","","",",",""
"null","<div style=""color:white; font-size:60px;"">+</div>","null","html-keyboard-response","589","1406461","0.0-21.0-1.3","fixation","","","","",""
"813.1999997422099","Stimuli/Hangul_F37.bmp","190","image-keyboard-response","590","1407275","0.0-21.0-2.3","c2_test",".","","","","."
"558.3199998363853","<p style=""color:white;""> Next Figure: Male or Female? </p>","190","html-keyboard-response","591","1407835","0.0-21.0-0.4","prediction","","","",".",""
"null","<div style=""color:white; font-size:60px;"">+</div>","null","html-keyboard-response","592","1408836","0.0-21.0-1.4","fixation","","","","",""
"646.0299999453127","Stimuli/Hangul_F33.bmp","190","image-keyboard-response","593","1409483","0.0-21.0-2.4","c2_test",".","","","","."
"407.65499975532293","<p style=""color:white;""> Next Figure: Male or Female? </p>","190","html-keyboard-response","594","1409891","0.0-21.0-0.5","prediction","","","",".",""
"null","<div style=""color:white; font-size:60px;"">+</div>","null","html-keyboard-response","595","1410892","0.0-21.0-1.5","fixation","","","","",""
"637.3950000852346","Stimuli/Hangul_M47.bmp","188","image-keyboard-response","596","1411531","0.0-21.0-2.5","c2_test",",","","","",","
"527.0599997602403","<p style=""color:white;""> Next Figure: Male or Female? </p>","188","html-keyboard-response","597","1412059","0.0-21.0-0.6","prediction","","","",",",""
"null","<div style=""color:white; font-size:60px;"">+</div>","null","html-keyboard-response","598","1413061","0.0-21.0-1.6","fixation","","","","",""
"2845.3200003132224","Stimuli/Hangul_M36.bmp","190","image-keyboard-response","599","1415907","0.0-21.0-2.6","c2_test",",","","","","."
"686.5750001743436","<p style=""color:white;""> Next Figure: Male or Female? </p>","188","html-keyboard-response","600","1416595","0.0-21.0-0.7","prediction","","","",",",""
"null","<div style=""color:white; font-size:60px;"">+</div>","null","html-keyboard-response","601","1417596","0.0-21.0-1.7","fixation","","","","",""
"685.3100000880659","Stimuli/Hangul_M35.bmp","188","image-keyboard-response","602","1418283","0.0-21.0-2.7","c2_test",",","","","",","
"743.114999961108","<p style=""color:white;""> Next Figure: Male or Female? </p>","190","html-keyboard-response","603","1419027","0.0-21.0-0.8","prediction","","","",".",""
"null","<div style=""color:white; font-size:60px;"">+</div>","null","html-keyboard-response","604","1420029","0.0-21.0-1.8","fixation","","","","",""
"1932.550000026822","Stimuli/Hangul_F48.bmp","188","image-keyboard-response","605","1421963","0.0-21.0-2.8","c2_test",".","","","",","
"1174.5249996893108","<p style=""color:white;""> Next Figure: Male or Female? </p>","190","html-keyboard-response","606","1423139","0.0-21.0-0.9","prediction","","","",".",""
"null","<div style=""color:white; font-size:60px;"">+</div>","null","html-keyboard-response","607","1424140","0.0-21.0-1.9","fixation","","","","",""
"1141.839999705553","Stimuli/Hangul_F47.bmp","188","image-keyboard-response","608","1425283","0.0-21.0-2.9","c2_test",".","","","",","
"351.35000012815","<p style=""color:white;""> Next Figure: Male or Female? </p>","188","html-keyboard-response","609","1425635","0.0-21.0-0.10","prediction","","","",",",""
"null","<div style=""color:white; font-size:60px;"">+</div>","null","html-keyboard-response","610","1426636","0.0-21.0-1.10","fixation","","","","",""
"574.044999666512","Stimuli/Hangul_M28.bmp","188","image-keyboard-response","611","1427211","0.0-21.0-2.10","c2_test",",","","","",","
"598.4000000171363","<p style=""color:white;""> Next Figure: Male or Female? </p>","188","html-keyboard-response","612","1427811","0.0-21.0-0.11","prediction","","","",",",""
"null","<div style=""color:white; font-size:60px;"">+</div>","null","html-keyboard-response","613","1428812","0.0-21.0-1.11","fixation","","","","",""
"766.1749999970198","Stimuli/Hangul_F46.bmp","188","image-keyboard-response","614","1429579","0.0-21.0-2.11","c2_test",".","","","",","
"1103.1700000166893","<p style=""color:white;""> Next Figure: Male or Female? </p>","190","html-keyboard-response","615","1430683","0.0-21.0-0.12","prediction","","","",".",""
"null","<div style=""color:white; font-size:60px;"">+</div>","null","html-keyboard-response","616","1431684","0.0-21.0-1.12","fixation","","","","",""
"901.744999922812","Stimuli/Hangul_M49.bmp","188","image-keyboard-response","617","1432587","0.0-21.0-2.12","c2_test",",","","","",","
"911.1700002104044","<p style=""color:white;""> Next Figure: Male or Female? </p>","188","html-keyboard-response","618","1433499","0.0-21.0-0.13","prediction","","","",",",""
"null","<div style=""color:white; font-size:60px;"">+</div>","null","html-keyboard-response","619","1434500","0.0-21.0-1.13","fixation","","","","",""
"1221.3249998167157","Stimuli/Hangul_M30.bmp","188","image-keyboard-response","620","1435723","0.0-21.0-2.13","c2_test",",","","","",","
"455.250000115484","<p style=""color:white;""> Next Figure: Male or Female? </p>","188","html-keyboard-response","621","1436179","0.0-21.0-0.14","prediction","","","",",",""
"null","<div style=""color:white; font-size:60px;"">+</div>","null","html-keyboard-response","622","1437181","0.0-21.0-1.14","fixation","","","","",""
"702.0450001582503","Stimuli/Hangul_F41.bmp","188","image-keyboard-response","623","1437883","0.0-21.0-2.14","c2_test",".","","","",","
"494.59500005468726","<p style=""color:white;""> Next Figure: Male or Female? </p>","190","html-keyboard-response","624","1438379","0.0-21.0-0.15","prediction","","","",".",""
"null","<div style=""color:white; font-size:60px;"">+</div>","null","html-keyboard-response","625","1439382","0.0-21.0-1.15","fixation","","","","",""
"1348.2149997726083","Stimuli/Hangul_M43.bmp","190","image-keyboard-response","626","1440731","0.0-21.0-2.15","c2_test",",","","","","."
"574.6399997733533","<p style=""color:white;""> Next Figure: Male or Female? </p>","190","html-keyboard-response","627","1441307","0.0-21.0-0.16","prediction","","","",".",""
"null","<div style=""color:white; font-size:60px;"">+</div>","null","html-keyboard-response","628","1442310","0.0-21.0-1.16","fixation","","","","",""
"2043.949999846518","Stimuli/Hangul_M33.bmp","188","image-keyboard-response","629","1444355","0.0-21.0-2.16","c2_test",",","","","",","
"863.0349999293685","<p style=""color:white;""> Next Figure: Male or Female? </p>","190","html-keyboard-response","630","1445219","0.0-21.0-0.17","prediction","","","",".",""
"null","<div style=""color:white; font-size:60px;"">+</div>","null","html-keyboard-response","631","1446220","0.0-21.0-1.17","fixation","","","","",""
"1125.5449997261167","Stimuli/Hangul_M39.bmp","188","image-keyboard-response","632","1447347","0.0-21.0-2.17","c2_test",",","","","",","
"431.1799998395145","<p style=""color:white;""> Next Figure: Male or Female? </p>","188","html-keyboard-response","633","1447779","0.0-21.0-0.18","prediction","","","",",",""
"null","<div style=""color:white; font-size:60px;"">+</div>","null","html-keyboard-response","634","1448780","0.0-21.0-1.18","fixation","","","","",""
"862.5149996951222","Stimuli/Hangul_F25.bmp","188","image-keyboard-response","635","1449643","0.0-21.0-2.18","c2_test",".","","","",","
"446.4750001206994","<p style=""color:white;""> Next Figure: Male or Female? </p>","188","html-keyboard-response","636","1450091","0.0-21.0-0.19","prediction","","","",",",""
"null","<div style=""color:white; font-size:60px;"">+</div>","null","html-keyboard-response","637","1451093","0.0-21.0-1.19","fixation","","","","",""
"812.7500000409782","Stimuli/Hangul_F42.bmp","190","image-keyboard-response","638","1451907","0.0-21.0-2.19","c2_test",".","","","","."
"750.5200002342463","<p style=""color:white;""> Next Figure: Male or Female? </p>","188","html-keyboard-response","639","1452659","0.0-21.0-0.20","prediction","","","",",",""
"null","<div style=""color:white; font-size:60px;"">+</div>","null","html-keyboard-response","640","1453662","0.0-21.0-1.20","fixation","","","","",""
"835.0300001911819","Stimuli/Hangul_F30.bmp","190","image-keyboard-response","641","1454499","0.0-21.0-2.20","c2_test",".","","","","."
"421.6000000014901","<p style=""color:white;""> Next Figure: Male or Female? </p>","190","html-keyboard-response","642","1454923","0.0-21.0-0.21","prediction","","","",".",""
"null","<div style=""color:white; font-size:60px;"">+</div>","null","html-keyboard-response","643","1455925","0.0-21.0-1.21","fixation","","","","",""
"1164.5700000226498","Stimuli/Hangul_M40.bmp","190","image-keyboard-response","644","1457091","0.0-21.0-2.21","c2_test",",","","","","."
"718.9400000497699","<p style=""color:white;""> Next Figure: Male or Female? </p>","190","html-keyboard-response","645","1457811","0.0-21.0-0.22","prediction","","","",".",""
"null","<div style=""color:white; font-size:60px;"">+</div>","null","html-keyboard-response","646","1458812","0.0-21.0-1.22","fixation","","","","",""
"701.9549999386072","Stimuli/Hangul_F34.bmp","190","image-keyboard-response","647","1459515","0.0-21.0-2.22","c2_test",".","","","","."
"431.51000002399087","<p style=""color:white;""> Next Figure: Male or Female? </p>","190","html-keyboard-response","648","1459947","0.0-21.0-0.23","prediction","","","",".",""
"null","<div style=""color:white; font-size:60px;"">+</div>","null","html-keyboard-response","649","1460948","0.0-21.0-1.23","fixation","","","","",""
"478.1700000166893","Stimuli/Hangul_F31.bmp","190","image-keyboard-response","650","1461427","0.0-21.0-2.23","c2_test",".","","","","."
"431.1199998483062","<p style=""color:white;""> Next Figure: Male or Female? </p>","190","html-keyboard-response","651","1461859","0.0-21.0-0.24","prediction","","","",".",""
"null","<div style=""color:white; font-size:60px;"">+</div>","null","html-keyboard-response","652","1462862","0.0-21.0-1.24","fixation","","","","",""
"724.2299998179078","Stimuli/Hangul_F38.bmp","188","image-keyboard-response","653","1463587","0.0-21.0-2.24","c2_test",".","","","",","
"319.199999794364","<p style=""color:white;""> Next Figure: Male or Female? </p>","188","html-keyboard-response","654","1463907","0.0-21.0-0.25","prediction","","","",",",""
"null","<div style=""color:white; font-size:60px;"">+</div>","null","html-keyboard-response","655","1464908","0.0-21.0-1.25","fixation","","","","",""
