"rt","stimulus","key_press","trial_type","trial_index","time_elapsed","internal_node_id","test_part","correct_response","C1_train","C1","A","C2"
"2736.3099999784026","<p style=""color:white;"">Welcome to the experiment! Press any key to begin.</p>","32","html-keyboard-response","0","2751","0.0-0.0","","","","","",""
"25509.90499998443","<p style=""color:white;"">You will see a series of abstract figures. They are adaptations of signs in the Korean alphabet, but that is not important for this study. </p><p style=""color:white;"">Abstract figures sometimes have a more masculine or feminine shape. Here, each figure has already been assigned a gender as <q>Male</q> or <q>Female</q> by a panel of respondents in a pilot study. The respondents were not given specific instructions on how to do this, but were only told to use their intuition and to take into account the entire configuration of the stimulus. </p><p style=""color:white;"">Your task now is to guess the assigned gender of each figure. Please press the corresponding response keys to indicate your choice: </p><p style=""color:white;""> Male &#8594 <q>,</q> (comma)</p><p style=""color:white;""> Female &#8594 <q>.</q> (period)</p><p style=""color:white;"">Press either response keys to continue.</p>","188","html-keyboard-response","1","28267","0.0-1.0","","","","","",""
"13015.405000012834","<p style=""color:white;"">Your choice is correct if it matches the gender assigned by the majority of respondents in the pilot study.</p> <p style=""color:white;"">For each correct choice you will receive 2 cents. There will be 200 trials divided into 4 blocks of 50 trials. You will be able to take a break after every 50 trials.</p> <p style=""color:white;"">Press the space bar to continue.</p>","32","html-keyboard-response","2","41284","0.0-2.0","","","","","",""
"4617.434999992838","<p style=""color:white;"">Here are some examples.</p> <p style=""color:white;"">For each, guess whether the assigned figure is male-like or female-like and indicate your choice by pressing either response keys.</p> <p style=""color:white;"">Press the space bar to continue.</p>","32","html-keyboard-response","3","45904","0.0-3.0","","","","","",""
"null","<div style=""color:white; font-size:60px;"">+</div>","null","html-keyboard-response","4","48912","0.0-4.0-0.0","fixation","","","","",""
"1642.6600000122562","Stimuli/Hangul_E2.bmp","190","image-keyboard-response","5","50561","0.0-4.0-1.0","c1_train",".",".","","",""
"null","<div style=""color:white; font-size:60px;"">+</div>","null","html-keyboard-response","6","51564","0.0-4.0-0.1","fixation","","","","",""
"1535.135000012815","Stimuli/Hangul_E0.bmp","188","image-keyboard-response","7","53101","0.0-4.0-1.1","c1_train",",",",","","",""
"null","<div style=""color:white; font-size:60px;"">+</div>","null","html-keyboard-response","8","54105","0.0-4.0-0.2","fixation","","","","",""
"1278.584999992745","Stimuli/Hangul_E1.bmp","190","image-keyboard-response","9","55386","0.0-4.0-1.2","c1_train",",",".","","",""
"2984.9150000081863","<p style=""color:white;"">Let us begin! Press the space bar when you are ready to start block 1 of 4.</p> ","32","html-keyboard-response","10","58376","0.0-5.0","","","","","",""
"null","<div style=""color:white; font-size:60px;"">+</div>","null","html-keyboard-response","11","61381","0.0-6.0-0.0","fixation","","","","",""
"1655.319999990752","Stimuli/Hangul_F1.bmp","190","image-keyboard-response","12","63039","0.0-6.0-1.0","test",".","",".","",""
"null","<div style=""color:white; font-size:60px;"">+</div>","null","html-keyboard-response","13","64042","0.0-6.0-0.1","fixation","","","","",""
"1456.945000012638","Stimuli/Hangul_F22.bmp","188","image-keyboard-response","14","65504","0.0-6.0-1.1","test",".","",",","",""
"null","<div style=""color:white; font-size:60px;"">+</div>","null","html-keyboard-response","15","66506","0.0-6.0-0.2","fixation","","","","",""
"1442.4599999911152","Stimuli/Hangul_F12.bmp","188","image-keyboard-response","16","67952","0.0-6.0-1.2","test",".","",",","",""
"null","<div style=""color:white; font-size:60px;"">+</div>","null","html-keyboard-response","17","68955","0.0-6.0-0.3","fixation","","","","",""
"1843.684999999823","Stimuli/Hangul_F4.bmp","188","image-keyboard-response","18","70800","0.0-6.0-1.3","test",".","",",","",""
"null","<div style=""color:white; font-size:60px;"">+</div>","null","html-keyboard-response","19","71803","0.0-6.0-0.4","fixation","","","","",""
"1636.3800000108313","Stimuli/Hangul_F13.bmp","188","image-keyboard-response","20","73440","0.0-6.0-1.4","test",".","",",","",""
"null","<div style=""color:white; font-size:60px;"">+</div>","null","html-keyboard-response","21","74443","0.0-6.0-0.5","fixation","","","","",""
"1132.7049999963492","Stimuli/Hangul_F17.bmp","190","image-keyboard-response","22","75582","0.0-6.0-1.5","test",".","",".","",""
"null","<div style=""color:white; font-size:60px;"">+</div>","null","html-keyboard-response","23","76588","0.0-6.0-0.6","fixation","","","","",""
"1402.3600000073202","Stimuli/Hangul_F16.bmp","190","image-keyboard-response","24","77992","0.0-6.0-1.6","test",".","",".","",""
"null","<div style=""color:white; font-size:60px;"">+</div>","null","html-keyboard-response","25","78994","0.0-6.0-0.7","fixation","","","","",""
"1582.6149999920744","Stimuli/Hangul_M5.bmp","188","image-keyboard-response","26","80579","0.0-6.0-1.7","test",",","",",","",""
"null","<div style=""color:white; font-size:60px;"">+</div>","null","html-keyboard-response","27","81584","0.0-6.0-0.8","fixation","","","","",""
"2078.8899999752175","Stimuli/Hangul_F24.bmp","188","image-keyboard-response","28","83664","0.0-6.0-1.8","test",".","",",","",""
"null","<div style=""color:white; font-size:60px;"">+</div>","null","html-keyboard-response","29","84667","0.0-6.0-0.9","fixation","","","","",""
"1559.3400000070687","Stimuli/Hangul_M17.bmp","190","image-keyboard-response","30","86230","0.0-6.0-1.9","test",",","",".","",""
"null","<div style=""color:white; font-size:60px;"">+</div>","null","html-keyboard-response","31","87235","0.0-6.0-0.10","fixation","","","","",""
"1482.449999981327","Stimuli/Hangul_F20.bmp","190","image-keyboard-response","32","88721","0.0-6.0-1.10","test",".","",".","",""
"null","<div style=""color:white; font-size:60px;"">+</div>","null","html-keyboard-response","33","89726","0.0-6.0-0.11","fixation","","","","",""
"1416.5400000056252","Stimuli/Hangul_F23.bmp","190","image-keyboard-response","34","91146","0.0-6.0-1.11","test",".","",".","",""
"null","<div style=""color:white; font-size:60px;"">+</div>","null","html-keyboard-response","35","92150","0.0-6.0-0.12","fixation","","","","",""
"1616.020000015851","Stimuli/Hangul_M12.bmp","188","image-keyboard-response","36","93768","0.0-6.0-1.12","test",",","",",","",""
"null","<div style=""color:white; font-size:60px;"">+</div>","null","html-keyboard-response","37","94771","0.0-6.0-0.13","fixation","","","","",""
"1853.080000000773","Stimuli/Hangul_M0.bmp","188","image-keyboard-response","38","96628","0.0-6.0-1.13","test",",","",",","",""
"null","<div style=""color:white; font-size:60px;"">+</div>","null","html-keyboard-response","39","97633","0.0-6.0-0.14","fixation","","","","",""
"2085.3899999929126","Stimuli/Hangul_M18.bmp","190","image-keyboard-response","40","99721","0.0-6.0-1.14","test",",","",".","",""
"null","<div style=""color:white; font-size:60px;"">+</div>","null","html-keyboard-response","41","100724","0.0-6.0-0.15","fixation","","","","",""
"1489.560000016354","Stimuli/Hangul_F2.bmp","190","image-keyboard-response","42","102215","0.0-6.0-1.15","test",".","",".","",""
"null","<div style=""color:white; font-size:60px;"">+</div>","null","html-keyboard-response","43","103218","0.0-6.0-0.16","fixation","","","","",""
"1544.4949999800883","Stimuli/Hangul_F14.bmp","188","image-keyboard-response","44","104767","0.0-6.0-1.16","test",".","",",","",""
"null","<div style=""color:white; font-size:60px;"">+</div>","null","html-keyboard-response","45","105769","0.0-6.0-0.17","fixation","","","","",""
"1497.655000013765","Stimuli/Hangul_M13.bmp","188","image-keyboard-response","46","107270","0.0-6.0-1.17","test",",","",",","",""
"null","<div style=""color:white; font-size:60px;"">+</div>","null","html-keyboard-response","47","108277","0.0-6.0-0.18","fixation","","","","",""
"1781.4999999827705","Stimuli/Hangul_M2.bmp","188","image-keyboard-response","48","110065","0.0-6.0-1.18","test",",","",",","",""
"null","<div style=""color:white; font-size:60px;"">+</div>","null","html-keyboard-response","49","111069","0.0-6.0-0.19","fixation","","","","",""
"2122.0850000099745","Stimuli/Hangul_F3.bmp","188","image-keyboard-response","50","113192","0.0-6.0-1.19","test",".","",",","",""
"null","<div style=""color:white; font-size:60px;"">+</div>","null","html-keyboard-response","51","114199","0.0-6.0-0.20","fixation","","","","",""
"1254.3449999939185","Stimuli/Hangul_M20.bmp","190","image-keyboard-response","52","115455","0.0-6.0-1.20","test",",","",".","",""
"null","<div style=""color:white; font-size:60px;"">+</div>","null","html-keyboard-response","53","116458","0.0-6.0-0.21","fixation","","","","",""
"1317.6849999872502","Stimuli/Hangul_F6.bmp","190","image-keyboard-response","54","117777","0.0-6.0-1.21","test",".","",".","",""
"null","<div style=""color:white; font-size:60px;"">+</div>","null","html-keyboard-response","55","118779","0.0-6.0-0.22","fixation","","","","",""
"1762.6199999940582","Stimuli/Hangul_M1.bmp","188","image-keyboard-response","56","120543","0.0-6.0-1.22","test",",","",",","",""
"null","<div style=""color:white; font-size:60px;"">+</div>","null","html-keyboard-response","57","121546","0.0-6.0-0.23","fixation","","","","",""
"1404.0549999917857","Stimuli/Hangul_F19.bmp","190","image-keyboard-response","58","122953","0.0-6.0-1.23","test",".","",".","",""
"null","<div style=""color:white; font-size:60px;"">+</div>","null","html-keyboard-response","59","123957","0.0-6.0-0.24","fixation","","","","",""
"1456.7450000031386","Stimuli/Hangul_M11.bmp","188","image-keyboard-response","60","125415","0.0-6.0-1.24","test",",","",",","",""
"null","<div style=""color:white; font-size:60px;"">+</div>","null","html-keyboard-response","61","126417","0.0-6.0-0.25","fixation","","","","",""
"1667.3249999876134","Stimuli/Hangul_M7.bmp","190","image-keyboard-response","62","128086","0.0-6.0-1.25","test",",","",".","",""
"null","<div style=""color:white; font-size:60px;"">+</div>","null","html-keyboard-response","63","129091","0.0-6.0-0.26","fixation","","","","",""
"1456.6399999894202","Stimuli/Hangul_F8.bmp","188","image-keyboard-response","64","130551","0.0-6.0-1.26","test",".","",",","",""
"null","<div style=""color:white; font-size:60px;"">+</div>","null","html-keyboard-response","65","131553","0.0-6.0-0.27","fixation","","","","",""
"1691.7149999935646","Stimuli/Hangul_M14.bmp","188","image-keyboard-response","66","133248","0.0-6.0-1.27","test",",","",",","",""
"null","<div style=""color:white; font-size:60px;"">+</div>","null","html-keyboard-response","67","134250","0.0-6.0-0.28","fixation","","","","",""
"1411.759999988135","Stimuli/Hangul_F10.bmp","188","image-keyboard-response","68","135666","0.0-6.0-1.28","test",".","",",","",""
"null","<div style=""color:white; font-size:60px;"">+</div>","null","html-keyboard-response","69","136678","0.0-6.0-0.29","fixation","","","","",""
"1447.7049999986775","Stimuli/Hangul_M6.bmp","190","image-keyboard-response","70","138129","0.0-6.0-1.29","test",",","",".","",""
"null","<div style=""color:white; font-size:60px;"">+</div>","null","html-keyboard-response","71","139132","0.0-6.0-0.30","fixation","","","","",""
"1312.4800000223331","Stimuli/Hangul_M4.bmp","190","image-keyboard-response","72","140447","0.0-6.0-1.30","test",",","",".","",""
"null","<div style=""color:white; font-size:60px;"">+</div>","null","html-keyboard-response","73","141449","0.0-6.0-0.31","fixation","","","","",""
"1245.8649999753106","Stimuli/Hangul_F7.bmp","190","image-keyboard-response","74","142696","0.0-6.0-1.31","test",".","",".","",""
"null","<div style=""color:white; font-size:60px;"">+</div>","null","html-keyboard-response","75","143699","0.0-6.0-0.32","fixation","","","","",""
"1396.3199999998324","Stimuli/Hangul_M23.bmp","188","image-keyboard-response","76","145096","0.0-6.0-1.32","test",",","",",","",""
"null","<div style=""color:white; font-size:60px;"">+</div>","null","html-keyboard-response","77","146098","0.0-6.0-0.33","fixation","","","","",""
"1218.525000003865","Stimuli/Hangul_F21.bmp","190","image-keyboard-response","78","147319","0.0-6.0-1.33","test",".","",".","",""
"null","<div style=""color:white; font-size:60px;"">+</div>","null","html-keyboard-response","79","148322","0.0-6.0-0.34","fixation","","","","",""
"1487.890000018524","Stimuli/Hangul_M22.bmp","188","image-keyboard-response","80","149813","0.0-6.0-1.34","test",",","",",","",""
"null","<div style=""color:white; font-size:60px;"">+</div>","null","html-keyboard-response","81","150815","0.0-6.0-0.35","fixation","","","","",""
"1574.2500000051223","Stimuli/Hangul_M19.bmp","188","image-keyboard-response","82","152391","0.0-6.0-1.35","test",",","",",","",""
"null","<div style=""color:white; font-size:60px;"">+</div>","null","html-keyboard-response","83","153393","0.0-6.0-0.36","fixation","","","","",""
"1219.9799999943934","Stimuli/Hangul_F11.bmp","190","image-keyboard-response","84","154615","0.0-6.0-1.36","test",".","",".","",""
"null","<div style=""color:white; font-size:60px;"">+</div>","null","html-keyboard-response","85","155617","0.0-6.0-0.37","fixation","","","","",""
"1179.0000000037253","Stimuli/Hangul_M15.bmp","190","image-keyboard-response","86","156797","0.0-6.0-1.37","test",",","",".","",""
"null","<div style=""color:white; font-size:60px;"">+</div>","null","html-keyboard-response","87","157803","0.0-6.0-0.38","fixation","","","","",""
"1244.799999985844","Stimuli/Hangul_M16.bmp","190","image-keyboard-response","88","159050","0.0-6.0-1.38","test",",","",".","",""
"null","<div style=""color:white; font-size:60px;"">+</div>","null","html-keyboard-response","89","160055","0.0-6.0-0.39","fixation","","","","",""
"1801.9249999779277","Stimuli/Hangul_M8.bmp","190","image-keyboard-response","90","161862","0.0-6.0-1.39","test",",","",".","",""
"null","<div style=""color:white; font-size:60px;"">+</div>","null","html-keyboard-response","91","162866","0.0-6.0-0.40","fixation","","","","",""
"1130.1199999870732","Stimuli/Hangul_F15.bmp","190","image-keyboard-response","92","163999","0.0-6.0-1.40","test",".","",".","",""
"null","<div style=""color:white; font-size:60px;"">+</div>","null","html-keyboard-response","93","165001","0.0-6.0-0.41","fixation","","","","",""
"1819.999999977881","Stimuli/Hangul_F5.bmp","190","image-keyboard-response","94","166826","0.0-6.0-1.41","test",".","",".","",""
"null","<div style=""color:white; font-size:60px;"">+</div>","null","html-keyboard-response","95","167830","0.0-6.0-0.42","fixation","","","","",""
"1670.4550000140443","Stimuli/Hangul_F9.bmp","190","image-keyboard-response","96","169502","0.0-6.0-1.42","test",".","",".","",""
"null","<div style=""color:white; font-size:60px;"">+</div>","null","html-keyboard-response","97","170505","0.0-6.0-0.43","fixation","","","","",""
"1750.014999997802","Stimuli/Hangul_M9.bmp","188","image-keyboard-response","98","172256","0.0-6.0-1.43","test",",","",",","",""
"null","<div style=""color:white; font-size:60px;"">+</div>","null","html-keyboard-response","99","173259","0.0-6.0-0.44","fixation","","","","",""
"1456.5349999757018","Stimuli/Hangul_M24.bmp","190","image-keyboard-response","100","174719","0.0-6.0-1.44","test",",","",".","",""
"null","<div style=""color:white; font-size:60px;"">+</div>","null","html-keyboard-response","101","175721","0.0-6.0-0.45","fixation","","","","",""
"1357.9099999915343","Stimuli/Hangul_F18.bmp","190","image-keyboard-response","102","177081","0.0-6.0-1.45","test",".","",".","",""
"null","<div style=""color:white; font-size:60px;"">+</div>","null","html-keyboard-response","103","178086","0.0-6.0-0.46","fixation","","","","",""
"1236.7850000155158","Stimuli/Hangul_M21.bmp","190","image-keyboard-response","104","179327","0.0-6.0-1.46","test",",","",".","",""
"null","<div style=""color:white; font-size:60px;"">+</div>","null","html-keyboard-response","105","180329","0.0-6.0-0.47","fixation","","","","",""
"1531.6799999854993","Stimuli/Hangul_M10.bmp","190","image-keyboard-response","106","181863","0.0-6.0-1.47","test",",","",".","",""
"null","<div style=""color:white; font-size:60px;"">+</div>","null","html-keyboard-response","107","182866","0.0-6.0-0.48","fixation","","","","",""
"1435.1350000069942","Stimuli/Hangul_F0.bmp","188","image-keyboard-response","108","184305","0.0-6.0-1.48","test",".","",",","",""
"null","<div style=""color:white; font-size:60px;"">+</div>","null","html-keyboard-response","109","185310","0.0-6.0-0.49","fixation","","","","",""
"1436.6449999797624","Stimuli/Hangul_M3.bmp","190","image-keyboard-response","110","186750","0.0-6.0-1.49","test",",","",".","",""
"3903.6099999793805","<p style=""color:white;"">Good job, block 1 complete! Please take a moment to rest.</p> <p style=""color:white;"">When you are ready to continue with block 2 of 4, press the space bar.</p> ","32","html-keyboard-response","111","190657","0.0-7.0","","","","","",""
"null","<div style=""color:white; font-size:60px;"">+</div>","null","html-keyboard-response","112","193664","0.0-8.0-0.0","fixation","","","","",""
"1475.0950000016019","Stimuli/Hangul_M45.bmp","190","image-keyboard-response","113","195147","0.0-8.0-1.0","test",",","",".","",""
"null","<div style=""color:white; font-size:60px;"">+</div>","null","html-keyboard-response","114","196150","0.0-8.0-0.1","fixation","","","","",""
"1258.9100000041071","Stimuli/Hangul_F29.bmp","190","image-keyboard-response","115","197416","0.0-8.0-1.1","test",".","",".","",""
"null","<div style=""color:white; font-size:60px;"">+</div>","null","html-keyboard-response","116","198420","0.0-8.0-0.2","fixation","","","","",""
"1898.5150000080466","Stimuli/Hangul_M30.bmp","190","image-keyboard-response","117","200320","0.0-8.0-1.2","test",",","",".","",""
"null","<div style=""color:white; font-size:60px;"">+</div>","null","html-keyboard-response","118","201323","0.0-8.0-0.3","fixation","","","","",""
"1610.015000012936","Stimuli/Hangul_M29.bmp","188","image-keyboard-response","119","202935","0.0-8.0-1.3","test",",","",",","",""
"null","<div style=""color:white; font-size:60px;"">+</div>","null","html-keyboard-response","120","203936","0.0-8.0-0.4","fixation","","","","",""
"2085.7099999848288","Stimuli/Hangul_F36.bmp","190","image-keyboard-response","121","206023","0.0-8.0-1.4","test",".","",".","",""
"null","<div style=""color:white; font-size:60px;"">+</div>","null","html-keyboard-response","122","207026","0.0-8.0-0.5","fixation","","","","",""
"1620.4349999898113","Stimuli/Hangul_F46.bmp","188","image-keyboard-response","123","208647","0.0-8.0-1.5","test",".","",",","",""
"null","<div style=""color:white; font-size:60px;"">+</div>","null","html-keyboard-response","124","209651","0.0-8.0-0.6","fixation","","","","",""
"1539.9449999968056","Stimuli/Hangul_F42.bmp","188","image-keyboard-response","125","211193","0.0-8.0-1.6","test",".","",",","",""
"null","<div style=""color:white; font-size:60px;"">+</div>","null","html-keyboard-response","126","212198","0.0-8.0-0.7","fixation","","","","",""
"1836.2449999840464","Stimuli/Hangul_F32.bmp","188","image-keyboard-response","127","214038","0.0-8.0-1.7","test",".","",",","",""
"null","<div style=""color:white; font-size:60px;"">+</div>","null","html-keyboard-response","128","215040","0.0-8.0-0.8","fixation","","","","",""
"1262.6400000008289","Stimuli/Hangul_M46.bmp","190","image-keyboard-response","129","216303","0.0-8.0-1.8","test",",","",".","",""
"null","<div style=""color:white; font-size:60px;"">+</div>","null","html-keyboard-response","130","217304","0.0-8.0-0.9","fixation","","","","",""
"1380.829999980051","Stimuli/Hangul_F41.bmp","188","image-keyboard-response","131","218687","0.0-8.0-1.9","test",".","",",","",""
"null","<div style=""color:white; font-size:60px;"">+</div>","null","html-keyboard-response","132","219690","0.0-8.0-0.10","fixation","","","","",""
"1354.4350000156555","Stimuli/Hangul_M49.bmp","188","image-keyboard-response","133","221047","0.0-8.0-1.10","test",",","",",","",""
"null","<div style=""color:white; font-size:60px;"">+</div>","null","html-keyboard-response","134","222048","0.0-8.0-0.11","fixation","","","","",""
"1494.0849999838974","Stimuli/Hangul_M36.bmp","190","image-keyboard-response","135","223543","0.0-8.0-1.11","test",",","",".","",""
"null","<div style=""color:white; font-size:60px;"">+</div>","null","html-keyboard-response","136","224545","0.0-8.0-0.12","fixation","","","","",""
"1308.629999984987","Stimuli/Hangul_M47.bmp","188","image-keyboard-response","137","225855","0.0-8.0-1.12","test",",","",",","",""
"null","<div style=""color:white; font-size:60px;"">+</div>","null","html-keyboard-response","138","226857","0.0-8.0-0.13","fixation","","","","",""
"2139.709999988554","Stimuli/Hangul_F28.bmp","188","image-keyboard-response","139","228999","0.0-8.0-1.13","test",".","",",","",""
"null","<div style=""color:white; font-size:60px;"">+</div>","null","html-keyboard-response","140","230004","0.0-8.0-0.14","fixation","","","","",""
"1519.0249999868684","Stimuli/Hangul_M44.bmp","190","image-keyboard-response","141","231528","0.0-8.0-1.14","test",",","",".","",""
"null","<div style=""color:white; font-size:60px;"">+</div>","null","html-keyboard-response","142","232531","0.0-8.0-0.15","fixation","","","","",""
"2116.135000018403","Stimuli/Hangul_M25.bmp","188","image-keyboard-response","143","234650","0.0-8.0-1.15","test",",","",",","",""
"null","<div style=""color:white; font-size:60px;"">+</div>","null","html-keyboard-response","144","235655","0.0-8.0-0.16","fixation","","","","",""
"1344.3250000127591","Stimuli/Hangul_M42.bmp","190","image-keyboard-response","145","237002","0.0-8.0-1.16","test",",","",".","",""
"null","<div style=""color:white; font-size:60px;"">+</div>","null","html-keyboard-response","146","238006","0.0-8.0-0.17","fixation","","","","",""
"1496.0699999937788","Stimuli/Hangul_F49.bmp","190","image-keyboard-response","147","239506","0.0-8.0-1.17","test",".","",".","",""
"null","<div style=""color:white; font-size:60px;"">+</div>","null","html-keyboard-response","148","240511","0.0-8.0-0.18","fixation","","","","",""
"1241.4399999834131","Stimuli/Hangul_F26.bmp","190","image-keyboard-response","149","241753","0.0-8.0-1.18","test",".","",".","",""
"null","<div style=""color:white; font-size:60px;"">+</div>","null","html-keyboard-response","150","242757","0.0-8.0-0.19","fixation","","","","",""
"1433.4450000023935","Stimuli/Hangul_M26.bmp","188","image-keyboard-response","151","244193","0.0-8.0-1.19","test",",","",",","",""
"null","<div style=""color:white; font-size:60px;"">+</div>","null","html-keyboard-response","152","245197","0.0-8.0-0.20","fixation","","","","",""
"1161.3699999870732","Stimuli/Hangul_F40.bmp","190","image-keyboard-response","153","246360","0.0-8.0-1.20","test",".","",".","",""
"null","<div style=""color:white; font-size:60px;"">+</div>","null","html-keyboard-response","154","247361","0.0-8.0-0.21","fixation","","","","",""
"1316.8249999871477","Stimuli/Hangul_F37.bmp","190","image-keyboard-response","155","248680","0.0-8.0-1.21","test",".","",".","",""
"null","<div style=""color:white; font-size:60px;"">+</div>","null","html-keyboard-response","156","249684","0.0-8.0-0.22","fixation","","","","",""
"1634.2200000071898","Stimuli/Hangul_M37.bmp","190","image-keyboard-response","157","251321","0.0-8.0-1.22","test",",","",".","",""
"null","<div style=""color:white; font-size:60px;"">+</div>","null","html-keyboard-response","158","252326","0.0-8.0-0.23","fixation","","","","",""
"1432.9300000099465","Stimuli/Hangul_F30.bmp","188","image-keyboard-response","159","253761","0.0-8.0-1.23","test",".","",",","",""
"null","<div style=""color:white; font-size:60px;"">+</div>","null","html-keyboard-response","160","254764","0.0-8.0-0.24","fixation","","","","",""
"1353.1150000053458","Stimuli/Hangul_F44.bmp","188","image-keyboard-response","161","256119","0.0-8.0-1.24","test",".","",",","",""
"null","<div style=""color:white; font-size:60px;"">+</div>","null","html-keyboard-response","162","257122","0.0-8.0-0.25","fixation","","","","",""
"1397.594999987632","Stimuli/Hangul_F31.bmp","190","image-keyboard-response","163","258521","0.0-8.0-1.25","test",".","",".","",""
"null","<div style=""color:white; font-size:60px;"">+</div>","null","html-keyboard-response","164","259526","0.0-8.0-0.26","fixation","","","","",""
"1791.6649999970105","Stimuli/Hangul_F38.bmp","188","image-keyboard-response","165","261322","0.0-8.0-1.26","test",".","",",","",""
"null","<div style=""color:white; font-size:60px;"">+</div>","null","html-keyboard-response","166","262326","0.0-8.0-0.27","fixation","","","","",""
"1546.0049999819603","Stimuli/Hangul_M41.bmp","188","image-keyboard-response","167","263874","0.0-8.0-1.27","test",",","",",","",""
"null","<div style=""color:white; font-size:60px;"">+</div>","null","html-keyboard-response","168","264877","0.0-8.0-0.28","fixation","","","","",""
"2039.5000000135042","Stimuli/Hangul_F25.bmp","190","image-keyboard-response","169","266920","0.0-8.0-1.28","test",".","",".","",""
"null","<div style=""color:white; font-size:60px;"">+</div>","null","html-keyboard-response","170","267922","0.0-8.0-0.29","fixation","","","","",""
"1549.1849999816623","Stimuli/Hangul_M38.bmp","190","image-keyboard-response","171","269476","0.0-8.0-1.29","test",",","",".","",""
"null","<div style=""color:white; font-size:60px;"">+</div>","null","html-keyboard-response","172","270479","0.0-8.0-0.30","fixation","","","","",""
"1245.920000015758","Stimuli/Hangul_M39.bmp","190","image-keyboard-response","173","271727","0.0-8.0-1.30","test",",","",".","",""
"null","<div style=""color:white; font-size:60px;"">+</div>","null","html-keyboard-response","174","272729","0.0-8.0-0.31","fixation","","","","",""
"1363.214999990305","Stimuli/Hangul_F47.bmp","188","image-keyboard-response","175","274093","0.0-8.0-1.31","test",".","",",","",""
"null","<div style=""color:white; font-size:60px;"">+</div>","null","html-keyboard-response","176","275098","0.0-8.0-0.32","fixation","","","","",""
"1944.805000006454","Stimuli/Hangul_M40.bmp","190","image-keyboard-response","177","277047","0.0-8.0-1.32","test",",","",".","",""
"null","<div style=""color:white; font-size:60px;"">+</div>","null","html-keyboard-response","178","278049","0.0-8.0-0.33","fixation","","","","",""
"1666.6900000127498","Stimuli/Hangul_F45.bmp","188","image-keyboard-response","179","279722","0.0-8.0-1.33","test",".","",",","",""
"null","<div style=""color:white; font-size:60px;"">+</div>","null","html-keyboard-response","180","280726","0.0-8.0-0.34","fixation","","","","",""
"1616.2100000074133","Stimuli/Hangul_M27.bmp","188","image-keyboard-response","181","282344","0.0-8.0-1.34","test",",","",",","",""
"null","<div style=""color:white; font-size:60px;"">+</div>","null","html-keyboard-response","182","283348","0.0-8.0-0.35","fixation","","","","",""
"1490.075000008801","Stimuli/Hangul_F39.bmp","188","image-keyboard-response","183","284843","0.0-8.0-1.35","test",".","",",","",""
"null","<div style=""color:white; font-size:60px;"">+</div>","null","html-keyboard-response","184","285848","0.0-8.0-0.36","fixation","","","","",""
"1600.830000010319","Stimuli/Hangul_M48.bmp","190","image-keyboard-response","185","287460","0.0-8.0-1.36","test",",","",".","",""
"null","<div style=""color:white; font-size:60px;"">+</div>","null","html-keyboard-response","186","288462","0.0-8.0-0.37","fixation","","","","",""
"1488.9199999743141","Stimuli/Hangul_M33.bmp","188","image-keyboard-response","187","289953","0.0-8.0-1.37","test",",","",",","",""
"null","<div style=""color:white; font-size:60px;"">+</div>","null","html-keyboard-response","188","290957","0.0-8.0-0.38","fixation","","","","",""
"1334.5550000085495","Stimuli/Hangul_M31.bmp","188","image-keyboard-response","189","292294","0.0-8.0-1.38","test",",","",",","",""
"null","<div style=""color:white; font-size:60px;"">+</div>","null","html-keyboard-response","190","293296","0.0-8.0-0.39","fixation","","","","",""
"1398.8899999822024","Stimuli/Hangul_M43.bmp","188","image-keyboard-response","191","294697","0.0-8.0-1.39","test",",","",",","",""
"null","<div style=""color:white; font-size:60px;"">+</div>","null","html-keyboard-response","192","295701","0.0-8.0-0.40","fixation","","","","",""
"1501.315000001341","Stimuli/Hangul_F33.bmp","188","image-keyboard-response","193","297205","0.0-8.0-1.40","test",".","",",","",""
"null","<div style=""color:white; font-size:60px;"">+</div>","null","html-keyboard-response","194","298210","0.0-8.0-0.41","fixation","","","","",""
"1400.9249999944586","Stimuli/Hangul_M35.bmp","188","image-keyboard-response","195","299616","0.0-8.0-1.41","test",",","",",","",""
"null","<div style=""color:white; font-size:60px;"">+</div>","null","html-keyboard-response","196","300619","0.0-8.0-0.42","fixation","","","","",""
"1347.08999999566","Stimuli/Hangul_M34.bmp","188","image-keyboard-response","197","301967","0.0-8.0-1.42","test",",","",",","",""
"null","<div style=""color:white; font-size:60px;"">+</div>","null","html-keyboard-response","198","302971","0.0-8.0-0.43","fixation","","","","",""
"1529.1499999875668","Stimuli/Hangul_F48.bmp","188","image-keyboard-response","199","304502","0.0-8.0-1.43","test",".","",",","",""
"null","<div style=""color:white; font-size:60px;"">+</div>","null","html-keyboard-response","200","305506","0.0-8.0-0.44","fixation","","","","",""
"1218.6999999976251","Stimuli/Hangul_F35.bmp","190","image-keyboard-response","201","306726","0.0-8.0-1.44","test",".","",".","",""
"null","<div style=""color:white; font-size:60px;"">+</div>","null","html-keyboard-response","202","307729","0.0-8.0-0.45","fixation","","","","",""
"1884.714999992866","Stimuli/Hangul_M28.bmp","188","image-keyboard-response","203","309615","0.0-8.0-1.45","test",",","",",","",""
"null","<div style=""color:white; font-size:60px;"">+</div>","null","html-keyboard-response","204","310617","0.0-8.0-0.46","fixation","","","","",""
"1533.6649999953806","Stimuli/Hangul_F27.bmp","188","image-keyboard-response","205","312153","0.0-8.0-1.46","test",".","",",","",""
"null","<div style=""color:white; font-size:60px;"">+</div>","null","html-keyboard-response","206","313158","0.0-8.0-0.47","fixation","","","","",""
"3080.340000014985","Stimuli/Hangul_F43.bmp","188","image-keyboard-response","207","316241","0.0-8.0-1.47","test",".","",",","",""
"null","<div style=""color:white; font-size:60px;"">+</div>","null","html-keyboard-response","208","317246","0.0-8.0-0.48","fixation","","","","",""
"2464.2499999899883","Stimuli/Hangul_F34.bmp","188","image-keyboard-response","209","319715","0.0-8.0-1.48","test",".","",",","",""
"null","<div style=""color:white; font-size:60px;"">+</div>","null","html-keyboard-response","210","320719","0.0-8.0-0.49","fixation","","","","",""
"4963.125000009313","Stimuli/Hangul_M32.bmp","190","image-keyboard-response","211","325687","0.0-8.0-1.49","test",",","",".","",""
"5340.349999984028","<p style=""color:white;"">Half way there! Please take a moment to rest.</p> <p style=""color:white;"">When you are ready to continue with block 3 of 4, press the space bar.</p> ","32","html-keyboard-response","212","331031","0.0-9.0","","","","","",""
"null","<div style=""color:white; font-size:60px;"">+</div>","null","html-keyboard-response","213","334037","0.0-10.0-0.0","fixation","","","","",""
"1555.8400000154506","Stimuli/Hangul_F52.bmp","190","image-keyboard-response","214","335598","0.0-10.0-1.0","test",".","",".","",""
"null","<div style=""color:white; font-size:60px;"">+</div>","null","html-keyboard-response","215","336601","0.0-10.0-0.1","fixation","","","","",""
"1630.45999998576","Stimuli/Hangul_F50.bmp","188","image-keyboard-response","216","338233","0.0-10.0-1.1","test",".","",",","",""
"null","<div style=""color:white; font-size:60px;"">+</div>","null","html-keyboard-response","217","339237","0.0-10.0-0.2","fixation","","","","",""
"1376.524999999674","Stimuli/Hangul_M61.bmp","188","image-keyboard-response","218","340616","0.0-10.0-1.2","test",",","",",","",""
"null","<div style=""color:white; font-size:60px;"">+</div>","null","html-keyboard-response","219","341618","0.0-10.0-0.3","fixation","","","","",""
"1171.184999984689","Stimuli/Hangul_M74.bmp","188","image-keyboard-response","220","342792","0.0-10.0-1.3","test",",","",",","",""
"null","<div style=""color:white; font-size:60px;"">+</div>","null","html-keyboard-response","221","343795","0.0-10.0-0.4","fixation","","","","",""
"1162.7900000021327","Stimuli/Hangul_M63.bmp","188","image-keyboard-response","222","344959","0.0-10.0-1.4","test",",","",",","",""
"null","<div style=""color:white; font-size:60px;"">+</div>","null","html-keyboard-response","223","345963","0.0-10.0-0.5","fixation","","","","",""
"1396.775000001071","Stimuli/Hangul_M54.bmp","188","image-keyboard-response","224","347361","0.0-10.0-1.5","test",",","",",","",""
"null","<div style=""color:white; font-size:60px;"">+</div>","null","html-keyboard-response","225","348367","0.0-10.0-0.6","fixation","","","","",""
"1514.259999996284","Stimuli/Hangul_M67.bmp","188","image-keyboard-response","226","349887","0.0-10.0-1.6","test",",","",",","",""
"null","<div style=""color:white; font-size:60px;"">+</div>","null","html-keyboard-response","227","350888","0.0-10.0-0.7","fixation","","","","",""
"1279.819999996107","Stimuli/Hangul_M64.bmp","188","image-keyboard-response","228","352168","0.0-10.0-1.7","test",",","",",","",""
"null","<div style=""color:white; font-size:60px;"">+</div>","null","html-keyboard-response","229","353171","0.0-10.0-0.8","fixation","","","","",""
"1498.1649999972433","Stimuli/Hangul_M51.bmp","190","image-keyboard-response","230","354672","0.0-10.0-1.8","test",",","",".","",""
"null","<div style=""color:white; font-size:60px;"">+</div>","null","html-keyboard-response","231","355675","0.0-10.0-0.9","fixation","","","","",""
"1305.4750000010245","Stimuli/Hangul_F55.bmp","190","image-keyboard-response","232","356983","0.0-10.0-1.9","test",".","",".","",""
"null","<div style=""color:white; font-size:60px;"">+</div>","null","html-keyboard-response","233","357985","0.0-10.0-0.10","fixation","","","","",""
"1381.1050000076648","Stimuli/Hangul_M59.bmp","188","image-keyboard-response","234","359368","0.0-10.0-1.10","test",",","",",","",""
"null","<div style=""color:white; font-size:60px;"">+</div>","null","html-keyboard-response","235","360372","0.0-10.0-0.11","fixation","","","","",""
"1250.7600000244565","Stimuli/Hangul_F65.bmp","190","image-keyboard-response","236","361625","0.0-10.0-1.11","test",".","",".","",""
"null","<div style=""color:white; font-size:60px;"">+</div>","null","html-keyboard-response","237","362628","0.0-10.0-0.12","fixation","","","","",""
"1263.9800000179093","Stimuli/Hangul_F71.bmp","188","image-keyboard-response","238","363894","0.0-10.0-1.12","test",".","",",","",""
"null","<div style=""color:white; font-size:60px;"">+</div>","null","html-keyboard-response","239","364897","0.0-10.0-0.13","fixation","","","","",""
"1154.309999983525","Stimuli/Hangul_F70.bmp","190","image-keyboard-response","240","366055","0.0-10.0-1.13","test",".","",".","",""
"null","<div style=""color:white; font-size:60px;"">+</div>","null","html-keyboard-response","241","367056","0.0-10.0-0.14","fixation","","","","",""
"1414.4700000179","Stimuli/Hangul_M72.bmp","188","image-keyboard-response","242","368472","0.0-10.0-1.14","test",",","",",","",""
"null","<div style=""color:white; font-size:60px;"">+</div>","null","html-keyboard-response","243","369477","0.0-10.0-0.15","fixation","","","","",""
"1435.1500000047963","Stimuli/Hangul_F61.bmp","188","image-keyboard-response","244","370913","0.0-10.0-1.15","test",".","",",","",""
"null","<div style=""color:white; font-size:60px;"">+</div>","null","html-keyboard-response","245","371918","0.0-10.0-0.16","fixation","","","","",""
"2192.3700000043027","Stimuli/Hangul_F66.bmp","188","image-keyboard-response","246","374111","0.0-10.0-1.16","test",".","",",","",""
"null","<div style=""color:white; font-size:60px;"">+</div>","null","html-keyboard-response","247","375114","0.0-10.0-0.17","fixation","","","","",""
"1862.554999999702","Stimuli/Hangul_F68.bmp","190","image-keyboard-response","248","376981","0.0-10.0-1.17","test",".","",".","",""
"null","<div style=""color:white; font-size:60px;"">+</div>","null","html-keyboard-response","249","377985","0.0-10.0-0.18","fixation","","","","",""
"1669.7250000142958","Stimuli/Hangul_M69.bmp","188","image-keyboard-response","250","379657","0.0-10.0-1.18","test",",","",",","",""
"null","<div style=""color:white; font-size:60px;"">+</div>","null","html-keyboard-response","251","380663","0.0-10.0-0.19","fixation","","","","",""
"1502.8000000165775","Stimuli/Hangul_F69.bmp","190","image-keyboard-response","252","382170","0.0-10.0-1.19","test",".","",".","",""
"null","<div style=""color:white; font-size:60px;"">+</div>","null","html-keyboard-response","253","383175","0.0-10.0-0.20","fixation","","","","",""
"1754.9599999911152","Stimuli/Hangul_M66.bmp","190","image-keyboard-response","254","384934","0.0-10.0-1.20","test",",","",".","",""
"null","<div style=""color:white; font-size:60px;"">+</div>","null","html-keyboard-response","255","385937","0.0-10.0-0.21","fixation","","","","",""
"2020.315000001574","Stimuli/Hangul_M58.bmp","188","image-keyboard-response","256","387960","0.0-10.0-1.21","test",",","",",","",""
"null","<div style=""color:white; font-size:60px;"">+</div>","null","html-keyboard-response","257","388962","0.0-10.0-0.22","fixation","","","","",""
"1289.6049999981187","Stimuli/Hangul_M71.bmp","188","image-keyboard-response","258","390256","0.0-10.0-1.22","test",",","",",","",""
"null","<div style=""color:white; font-size:60px;"">+</div>","null","html-keyboard-response","259","391268","0.0-10.0-0.23","fixation","","","","",""
"1382.2600000130478","Stimuli/Hangul_F51.bmp","188","image-keyboard-response","260","392655","0.0-10.0-1.23","test",".","",",","",""
"null","<div style=""color:white; font-size:60px;"">+</div>","null","html-keyboard-response","261","393658","0.0-10.0-0.24","fixation","","","","",""
"1457.5449999829289","Stimuli/Hangul_M68.bmp","188","image-keyboard-response","262","395118","0.0-10.0-1.24","test",",","",",","",""
"null","<div style=""color:white; font-size:60px;"">+</div>","null","html-keyboard-response","263","396120","0.0-10.0-0.25","fixation","","","","",""
"1370.0449999887496","Stimuli/Hangul_F67.bmp","188","image-keyboard-response","264","397493","0.0-10.0-1.25","test",".","",",","",""
"null","<div style=""color:white; font-size:60px;"">+</div>","null","html-keyboard-response","265","398497","0.0-10.0-0.26","fixation","","","","",""
"1358.009999996284","Stimuli/Hangul_F56.bmp","190","image-keyboard-response","266","399857","0.0-10.0-1.26","test",".","",".","",""
"null","<div style=""color:white; font-size:60px;"">+</div>","null","html-keyboard-response","267","400860","0.0-10.0-0.27","fixation","","","","",""
"1169.2000000039116","Stimuli/Hangul_F54.bmp","190","image-keyboard-response","268","402032","0.0-10.0-1.27","test",".","",".","",""
"null","<div style=""color:white; font-size:60px;"">+</div>","null","html-keyboard-response","269","403035","0.0-10.0-0.28","fixation","","","","",""
"1313.7899999856018","Stimuli/Hangul_M73.bmp","190","image-keyboard-response","270","404351","0.0-10.0-1.28","test",",","",".","",""
"null","<div style=""color:white; font-size:60px;"">+</div>","null","html-keyboard-response","271","405354","0.0-10.0-0.29","fixation","","","","",""
"1416.8549999885727","Stimuli/Hangul_M52.bmp","188","image-keyboard-response","272","406774","0.0-10.0-1.29","test",",","",",","",""
"null","<div style=""color:white; font-size:60px;"">+</div>","null","html-keyboard-response","273","407776","0.0-10.0-0.30","fixation","","","","",""
"1310.1800000004005","Stimuli/Hangul_M62.bmp","188","image-keyboard-response","274","409087","0.0-10.0-1.30","test",",","",",","",""
"null","<div style=""color:white; font-size:60px;"">+</div>","null","html-keyboard-response","275","410091","0.0-10.0-0.31","fixation","","","","",""
"1263.3050000004005","Stimuli/Hangul_F63.bmp","190","image-keyboard-response","276","411359","0.0-10.0-1.31","test",".","",".","",""
"null","<div style=""color:white; font-size:60px;"">+</div>","null","html-keyboard-response","277","412362","0.0-10.0-0.32","fixation","","","","",""
"1617.9399999964517","Stimuli/Hangul_F72.bmp","188","image-keyboard-response","278","413984","0.0-10.0-1.32","test",".","",",","",""
"null","<div style=""color:white; font-size:60px;"">+</div>","null","html-keyboard-response","279","414989","0.0-10.0-0.33","fixation","","","","",""
"1391.3299999840092","Stimuli/Hangul_F57.bmp","190","image-keyboard-response","280","416385","0.0-10.0-1.33","test",".","",".","",""
"null","<div style=""color:white; font-size:60px;"">+</div>","null","html-keyboard-response","281","417389","0.0-10.0-0.34","fixation","","","","",""
"4234.685000003083","Stimuli/Hangul_M60.bmp","190","image-keyboard-response","282","421626","0.0-10.0-1.34","test",",","",".","",""
"null","<div style=""color:white; font-size:60px;"">+</div>","null","html-keyboard-response","283","422629","0.0-10.0-0.35","fixation","","","","",""
"3744.459999987157","Stimuli/Hangul_F60.bmp","190","image-keyboard-response","284","426375","0.0-10.0-1.35","test",".","",".","",""
"null","<div style=""color:white; font-size:60px;"">+</div>","null","html-keyboard-response","285","427379","0.0-10.0-0.36","fixation","","","","",""
"1296.3400000007823","Stimuli/Hangul_F74.bmp","188","image-keyboard-response","286","428678","0.0-10.0-1.36","test",".","",",","",""
"null","<div style=""color:white; font-size:60px;"">+</div>","null","html-keyboard-response","287","429681","0.0-10.0-0.37","fixation","","","","",""
"1243.9399999857415","Stimuli/Hangul_F64.bmp","190","image-keyboard-response","288","430927","0.0-10.0-1.37","test",".","",".","",""
"null","<div style=""color:white; font-size:60px;"">+</div>","null","html-keyboard-response","289","431929","0.0-10.0-0.38","fixation","","","","",""
"1313.3600000001024","Stimuli/Hangul_F73.bmp","188","image-keyboard-response","290","433245","0.0-10.0-1.38","test",".","",",","",""
"null","<div style=""color:white; font-size:60px;"">+</div>","null","html-keyboard-response","291","434249","0.0-10.0-0.39","fixation","","","","",""
"1277.4349999963306","Stimuli/Hangul_M50.bmp","190","image-keyboard-response","292","435528","0.0-10.0-1.39","test",",","",".","",""
"null","<div style=""color:white; font-size:60px;"">+</div>","null","html-keyboard-response","293","436533","0.0-10.0-0.40","fixation","","","","",""
"1192.170000023907","Stimuli/Hangul_M70.bmp","190","image-keyboard-response","294","437728","0.0-10.0-1.40","test",",","",".","",""
"null","<div style=""color:white; font-size:60px;"">+</div>","null","html-keyboard-response","295","438731","0.0-10.0-0.41","fixation","","","","",""
"1243.3100000198465","Stimuli/Hangul_M56.bmp","188","image-keyboard-response","296","439977","0.0-10.0-1.41","test",",","",",","",""
"null","<div style=""color:white; font-size:60px;"">+</div>","null","html-keyboard-response","297","440981","0.0-10.0-0.42","fixation","","","","",""
"1070.1999999873806","Stimuli/Hangul_F59.bmp","190","image-keyboard-response","298","442054","0.0-10.0-1.42","test",".","",".","",""
"null","<div style=""color:white; font-size:60px;"">+</div>","null","html-keyboard-response","299","443056","0.0-10.0-0.43","fixation","","","","",""
"1383.334999991348","Stimuli/Hangul_F58.bmp","188","image-keyboard-response","300","444442","0.0-10.0-1.43","test",".","",",","",""
"null","<div style=""color:white; font-size:60px;"">+</div>","null","html-keyboard-response","301","445445","0.0-10.0-0.44","fixation","","","","",""
"1544.0700000035577","Stimuli/Hangul_M55.bmp","188","image-keyboard-response","302","446992","0.0-10.0-1.44","test",",","",",","",""
"null","<div style=""color:white; font-size:60px;"">+</div>","null","html-keyboard-response","303","447995","0.0-10.0-0.45","fixation","","","","",""
"1275.3749999974389","Stimuli/Hangul_M57.bmp","188","image-keyboard-response","304","449272","0.0-10.0-1.45","test",",","",",","",""
"null","<div style=""color:white; font-size:60px;"">+</div>","null","html-keyboard-response","305","450275","0.0-10.0-0.46","fixation","","","","",""
"1218.815000000177","Stimuli/Hangul_F53.bmp","190","image-keyboard-response","306","451495","0.0-10.0-1.46","test",".","",".","",""
"null","<div style=""color:white; font-size:60px;"">+</div>","null","html-keyboard-response","307","452500","0.0-10.0-0.47","fixation","","","","",""
"1161.2700000114273","Stimuli/Hangul_M53.bmp","188","image-keyboard-response","308","453665","0.0-10.0-1.47","test",",","",",","",""
"null","<div style=""color:white; font-size:60px;"">+</div>","null","html-keyboard-response","309","454669","0.0-10.0-0.48","fixation","","","","",""
"1741.82500000461","Stimuli/Hangul_M65.bmp","190","image-keyboard-response","310","456416","0.0-10.0-1.48","test",",","",".","",""
"null","<div style=""color:white; font-size:60px;"">+</div>","null","html-keyboard-response","311","457417","0.0-10.0-0.49","fixation","","","","",""
"1222.765000013169","Stimuli/Hangul_F62.bmp","188","image-keyboard-response","312","458642","0.0-10.0-1.49","test",".","",",","",""
"157033.70499997982","<p style=""color:white;"">One more block to go! Please take a moment to rest.</p> <p style=""color:white;"">When you are ready to continue with block 4 of 4, press the space bar.</p> ","32","html-keyboard-response","313","615681","0.0-11.0","","","","","",""
"null","<div style=""color:white; font-size:60px;"">+</div>","null","html-keyboard-response","314","618687","0.0-12.0-0.0","fixation","","","","",""
"1523.7849999975879","Stimuli/Hangul_M96.bmp","190","image-keyboard-response","315","620214","0.0-12.0-1.0","test",",","",".","",""
"null","<div style=""color:white; font-size:60px;"">+</div>","null","html-keyboard-response","316","621217","0.0-12.0-0.1","fixation","","","","",""
"1725.0550000171643","Stimuli/Hangul_M88.bmp","190","image-keyboard-response","317","622944","0.0-12.0-1.1","test",",","",".","",""
"null","<div style=""color:white; font-size:60px;"">+</div>","null","html-keyboard-response","318","623947","0.0-12.0-0.2","fixation","","","","",""
"1362.0650000229944","Stimuli/Hangul_M89.bmp","190","image-keyboard-response","319","625311","0.0-12.0-1.2","test",",","",".","",""
"null","<div style=""color:white; font-size:60px;"">+</div>","null","html-keyboard-response","320","626316","0.0-12.0-0.3","fixation","","","","",""
"1156.7299999878742","Stimuli/Hangul_F88.bmp","190","image-keyboard-response","321","627476","0.0-12.0-1.3","test",".","",".","",""
"null","<div style=""color:white; font-size:60px;"">+</div>","null","html-keyboard-response","322","628483","0.0-12.0-0.4","fixation","","","","",""
"1265.9899999853224","Stimuli/Hangul_F99.bmp","188","image-keyboard-response","323","629753","0.0-12.0-1.4","test",".","",",","",""
"null","<div style=""color:white; font-size:60px;"">+</div>","null","html-keyboard-response","324","630757","0.0-12.0-0.5","fixation","","","","",""
"1758.895000006305","Stimuli/Hangul_F86.bmp","188","image-keyboard-response","325","632521","0.0-12.0-1.5","test",".","",",","",""
"null","<div style=""color:white; font-size:60px;"">+</div>","null","html-keyboard-response","326","633522","0.0-12.0-0.6","fixation","","","","",""
"1351.569999998901","Stimuli/Hangul_M80.bmp","188","image-keyboard-response","327","634880","0.0-12.0-1.6","test",",","",",","",""
"null","<div style=""color:white; font-size:60px;"">+</div>","null","html-keyboard-response","328","635882","0.0-12.0-0.7","fixation","","","","",""
"1176.7749999999069","Stimuli/Hangul_M82.bmp","190","image-keyboard-response","329","637062","0.0-12.0-1.7","test",",","",".","",""
"null","<div style=""color:white; font-size:60px;"">+</div>","null","html-keyboard-response","330","638065","0.0-12.0-0.8","fixation","","","","",""
"1129.8250000108965","Stimuli/Hangul_F96.bmp","190","image-keyboard-response","331","639197","0.0-12.0-1.8","test",".","",".","",""
"null","<div style=""color:white; font-size:60px;"">+</div>","null","html-keyboard-response","332","640200","0.0-12.0-0.9","fixation","","","","",""
"1710.384999983944","Stimuli/Hangul_F89.bmp","190","image-keyboard-response","333","641913","0.0-12.0-1.9","test",".","",".","",""
"null","<div style=""color:white; font-size:60px;"">+</div>","null","html-keyboard-response","334","642920","0.0-12.0-0.10","fixation","","","","",""
"1303.5000000090804","Stimuli/Hangul_F79.bmp","190","image-keyboard-response","335","644230","0.0-12.0-1.10","test",".","",".","",""
"null","<div style=""color:white; font-size:60px;"">+</div>","null","html-keyboard-response","336","645232","0.0-12.0-0.11","fixation","","","","",""
"1758.109999995213","Stimuli/Hangul_F93.bmp","190","image-keyboard-response","337","646993","0.0-12.0-1.11","test",".","",".","",""
"null","<div style=""color:white; font-size:60px;"">+</div>","null","html-keyboard-response","338","647997","0.0-12.0-0.12","fixation","","","","",""
"1608.4949999931268","Stimuli/Hangul_M84.bmp","188","image-keyboard-response","339","649607","0.0-12.0-1.12","test",",","",",","",""
"null","<div style=""color:white; font-size:60px;"">+</div>","null","html-keyboard-response","340","650608","0.0-12.0-0.13","fixation","","","","",""
"1413.5949999908917","Stimuli/Hangul_M97.bmp","190","image-keyboard-response","341","652024","0.0-12.0-1.13","test",",","",".","",""
"null","<div style=""color:white; font-size:60px;"">+</div>","null","html-keyboard-response","342","653028","0.0-12.0-0.14","fixation","","","","",""
"1490.7550000061747","Stimuli/Hangul_M83.bmp","188","image-keyboard-response","343","654520","0.0-12.0-1.14","test",",","",",","",""
"null","<div style=""color:white; font-size:60px;"">+</div>","null","html-keyboard-response","344","655524","0.0-12.0-0.15","fixation","","","","",""
"1368.9850000082515","Stimuli/Hangul_F84.bmp","188","image-keyboard-response","345","656896","0.0-12.0-1.15","test",".","",",","",""
"null","<div style=""color:white; font-size:60px;"">+</div>","null","html-keyboard-response","346","657900","0.0-12.0-0.16","fixation","","","","",""
"1382.7800000144634","Stimuli/Hangul_F76.bmp","188","image-keyboard-response","347","659285","0.0-12.0-1.16","test",".","",",","",""
"null","<div style=""color:white; font-size:60px;"">+</div>","null","html-keyboard-response","348","660287","0.0-12.0-0.17","fixation","","","","",""
"1478.579999995418","Stimuli/Hangul_M77.bmp","188","image-keyboard-response","349","661768","0.0-12.0-1.17","test",",","",",","",""
"null","<div style=""color:white; font-size:60px;"">+</div>","null","html-keyboard-response","350","662774","0.0-12.0-0.18","fixation","","","","",""
"1675.5349999875762","Stimuli/Hangul_M81.bmp","190","image-keyboard-response","351","664453","0.0-12.0-1.18","test",",","",".","",""
"null","<div style=""color:white; font-size:60px;"">+</div>","null","html-keyboard-response","352","665455","0.0-12.0-0.19","fixation","","","","",""
"1479.0649999922607","Stimuli/Hangul_M87.bmp","190","image-keyboard-response","353","666936","0.0-12.0-1.19","test",",","",".","",""
"null","<div style=""color:white; font-size:60px;"">+</div>","null","html-keyboard-response","354","667942","0.0-12.0-0.20","fixation","","","","",""
"1263.6449999990873","Stimuli/Hangul_F95.bmp","190","image-keyboard-response","355","669208","0.0-12.0-1.20","test",".","",".","",""
"null","<div style=""color:white; font-size:60px;"">+</div>","null","html-keyboard-response","356","670212","0.0-12.0-0.21","fixation","","","","",""
"1248.250000004191","Stimuli/Hangul_F75.bmp","188","image-keyboard-response","357","671461","0.0-12.0-1.21","test",".","",",","",""
"null","<div style=""color:white; font-size:60px;"">+</div>","null","html-keyboard-response","358","672464","0.0-12.0-0.22","fixation","","","","",""
"1324.4549999944866","Stimuli/Hangul_F94.bmp","190","image-keyboard-response","359","673790","0.0-12.0-1.22","test",".","",".","",""
"null","<div style=""color:white; font-size:60px;"">+</div>","null","html-keyboard-response","360","674791","0.0-12.0-0.23","fixation","","","","",""
"1140.270000003511","Stimuli/Hangul_M92.bmp","190","image-keyboard-response","361","675935","0.0-12.0-1.23","test",",","",".","",""
"null","<div style=""color:white; font-size:60px;"">+</div>","null","html-keyboard-response","362","676937","0.0-12.0-0.24","fixation","","","","",""
"1227.164999989327","Stimuli/Hangul_F80.bmp","190","image-keyboard-response","363","678165","0.0-12.0-1.24","test",".","",".","",""
"null","<div style=""color:white; font-size:60px;"">+</div>","null","html-keyboard-response","364","679168","0.0-12.0-0.25","fixation","","","","",""
"1867.5450000155251","Stimuli/Hangul_F82.bmp","190","image-keyboard-response","365","681038","0.0-12.0-1.25","test",".","",".","",""
"null","<div style=""color:white; font-size:60px;"">+</div>","null","html-keyboard-response","366","682042","0.0-12.0-0.26","fixation","","","","",""
"2013.8499999884516","Stimuli/Hangul_M78.bmp","188","image-keyboard-response","367","684059","0.0-12.0-1.26","test",",","",",","",""
"null","<div style=""color:white; font-size:60px;"">+</div>","null","html-keyboard-response","368","685063","0.0-12.0-0.27","fixation","","","","",""
"1826.969999994617","Stimuli/Hangul_M76.bmp","188","image-keyboard-response","369","686893","0.0-12.0-1.27","test",",","",",","",""
"null","<div style=""color:white; font-size:60px;"">+</div>","null","html-keyboard-response","370","687895","0.0-12.0-0.28","fixation","","","","",""
"1387.140000006184","Stimuli/Hangul_F97.bmp","190","image-keyboard-response","371","689286","0.0-12.0-1.28","test",".","",".","",""
"null","<div style=""color:white; font-size:60px;"">+</div>","null","html-keyboard-response","372","690289","0.0-12.0-0.29","fixation","","","","",""
"1132.7799999853596","Stimuli/Hangul_F87.bmp","190","image-keyboard-response","373","691424","0.0-12.0-1.29","test",".","",".","",""
"null","<div style=""color:white; font-size:60px;"">+</div>","null","html-keyboard-response","374","692427","0.0-12.0-0.30","fixation","","","","",""
"1351.8050000129733","Stimuli/Hangul_M79.bmp","188","image-keyboard-response","375","693781","0.0-12.0-1.30","test",",","",",","",""
"null","<div style=""color:white; font-size:60px;"">+</div>","null","html-keyboard-response","376","694783","0.0-12.0-0.31","fixation","","","","",""
"1394.6549999818671","Stimuli/Hangul_F83.bmp","188","image-keyboard-response","377","696182","0.0-12.0-1.31","test",".","",",","",""
"null","<div style=""color:white; font-size:60px;"">+</div>","null","html-keyboard-response","378","697184","0.0-12.0-0.32","fixation","","","","",""
"1293.3950000151526","Stimuli/Hangul_M86.bmp","188","image-keyboard-response","379","698478","0.0-12.0-1.32","test",",","",",","",""
"null","<div style=""color:white; font-size:60px;"">+</div>","null","html-keyboard-response","380","699480","0.0-12.0-0.33","fixation","","","","",""
"1380.1500000117812","Stimuli/Hangul_F77.bmp","190","image-keyboard-response","381","700862","0.0-12.0-1.33","test",".","",".","",""
"null","<div style=""color:white; font-size:60px;"">+</div>","null","html-keyboard-response","382","701865","0.0-12.0-0.34","fixation","","","","",""
"1378.3349999866914","Stimuli/Hangul_M93.bmp","188","image-keyboard-response","383","703247","0.0-12.0-1.34","test",",","",",","",""
"null","<div style=""color:white; font-size:60px;"">+</div>","null","html-keyboard-response","384","704250","0.0-12.0-0.35","fixation","","","","",""
"1368.4300000022631","Stimuli/Hangul_M91.bmp","190","image-keyboard-response","385","705622","0.0-12.0-1.35","test",",","",".","",""
"null","<div style=""color:white; font-size:60px;"">+</div>","null","html-keyboard-response","386","706624","0.0-12.0-0.36","fixation","","","","",""
"1170.1049999974202","Stimuli/Hangul_F81.bmp","190","image-keyboard-response","387","707797","0.0-12.0-1.36","test",".","",".","",""
"null","<div style=""color:white; font-size:60px;"">+</div>","null","html-keyboard-response","388","708801","0.0-12.0-0.37","fixation","","","","",""
"1299.3500000156928","Stimuli/Hangul_M95.bmp","190","image-keyboard-response","389","710105","0.0-12.0-1.37","test",",","",".","",""
"null","<div style=""color:white; font-size:60px;"">+</div>","null","html-keyboard-response","390","711109","0.0-12.0-0.38","fixation","","","","",""
"1262.3099999909755","Stimuli/Hangul_M94.bmp","190","image-keyboard-response","391","712375","0.0-12.0-1.38","test",",","",".","",""
"null","<div style=""color:white; font-size:60px;"">+</div>","null","html-keyboard-response","392","713380","0.0-12.0-0.39","fixation","","","","",""
"1286.6250000079162","Stimuli/Hangul_F90.bmp","190","image-keyboard-response","393","714669","0.0-12.0-1.39","test",".","",".","",""
"null","<div style=""color:white; font-size:60px;"">+</div>","null","html-keyboard-response","394","715673","0.0-12.0-0.40","fixation","","","","",""
"1419.0250000101514","Stimuli/Hangul_M98.bmp","188","image-keyboard-response","395","717096","0.0-12.0-1.40","test",",","",",","",""
"null","<div style=""color:white; font-size:60px;"">+</div>","null","html-keyboard-response","396","718100","0.0-12.0-0.41","fixation","","","","",""
"1166.7950000264682","Stimuli/Hangul_F98.bmp","190","image-keyboard-response","397","719270","0.0-12.0-1.41","test",".","",".","",""
"null","<div style=""color:white; font-size:60px;"">+</div>","null","html-keyboard-response","398","720276","0.0-12.0-0.42","fixation","","","","",""
"1176.1500000138767","Stimuli/Hangul_F85.bmp","190","image-keyboard-response","399","721456","0.0-12.0-1.42","test",".","",".","",""
"null","<div style=""color:white; font-size:60px;"">+</div>","null","html-keyboard-response","400","722460","0.0-12.0-0.43","fixation","","","","",""
"1313.5400000028312","Stimuli/Hangul_M85.bmp","188","image-keyboard-response","401","723776","0.0-12.0-1.43","test",",","",",","",""
"null","<div style=""color:white; font-size:60px;"">+</div>","null","html-keyboard-response","402","724780","0.0-12.0-0.44","fixation","","","","",""
"1855.5649999761954","Stimuli/Hangul_M75.bmp","188","image-keyboard-response","403","726638","0.0-12.0-1.44","test",",","",",","",""
"null","<div style=""color:white; font-size:60px;"">+</div>","null","html-keyboard-response","404","727640","0.0-12.0-0.45","fixation","","","","",""
"1220.69499999634","Stimuli/Hangul_F92.bmp","190","image-keyboard-response","405","728862","0.0-12.0-1.45","test",".","",".","",""
"null","<div style=""color:white; font-size:60px;"">+</div>","null","html-keyboard-response","406","729866","0.0-12.0-0.46","fixation","","","","",""
"1414.1900000104215","Stimuli/Hangul_F78.bmp","190","image-keyboard-response","407","731282","0.0-12.0-1.46","test",".","",".","",""
"null","<div style=""color:white; font-size:60px;"">+</div>","null","html-keyboard-response","408","732285","0.0-12.0-0.47","fixation","","","","",""
"1630.7450000022072","Stimuli/Hangul_M90.bmp","190","image-keyboard-response","409","733917","0.0-12.0-1.47","test",",","",".","",""
"null","<div style=""color:white; font-size:60px;"">+</div>","null","html-keyboard-response","410","734921","0.0-12.0-0.48","fixation","","","","",""
"2091.2699999753386","Stimuli/Hangul_M99.bmp","190","image-keyboard-response","411","737018","0.0-12.0-1.48","test",",","",".","",""
"null","<div style=""color:white; font-size:60px;"">+</div>","null","html-keyboard-response","412","738024","0.0-12.0-0.49","fixation","","","","",""
"1335.2350000059232","Stimuli/Hangul_F91.bmp","190","image-keyboard-response","413","739360","0.0-12.0-1.49","test",".","",".","",""
"2905.8099999965634","<p style=""color:white;"">Phase I of the experiment is complete.</p> <p style=""color:white;"">Press the space bar to proceed to Phase II of the experiment.</p> ","32","html-keyboard-response","414","742281","0.0-13.0","","","","","",""
"26972.440000012284","<p style=""color:white;"">Now we are interested in how well you can predict patterns in the series of figures. You will be asked to predict whether the next figure in the series is more male-like or female-like. When you see the <q>Next Figure</q> prompt, press the corresponding response keys to indicate your prediction: </p><p style=""color:white;""> Male &#8594 <q>,</q> (comma)</p><p style=""color:white;""> Female &#8594 <q>.</q> (period)</p><p style=""color:white;"">The actual figure will then appear on the screen. After you see the figure, please guess the assigned gender with response keys. </p><p style=""color:white;"">As before, you will receive 2 cents for correctly classifying each figure.</p><p style=""color:white;"">Press either response keys to continue.</p>","188","html-keyboard-response","415","771257","0.0-14.0","","","","","",""
"10059.429999993881","<p style=""color:white;"">PREDICTION BONUS</p> <p style=""color:white;"">Your prediction accuracy is the total number of correct predictions you make over the 200 trials.</p> <p style=""color:white;"">In addition to the 2 cents per correct figure classification, you have the chance to receive a bonus of 40 dollars IF your accuracy is above average relative to previous participants.</p><p style=""color:white;"">If your accuracy is below average relative to previous participants, then you will not receive the 40 dollar bonus.</p><p style=""color:white;"">Press the space bar to continue.</p>","32","html-keyboard-response","416","781319","0.0-15.0","","","","","",""
"7861.810000002151","<p style=""color:white;"">Here are some examples.</p> <p style=""color:white;"">For each, predict whether the next figure looks more male-like or female-like. Then, when the figure appears, guess whether it looks more male-like or female-like and indicate your choice.</p> <p style=""color:white;"">Press the space bar to continue.</p>","32","html-keyboard-response","417","789182","0.0-16.0","","","","","",""
"2165.3149999910966","<p style=""color:white;""> Next Figure: Male or Female? </p>","190","html-keyboard-response","418","793350","0.0-17.0-0.0","prediction_train","","","",".",""
"null","<div style=""color:white; font-size:60px;"">+</div>","null","html-keyboard-response","419","794352","0.0-17.0-1.0","fixation","","","","",""
"1010.5499999772292","Stimuli/Hangul_E1.bmp","190","image-keyboard-response","420","795367","0.0-17.0-2.0","c2_train",",","","","","."
"2668.245000008028","<p style=""color:white;""> Next Figure: Male or Female? </p>","190","html-keyboard-response","421","798039","0.0-17.0-0.1","prediction_train","","","",".",""
"null","<div style=""color:white; font-size:60px;"">+</div>","null","html-keyboard-response","422","799044","0.0-17.0-1.1","fixation","","","","",""
"1205.9399999852758","Stimuli/Hangul_E2.bmp","188","image-keyboard-response","423","800254","0.0-17.0-2.1","c2_train",".","","","",","
"1494.8300000105519","<p style=""color:white;""> Next Figure: Male or Female? </p>","188","html-keyboard-response","424","801751","0.0-17.0-0.2","prediction_train","","","",",",""
"null","<div style=""color:white; font-size:60px;"">+</div>","null","html-keyboard-response","425","802754","0.0-17.0-1.2","fixation","","","","",""
"967.1749999979511","Stimuli/Hangul_E0.bmp","188","image-keyboard-response","426","803725","0.0-17.0-2.2","c2_train",",","","","",","
"2032.0650000066962","<p style=""color:white;"">Let us begin! Press the space bar when you are ready to start block 1 of 4.</p> ","32","html-keyboard-response","427","805759","0.0-18.0","","","","","",""
"969.3499999993946","<p style=""color:white;""> Next Figure: Male or Female? </p>","188","html-keyboard-response","428","808734","0.0-19.0-0.0","prediction","","","",",",""
"null","<div style=""color:white; font-size:60px;"">+</div>","null","html-keyboard-response","429","809740","0.0-19.0-1.0","fixation","","","","",""
"911.4999999874271","Stimuli/Hangul_M20.bmp","190","image-keyboard-response","430","810655","0.0-19.0-2.0","c2_test",",","","","","."
"1116.344999987632","<p style=""color:white;""> Next Figure: Male or Female? </p>","190","html-keyboard-response","431","811775","0.0-19.0-0.1","prediction","","","",".",""
"null","<div style=""color:white; font-size:60px;"">+</div>","null","html-keyboard-response","432","812780","0.0-19.0-1.1","fixation","","","","",""
"862.2949999989942","Stimuli/Hangul_M1.bmp","188","image-keyboard-response","433","813647","0.0-19.0-2.1","c2_test",",","","","",","
"1058.8350000034552","<p style=""color:white;""> Next Figure: Male or Female? </p>","188","html-keyboard-response","434","814710","0.0-19.0-0.2","prediction","","","",",",""
"null","<div style=""color:white; font-size:60px;"">+</div>","null","html-keyboard-response","435","815714","0.0-19.0-1.2","fixation","","","","",""
"1010.1399999985006","Stimuli/Hangul_M17.bmp","188","image-keyboard-response","436","816727","0.0-19.0-2.2","c2_test",",","","","",","
"1100.4700000048615","<p style=""color:white;""> Next Figure: Male or Female? </p>","188","html-keyboard-response","437","817832","0.0-19.0-0.3","prediction","","","",",",""
"null","<div style=""color:white; font-size:60px;"">+</div>","null","html-keyboard-response","438","818836","0.0-19.0-1.3","fixation","","","","",""
"822.569999989355","Stimuli/Hangul_M16.bmp","190","image-keyboard-response","439","819663","0.0-19.0-2.3","c2_test",",","","","","."
"1644.5800000219606","<p style=""color:white;""> Next Figure: Male or Female? </p>","190","html-keyboard-response","440","821311","0.0-19.0-0.4","prediction","","","",".",""
"null","<div style=""color:white; font-size:60px;"">+</div>","null","html-keyboard-response","441","822315","0.0-19.0-1.4","fixation","","","","",""
"678.4049999841955","Stimuli/Hangul_F0.bmp","190","image-keyboard-response","442","822999","0.0-19.0-2.4","c2_test",".","","","","."
"835.3449999995064","<p style=""color:white;""> Next Figure: Male or Female? </p>","190","html-keyboard-response","443","823837","0.0-19.0-0.5","prediction","","","",".",""
"null","<div style=""color:white; font-size:60px;"">+</div>","null","html-keyboard-response","444","824838","0.0-19.0-1.5","fixation","","","","",""
"883.2600000023376","Stimuli/Hangul_M6.bmp","188","image-keyboard-response","445","825723","0.0-19.0-2.5","c2_test",",","","","",","
"1622.495000017807","<p style=""color:white;""> Next Figure: Male or Female? </p>","188","html-keyboard-response","446","827349","0.0-19.0-0.6","prediction","","","",",",""
"null","<div style=""color:white; font-size:60px;"">+</div>","null","html-keyboard-response","447","828352","0.0-19.0-1.6","fixation","","","","",""
"813.094999990426","Stimuli/Hangul_F9.bmp","190","image-keyboard-response","448","829169","0.0-19.0-2.6","c2_test",".","","","","."
"873.7299999920651","<p style=""color:white;""> Next Figure: Male or Female? </p>","190","html-keyboard-response","449","830046","0.0-19.0-0.7","prediction","","","",".",""
"null","<div style=""color:white; font-size:60px;"">+</div>","null","html-keyboard-response","450","831051","0.0-19.0-1.7","fixation","","","","",""
"624.7799999837298","Stimuli/Hangul_M15.bmp","190","image-keyboard-response","451","831679","0.0-19.0-2.7","c2_test",",","","","","."
"784.1699999989942","<p style=""color:white;""> Next Figure: Male or Female? </p>","190","html-keyboard-response","452","832470","0.0-19.0-0.8","prediction","","","",".",""
"null","<div style=""color:white; font-size:60px;"">+</div>","null","html-keyboard-response","453","833473","0.0-19.0-1.8","fixation","","","","",""
"564.4949999987148","Stimuli/Hangul_M4.bmp","190","image-keyboard-response","454","834041","0.0-19.0-2.8","c2_test",",","","","","."
"723.3849999902304","<p style=""color:white;""> Next Figure: Male or Female? </p>","190","html-keyboard-response","455","834767","0.0-19.0-0.9","prediction","","","",".",""
"null","<div style=""color:white; font-size:60px;"">+</div>","null","html-keyboard-response","456","835772","0.0-19.0-1.9","fixation","","","","",""
"2663.0050000094343","Stimuli/Hangul_F18.bmp","190","image-keyboard-response","457","838438","0.0-19.0-2.9","c2_test",".","","","","."
"823.534999974072","<p style=""color:white;""> Next Figure: Male or Female? </p>","190","html-keyboard-response","458","839263","0.0-19.0-0.10","prediction","","","",".",""
"null","<div style=""color:white; font-size:60px;"">+</div>","null","html-keyboard-response","459","840265","0.0-19.0-1.10","fixation","","","","",""
"763.8600000063889","Stimuli/Hangul_F23.bmp","190","image-keyboard-response","460","841031","0.0-19.0-2.10","c2_test",".","","","","."
"990.4499999829568","<p style=""color:white;""> Next Figure: Male or Female? </p>","188","html-keyboard-response","461","842023","0.0-19.0-0.11","prediction","","","",",",""
"null","<div style=""color:white; font-size:60px;"">+</div>","null","html-keyboard-response","462","843027","0.0-19.0-1.11","fixation","","","","",""
"178.01000000326894","Stimuli/Hangul_M14.bmp","188","image-keyboard-response","463","843207","0.0-19.0-2.11","c2_test",",","","","",","
"1229.1949999926146","<p style=""color:white;""> Next Figure: Male or Female? </p>","188","html-keyboard-response","464","844440","0.0-19.0-0.12","prediction","","","",",",""
"null","<div style=""color:white; font-size:60px;"">+</div>","null","html-keyboard-response","465","845444","0.0-19.0-1.12","fixation","","","","",""
"777.5100000144448","Stimuli/Hangul_F1.bmp","188","image-keyboard-response","466","846225","0.0-19.0-2.12","c2_test",".","","","",","
"899.3750000081491","<p style=""color:white;""> Next Figure: Male or Female? </p>","190","html-keyboard-response","467","847128","0.0-19.0-0.13","prediction","","","",".",""
"null","<div style=""color:white; font-size:60px;"">+</div>","null","html-keyboard-response","468","848131","0.0-19.0-1.13","fixation","","","","",""
"615.2799999981653","Stimuli/Hangul_M19.bmp","190","image-keyboard-response","469","848753","0.0-19.0-2.13","c2_test",",","","","","."
"1111.9400000025053","<p style=""color:white;""> Next Figure: Male or Female? </p>","190","html-keyboard-response","470","849869","0.0-19.0-0.14","prediction","","","",".",""
"null","<div style=""color:white; font-size:60px;"">+</div>","null","html-keyboard-response","471","850871","0.0-19.0-1.14","fixation","","","","",""
"1837.5149999919813","Stimuli/Hangul_F16.bmp","190","image-keyboard-response","472","852710","0.0-19.0-2.14","c2_test",".","","","","."
"1087.3499999870546","<p style=""color:white;""> Next Figure: Male or Female? </p>","190","html-keyboard-response","473","853799","0.0-19.0-0.15","prediction","","","",".",""
"null","<div style=""color:white; font-size:60px;"">+</div>","null","html-keyboard-response","474","854807","0.0-19.0-1.15","fixation","","","","",""
"628.404999995837","Stimuli/Hangul_F24.bmp","190","image-keyboard-response","475","855438","0.0-19.0-2.15","c2_test",".","","","","."
"776.1649999883957","<p style=""color:white;""> Next Figure: Male or Female? </p>","190","html-keyboard-response","476","856216","0.0-19.0-0.16","prediction","","","",".",""
"null","<div style=""color:white; font-size:60px;"">+</div>","null","html-keyboard-response","477","857220","0.0-19.0-1.16","fixation","","","","",""
"591.3449999934528","Stimuli/Hangul_M12.bmp","190","image-keyboard-response","478","857814","0.0-19.0-2.16","c2_test",",","","","","."
"703.3349999983329","<p style=""color:white;""> Next Figure: Male or Female? </p>","190","html-keyboard-response","479","858519","0.0-19.0-0.17","prediction","","","",".",""
"null","<div style=""color:white; font-size:60px;"">+</div>","null","html-keyboard-response","480","859522","0.0-19.0-1.17","fixation","","","","",""
"646.4900000137277","Stimuli/Hangul_F7.bmp","190","image-keyboard-response","481","860169","0.0-19.0-2.17","c2_test",".","","","","."
"754.4500000076368","<p style=""color:white;""> Next Figure: Male or Female? </p>","188","html-keyboard-response","482","860926","0.0-19.0-0.18","prediction","","","",",",""
"null","<div style=""color:white; font-size:60px;"">+</div>","null","html-keyboard-response","483","861928","0.0-19.0-1.18","fixation","","","","",""
"829.4499999901745","Stimuli/Hangul_M2.bmp","190","image-keyboard-response","484","862760","0.0-19.0-2.18","c2_test",",","","","","."
"1184.849999990547","<p style=""color:white;""> Next Figure: Male or Female? </p>","188","html-keyboard-response","485","863949","0.0-19.0-0.19","prediction","","","",",",""
"null","<div style=""color:white; font-size:60px;"">+</div>","null","html-keyboard-response","486","864951","0.0-19.0-1.19","fixation","","","","",""
"803.7499999918509","Stimuli/Hangul_F10.bmp","188","image-keyboard-response","487","865757","0.0-19.0-2.19","c2_test",".","","","",","
"863.5050000157207","<p style=""color:white;""> Next Figure: Male or Female? </p>","188","html-keyboard-response","488","866622","0.0-19.0-0.20","prediction","","","",",",""
"null","<div style=""color:white; font-size:60px;"">+</div>","null","html-keyboard-response","489","867623","0.0-19.0-1.20","fixation","","","","",""
"1127.1850000193808","Stimuli/Hangul_M5.bmp","188","image-keyboard-response","490","868752","0.0-19.0-2.20","c2_test",",","","","",","
"1052.1699999808334","<p style=""color:white;""> Next Figure: Male or Female? </p>","190","html-keyboard-response","491","869806","0.0-19.0-0.21","prediction","","","",".",""
"null","<div style=""color:white; font-size:60px;"">+</div>","null","html-keyboard-response","492","870810","0.0-19.0-1.21","fixation","","","","",""
"546.1500000092201","Stimuli/Hangul_F4.bmp","190","image-keyboard-response","493","871360","0.0-19.0-2.21","c2_test",".","","","","."
"749.5449999987613","<p style=""color:white;""> Next Figure: Male or Female? </p>","190","html-keyboard-response","494","872112","0.0-19.0-0.22","prediction","","","",".",""
"null","<div style=""color:white; font-size:60px;"">+</div>","null","html-keyboard-response","495","873116","0.0-19.0-1.22","fixation","","","","",""
"1097.2450000117533","Stimuli/Hangul_M24.bmp","190","image-keyboard-response","496","874217","0.0-19.0-2.22","c2_test",",","","","","."
"571.5049999998882","<p style=""color:white;""> Next Figure: Male or Female? </p>","190","html-keyboard-response","497","874792","0.0-19.0-0.23","prediction","","","",".",""
"null","<div style=""color:white; font-size:60px;"">+</div>","null","html-keyboard-response","498","875796","0.0-19.0-1.23","fixation","","","","",""
"1816.4049999904819","Stimuli/Hangul_M13.bmp","190","image-keyboard-response","499","877614","0.0-19.0-2.23","c2_test",",","","","","."
"959.7300000023097","<p style=""color:white;""> Next Figure: Male or Female? </p>","188","html-keyboard-response","500","878575","0.0-19.0-0.24","prediction","","","",",",""
"null","<div style=""color:white; font-size:60px;"">+</div>","null","html-keyboard-response","501","879578","0.0-19.0-1.24","fixation","","","","",""
"979.5500000182074","Stimuli/Hangul_F20.bmp","190","image-keyboard-response","502","880559","0.0-19.0-2.24","c2_test",".","","","","."
"900.9300000034273","<p style=""color:white;""> Next Figure: Male or Female? </p>","190","html-keyboard-response","503","881464","0.0-19.0-0.25","prediction","","","",".",""
"null","<div style=""color:white; font-size:60px;"">+</div>","null","html-keyboard-response","504","882467","0.0-19.0-1.25","fixation","","","","",""
"1771.4649999979883","Stimuli/Hangul_M7.bmp","190","image-keyboard-response","505","884241","0.0-19.0-2.25","c2_test",",","","","","."
"562.5","<p style=""color:white;""> Next Figure: Male or Female? </p>","190","html-keyboard-response","506","884807","0.0-19.0-0.26","prediction","","","",".",""
"null","<div style=""color:white; font-size:60px;"">+</div>","null","html-keyboard-response","507","885810","0.0-19.0-1.26","fixation","","","","",""
"826.969999994617","Stimuli/Hangul_F17.bmp","190","image-keyboard-response","508","886639","0.0-19.0-2.26","c2_test",".","","","","."
"883.5950000211596","<p style=""color:white;""> Next Figure: Male or Female? </p>","188","html-keyboard-response","509","887525","0.0-19.0-0.27","prediction","","","",",",""
"null","<div style=""color:white; font-size:60px;"">+</div>","null","html-keyboard-response","510","888528","0.0-19.0-1.27","fixation","","","","",""
"693.8400000217371","Stimuli/Hangul_M23.bmp","188","image-keyboard-response","511","889226","0.0-19.0-2.27","c2_test",",","","","",","
"811.199999996461","<p style=""color:white;""> Next Figure: Male or Female? </p>","188","html-keyboard-response","512","890041","0.0-19.0-0.28","prediction","","","",",",""
"null","<div style=""color:white; font-size:60px;"">+</div>","null","html-keyboard-response","513","891045","0.0-19.0-1.28","fixation","","","","",""
"1420.959999988554","Stimuli/Hangul_F2.bmp","188","image-keyboard-response","514","892470","0.0-19.0-2.28","c2_test",".","","","",","
"840.2950000017881","<p style=""color:white;""> Next Figure: Male or Female? </p>","188","html-keyboard-response","515","893312","0.0-19.0-0.29","prediction","","","",",",""
"null","<div style=""color:white; font-size:60px;"">+</div>","null","html-keyboard-response","516","894316","0.0-19.0-1.29","fixation","","","","",""
"865.0699999998324","Stimuli/Hangul_M8.bmp","188","image-keyboard-response","517","895184","0.0-19.0-2.29","c2_test",",","","","",","
"852.7499999909196","<p style=""color:white;""> Next Figure: Male or Female? </p>","188","html-keyboard-response","518","896045","0.0-19.0-0.30","prediction","","","",",",""
"null","<div style=""color:white; font-size:60px;"">+</div>","null","html-keyboard-response","519","897046","0.0-19.0-1.30","fixation","","","","",""
"688.2200000109151","Stimuli/Hangul_F8.bmp","188","image-keyboard-response","520","897736","0.0-19.0-2.30","c2_test",".","","","",","
"762.7550000033807","<p style=""color:white;""> Next Figure: Male or Female? </p>","188","html-keyboard-response","521","898501","0.0-19.0-0.31","prediction","","","",",",""
"null","<div style=""color:white; font-size:60px;"">+</div>","null","html-keyboard-response","522","899504","0.0-19.0-1.31","fixation","","","","",""
"1011.3199999905191","Stimuli/Hangul_M21.bmp","190","image-keyboard-response","523","900517","0.0-19.0-2.31","c2_test",",","","","","."
"999.149999988731","<p style=""color:white;""> Next Figure: Male or Female? </p>","190","html-keyboard-response","524","901517","0.0-19.0-0.32","prediction","","","",".",""
"null","<div style=""color:white; font-size:60px;"">+</div>","null","html-keyboard-response","525","902519","0.0-19.0-1.32","fixation","","","","",""
"921.8499999842606","Stimuli/Hangul_F22.bmp","190","image-keyboard-response","526","903445","0.0-19.0-2.32","c2_test",".","","","","."
"798.09500000556","<p style=""color:white;""> Next Figure: Male or Female? </p>","190","html-keyboard-response","527","904247","0.0-19.0-0.33","prediction","","","",".",""
"null","<div style=""color:white; font-size:60px;"">+</div>","null","html-keyboard-response","528","905254","0.0-19.0-1.33","fixation","","","","",""
"1204.0149999957066","Stimuli/Hangul_F13.bmp","190","image-keyboard-response","529","906462","0.0-19.0-2.33","c2_test",".","","","","."
"1118.8200000033248","<p style=""color:white;""> Next Figure: Male or Female? </p>","188","html-keyboard-response","530","907585","0.0-19.0-0.34","prediction","","","",",",""
"null","<div style=""color:white; font-size:60px;"">+</div>","null","html-keyboard-response","531","908592","0.0-19.0-1.34","fixation","","","","",""
"1092.7800000063144","Stimuli/Hangul_F12.bmp","190","image-keyboard-response","532","909694","0.0-19.0-2.34","c2_test",".","","","","."
"999.1900000022724","<p style=""color:white;""> Next Figure: Male or Female? </p>","188","html-keyboard-response","533","910697","0.0-19.0-0.35","prediction","","","",",",""
"null","<div style=""color:white; font-size:60px;"">+</div>","null","html-keyboard-response","534","911700","0.0-19.0-1.35","fixation","","","","",""
"797.5999999907799","Stimuli/Hangul_M10.bmp","188","image-keyboard-response","535","912501","0.0-19.0-2.35","c2_test",",","","","",","
"1290.7199999899603","<p style=""color:white;""> Next Figure: Male or Female? </p>","188","html-keyboard-response","536","913793","0.0-19.0-0.36","prediction","","","",",",""
"null","<div style=""color:white; font-size:60px;"">+</div>","null","html-keyboard-response","537","914797","0.0-19.0-1.36","fixation","","","","",""
"1974.4699999864679","Stimuli/Hangul_F19.bmp","190","image-keyboard-response","538","916776","0.0-19.0-2.36","c2_test",".","","","","."
"1339.3849999993108","<p style=""color:white;""> Next Figure: Male or Female? </p>","188","html-keyboard-response","539","918118","0.0-19.0-0.37","prediction","","","",",",""
"null","<div style=""color:white; font-size:60px;"">+</div>","null","html-keyboard-response","540","919121","0.0-19.0-1.37","fixation","","","","",""
"1391.7099999962375","Stimuli/Hangul_F21.bmp","188","image-keyboard-response","541","920517","0.0-19.0-2.37","c2_test",".","","","",","
"737.3350000125356","<p style=""color:white;""> Next Figure: Male or Female? </p>","190","html-keyboard-response","542","921256","0.0-19.0-0.38","prediction","","","",".",""
"null","<div style=""color:white; font-size:60px;"">+</div>","null","html-keyboard-response","543","922264","0.0-19.0-1.38","fixation","","","","",""
"977.7949999843258","Stimuli/Hangul_M9.bmp","190","image-keyboard-response","544","923247","0.0-19.0-2.38","c2_test",",","","","","."
"841.0300000105053","<p style=""color:white;""> Next Figure: Male or Female? </p>","190","html-keyboard-response","545","924092","0.0-19.0-0.39","prediction","","","",".",""
"null","<div style=""color:white; font-size:60px;"">+</div>","null","html-keyboard-response","546","925096","0.0-19.0-1.39","fixation","","","","",""
"1013.2449999800883","Stimuli/Hangul_F15.bmp","190","image-keyboard-response","547","926112","0.0-19.0-2.39","c2_test",".","","","","."
"585.9749999945052","<p style=""color:white;""> Next Figure: Male or Female? </p>","190","html-keyboard-response","548","926701","0.0-19.0-0.40","prediction","","","",".",""
"null","<div style=""color:white; font-size:60px;"">+</div>","null","html-keyboard-response","549","927705","0.0-19.0-1.40","fixation","","","","",""
"1457.3549999913666","Stimuli/Hangul_M11.bmp","188","image-keyboard-response","550","929165","0.0-19.0-2.40","c2_test",",","","","",","
"817.1500000171363","<p style=""color:white;""> Next Figure: Male or Female? </p>","188","html-keyboard-response","551","929984","0.0-19.0-0.41","prediction","","","",",",""
"null","<div style=""color:white; font-size:60px;"">+</div>","null","html-keyboard-response","552","930988","0.0-19.0-1.41","fixation","","","","",""
"838.3150000008754","Stimuli/Hangul_F3.bmp","188","image-keyboard-response","553","931829","0.0-19.0-2.41","c2_test",".","","","",","
"735.2050000044983","<p style=""color:white;""> Next Figure: Male or Female? </p>","188","html-keyboard-response","554","932565","0.0-19.0-0.42","prediction","","","",",",""
"null","<div style=""color:white; font-size:60px;"">+</div>","null","html-keyboard-response","555","933567","0.0-19.0-1.42","fixation","","","","",""
"918.6700000136625","Stimuli/Hangul_M0.bmp","188","image-keyboard-response","556","934488","0.0-19.0-2.42","c2_test",",","","","",","
"877.6649999781512","<p style=""color:white;""> Next Figure: Male or Female? </p>","190","html-keyboard-response","557","935368","0.0-19.0-0.43","prediction","","","",".",""
"null","<div style=""color:white; font-size:60px;"">+</div>","null","html-keyboard-response","558","936372","0.0-19.0-1.43","fixation","","","","",""
"625.4649999900721","Stimuli/Hangul_F14.bmp","190","image-keyboard-response","559","937000","0.0-19.0-2.43","c2_test",".","","","","."
"996.8449999869335","<p style=""color:white;""> Next Figure: Male or Female? </p>","190","html-keyboard-response","560","938000","0.0-19.0-0.44","prediction","","","",".",""
"null","<div style=""color:white; font-size:60px;"">+</div>","null","html-keyboard-response","561","939004","0.0-19.0-1.44","fixation","","","","",""
"1077.7150000212714","Stimuli/Hangul_F5.bmp","190","image-keyboard-response","562","940087","0.0-19.0-2.44","c2_test",".","","","","."
"757.995000021765","<p style=""color:white;""> Next Figure: Male or Female? </p>","190","html-keyboard-response","563","940847","0.0-19.0-0.45","prediction","","","",".",""
"null","<div style=""color:white; font-size:60px;"">+</div>","null","html-keyboard-response","564","941851","0.0-19.0-1.45","fixation","","","","",""
"736.6849999816623","Stimuli/Hangul_M18.bmp","190","image-keyboard-response","565","942589","0.0-19.0-2.45","c2_test",",","","","","."
"1065.6250000174623","<p style=""color:white;""> Next Figure: Male or Female? </p>","188","html-keyboard-response","566","943656","0.0-19.0-0.46","prediction","","","",",",""
"null","<div style=""color:white; font-size:60px;"">+</div>","null","html-keyboard-response","567","944661","0.0-19.0-1.46","fixation","","","","",""
"1471.110000013141","Stimuli/Hangul_M22.bmp","190","image-keyboard-response","568","946135","0.0-19.0-2.46","c2_test",",","","","","."
"901.4100000204053","<p style=""color:white;""> Next Figure: Male or Female? </p>","188","html-keyboard-response","569","947037","0.0-19.0-0.47","prediction","","","",",",""
"null","<div style=""color:white; font-size:60px;"">+</div>","null","html-keyboard-response","570","948039","0.0-19.0-1.47","fixation","","","","",""
"1046.5400000102818","Stimuli/Hangul_M3.bmp","188","image-keyboard-response","571","949088","0.0-19.0-2.47","c2_test",",","","","",","
"1028.294999996433","<p style=""color:white;""> Next Figure: Male or Female? </p>","190","html-keyboard-response","572","950119","0.0-19.0-0.48","prediction","","","",".",""
"null","<div style=""color:white; font-size:60px;"">+</div>","null","html-keyboard-response","573","951121","0.0-19.0-1.48","fixation","","","","",""
"659.8999999987427","Stimuli/Hangul_F11.bmp","190","image-keyboard-response","574","951782","0.0-19.0-2.48","c2_test",".","","","","."
"702.5450000073761","<p style=""color:white;""> Next Figure: Male or Female? </p>","190","html-keyboard-response","575","952486","0.0-19.0-0.49","prediction","","","",".",""
"null","<div style=""color:white; font-size:60px;"">+</div>","null","html-keyboard-response","576","953491","0.0-19.0-1.49","fixation","","","","",""
"817.0849999878556","Stimuli/Hangul_F6.bmp","190","image-keyboard-response","577","954309","0.0-19.0-2.49","c2_test",".","","","","."
"2053.474999993341","<p style=""color:white;"">Good job, block 1 complete! Please take a moment to rest.</p> <p style=""color:white;"">When you are ready to continue with block 2 of 4, press the space bar.</p> ","32","html-keyboard-response","578","956365","0.0-20.0","","","","","",""
"889.3099999986589","<p style=""color:white;""> Next Figure: Male or Female? </p>","188","html-keyboard-response","579","959261","0.0-21.0-0.0","prediction","","","",",",""
"null","<div style=""color:white; font-size:60px;"">+</div>","null","html-keyboard-response","580","960264","0.0-21.0-1.0","fixation","","","","",""
"847.570000012638","Stimuli/Hangul_M39.bmp","190","image-keyboard-response","581","961117","0.0-21.0-2.0","c2_test",",","","","","."
"853.9800000144169","<p style=""color:white;""> Next Figure: Male or Female? </p>","190","html-keyboard-response","582","961973","0.0-21.0-0.1","prediction","","","",".",""
"null","<div style=""color:white; font-size:60px;"">+</div>","null","html-keyboard-response","583","962976","0.0-21.0-1.1","fixation","","","","",""
"584.0699999826029","Stimuli/Hangul_M36.bmp","190","image-keyboard-response","584","963565","0.0-21.0-2.1","c2_test",",","","","","."
"742.9549999942537","<p style=""color:white;""> Next Figure: Male or Female? </p>","190","html-keyboard-response","585","964310","0.0-21.0-0.2","prediction","","","",".",""
"null","<div style=""color:white; font-size:60px;"">+</div>","null","html-keyboard-response","586","965313","0.0-21.0-1.2","fixation","","","","",""
"940.8150000090245","Stimuli/Hangul_M35.bmp","190","image-keyboard-response","587","966255","0.0-21.0-2.2","c2_test",",","","","","."
"794.9649999791291","<p style=""color:white;""> Next Figure: Male or Female? </p>","190","html-keyboard-response","588","967053","0.0-21.0-0.3","prediction","","","",".",""
"null","<div style=""color:white; font-size:60px;"">+</div>","null","html-keyboard-response","589","968054","0.0-21.0-1.3","fixation","","","","",""
"671.1899999936577","Stimuli/Hangul_M32.bmp","190","image-keyboard-response","590","968727","0.0-21.0-2.3","c2_test",",","","","","."
"730.6649999809451","<p style=""color:white;""> Next Figure: Male or Female? </p>","190","html-keyboard-response","591","969461","0.0-21.0-0.4","prediction","","","",".",""
"null","<div style=""color:white; font-size:60px;"">+</div>","null","html-keyboard-response","592","970464","0.0-21.0-1.4","fixation","","","","",""
"676.065000006929","Stimuli/Hangul_F36.bmp","190","image-keyboard-response","593","971143","0.0-21.0-2.4","c2_test",".","","","","."
"770.1950000191573","<p style=""color:white;""> Next Figure: Male or Female? </p>","188","html-keyboard-response","594","971917","0.0-21.0-0.5","prediction","","","",",",""
"null","<div style=""color:white; font-size:60px;"">+</div>","null","html-keyboard-response","595","972918","0.0-21.0-1.5","fixation","","","","",""
"837.4049999983981","Stimuli/Hangul_F49.bmp","190","image-keyboard-response","596","973757","0.0-21.0-2.5","c2_test",".","","","","."
"689.2700000025798","<p style=""color:white;""> Next Figure: Male or Female? </p>","190","html-keyboard-response","597","974448","0.0-21.0-0.6","prediction","","","",".",""
"null","<div style=""color:white; font-size:60px;"">+</div>","null","html-keyboard-response","598","975453","0.0-21.0-1.6","fixation","","","","",""
"1528.3050000143703","Stimuli/Hangul_M27.bmp","190","image-keyboard-response","599","976985","0.0-21.0-2.6","c2_test",",","","","","."
"729.8550000123214","<p style=""color:white;""> Next Figure: Male or Female? </p>","190","html-keyboard-response","600","977719","0.0-21.0-0.7","prediction","","","",".",""
"null","<div style=""color:white; font-size:60px;"">+</div>","null","html-keyboard-response","601","978722","0.0-21.0-1.7","fixation","","","","",""
"694.2749999871012","Stimuli/Hangul_F26.bmp","190","image-keyboard-response","602","979421","0.0-21.0-2.7","c2_test",".","","","","."
"709.5149999950081","<p style=""color:white;""> Next Figure: Male or Female? </p>","190","html-keyboard-response","603","980132","0.0-21.0-0.8","prediction","","","",".",""
"null","<div style=""color:white; font-size:60px;"">+</div>","null","html-keyboard-response","604","981136","0.0-21.0-1.8","fixation","","","","",""
"672.5399999995716","Stimuli/Hangul_M42.bmp","190","image-keyboard-response","605","981813","0.0-21.0-2.8","c2_test",",","","","","."
"623.3699999866076","<p style=""color:white;""> Next Figure: Male or Female? </p>","190","html-keyboard-response","606","982440","0.0-21.0-0.9","prediction","","","",".",""
"null","<div style=""color:white; font-size:60px;"">+</div>","null","html-keyboard-response","607","983444","0.0-21.0-1.9","fixation","","","","",""
"607.8850000048988","Stimuli/Hangul_M44.bmp","190","image-keyboard-response","608","984056","0.0-21.0-2.9","c2_test",",","","","","."
"714.4399999815505","<p style=""color:white;""> Next Figure: Male or Female? </p>","190","html-keyboard-response","609","984773","0.0-21.0-0.10","prediction","","","",".",""
"null","<div style=""color:white; font-size:60px;"">+</div>","null","html-keyboard-response","610","985778","0.0-21.0-1.10","fixation","","","","",""
"722.4399999831803","Stimuli/Hangul_F40.bmp","190","image-keyboard-response","611","986503","0.0-21.0-2.10","c2_test",".","","","","."
"1024.1900000255555","<p style=""color:white;""> Next Figure: Male or Female? </p>","188","html-keyboard-response","612","987530","0.0-21.0-0.11","prediction","","","",",",""
"null","<div style=""color:white; font-size:60px;"">+</div>","null","html-keyboard-response","613","988536","0.0-21.0-1.11","fixation","","","","",""
"952.8399999835528","Stimuli/Hangul_F29.bmp","188","image-keyboard-response","614","989493","0.0-21.0-2.11","c2_test",".","","","",","
"745.1749999891035","<p style=""color:white;""> Next Figure: Male or Female? </p>","188","html-keyboard-response","615","990240","0.0-21.0-0.12","prediction","","","",",",""
"null","<div style=""color:white; font-size:60px;"">+</div>","null","html-keyboard-response","616","991244","0.0-21.0-1.12","fixation","","","","",""
"830.5799999798182","Stimuli/Hangul_M37.bmp","190","image-keyboard-response","617","992077","0.0-21.0-2.12","c2_test",",","","","","."
"783.0600000161212","<p style=""color:white;""> Next Figure: Male or Female? </p>","188","html-keyboard-response","618","992862","0.0-21.0-0.13","prediction","","","",",",""
"null","<div style=""color:white; font-size:60px;"">+</div>","null","html-keyboard-response","619","993867","0.0-21.0-1.13","fixation","","","","",""
"842.594999994617","Stimuli/Hangul_F35.bmp","190","image-keyboard-response","620","994712","0.0-21.0-2.13","c2_test",".","","","","."
"908.7949999957345","<p style=""color:white;""> Next Figure: Male or Female? </p>","190","html-keyboard-response","621","995626","0.0-21.0-0.14","prediction","","","",".",""
"null","<div style=""color:white; font-size:60px;"">+</div>","null","html-keyboard-response","622","996630","0.0-21.0-1.14","fixation","","","","",""
"1342.8750000020955","Stimuli/Hangul_F28.bmp","188","image-keyboard-response","623","997976","0.0-21.0-2.14","c2_test",".","","","",","
"826.7349999805447","<p style=""color:white;""> Next Figure: Male or Female? </p>","188","html-keyboard-response","624","998806","0.0-21.0-0.15","prediction","","","",",",""
"null","<div style=""color:white; font-size:60px;"">+</div>","null","html-keyboard-response","625","999808","0.0-21.0-1.15","fixation","","","","",""
"722.3750000121072","Stimuli/Hangul_F44.bmp","188","image-keyboard-response","626","1000534","0.0-21.0-2.15","c2_test",".","","","",","
"884.6950000151992","<p style=""color:white;""> Next Figure: Male or Female? </p>","188","html-keyboard-response","627","1001423","0.0-21.0-0.16","prediction","","","",",",""
"null","<div style=""color:white; font-size:60px;"">+</div>","null","html-keyboard-response","628","1002427","0.0-21.0-1.16","fixation","","","","",""
"1054.1699999885168","Stimuli/Hangul_F32.bmp","188","image-keyboard-response","629","1003486","0.0-21.0-2.16","c2_test",".","","","",","
"1061.5299999772105","<p style=""color:white;""> Next Figure: Male or Female? </p>","188","html-keyboard-response","630","1004549","0.0-21.0-0.17","prediction","","","",",",""
"null","<div style=""color:white; font-size:60px;"">+</div>","null","html-keyboard-response","631","1005551","0.0-21.0-1.17","fixation","","","","",""
"797.9649999761023","Stimuli/Hangul_F45.bmp","188","image-keyboard-response","632","1006351","0.0-21.0-2.17","c2_test",".","","","",","
"1182.009999989532","<p style=""color:white;""> Next Figure: Male or Female? </p>","190","html-keyboard-response","633","1007534","0.0-21.0-0.18","prediction","","","",".",""
"null","<div style=""color:white; font-size:60px;"">+</div>","null","html-keyboard-response","634","1008537","0.0-21.0-1.18","fixation","","","","",""
"665.0900000240654","Stimuli/Hangul_M48.bmp","190","image-keyboard-response","635","1009205","0.0-21.0-2.18","c2_test",",","","","","."
"710.1949999923818","<p style=""color:white;""> Next Figure: Male or Female? </p>","190","html-keyboard-response","636","1009917","0.0-21.0-0.19","prediction","","","",".",""
"null","<div style=""color:white; font-size:60px;"">+</div>","null","html-keyboard-response","637","1010919","0.0-21.0-1.19","fixation","","","","",""
"1141.5349999733735","Stimuli/Hangul_M33.bmp","190","image-keyboard-response","638","1012063","0.0-21.0-2.19","c2_test",",","","","","."
"918.0950000009034","<p style=""color:white;""> Next Figure: Male or Female? </p>","190","html-keyboard-response","639","1012983","0.0-21.0-0.20","prediction","","","",".",""
"null","<div style=""color:white; font-size:60px;"">+</div>","null","html-keyboard-response","640","1013988","0.0-21.0-1.20","fixation","","","","",""
"1286.9399999908637","Stimuli/Hangul_M49.bmp","188","image-keyboard-response","641","1015278","0.0-21.0-2.20","c2_test",",","","","",","
"868.8299999921583","<p style=""color:white;""> Next Figure: Male or Female? </p>","190","html-keyboard-response","642","1016149","0.0-21.0-0.21","prediction","","","",".",""
"null","<div style=""color:white; font-size:60px;"">+</div>","null","html-keyboard-response","643","1017151","0.0-21.0-1.21","fixation","","","","",""
"604.1250000125729","Stimuli/Hangul_M46.bmp","190","image-keyboard-response","644","1017757","0.0-21.0-2.21","c2_test",",","","","","."
"724.2299999925308","<p style=""color:white;""> Next Figure: Male or Female? </p>","190","html-keyboard-response","645","1018484","0.0-21.0-0.22","prediction","","","",".",""
"null","<div style=""color:white; font-size:60px;"">+</div>","null","html-keyboard-response","646","1019488","0.0-21.0-1.22","fixation","","","","",""
"1292.0149999845307","Stimuli/Hangul_M29.bmp","190","image-keyboard-response","647","1020783","0.0-21.0-2.22","c2_test",",","","","","."
"711.4500000025146","<p style=""color:white;""> Next Figure: Male or Female? </p>","190","html-keyboard-response","648","1021500","0.0-21.0-0.23","prediction","","","",".",""
"null","<div style=""color:white; font-size:60px;"">+</div>","null","html-keyboard-response","649","1022506","0.0-21.0-1.23","fixation","","","","",""
"1146.9100000103936","Stimuli/Hangul_F39.bmp","190","image-keyboard-response","650","1023657","0.0-21.0-2.23","c2_test",".","","","","."
"761.8050000164658","<p style=""color:white;""> Next Figure: Male or Female? </p>","190","html-keyboard-response","651","1024422","0.0-21.0-0.24","prediction","","","",".",""
"null","<div style=""color:white; font-size:60px;"">+</div>","null","html-keyboard-response","652","1025427","0.0-21.0-1.24","fixation","","","","",""
"1273.060000006808","Stimuli/Hangul_F30.bmp","190","image-keyboard-response","653","1026702","0.0-21.0-2.24","c2_test",".","","","","."
"1262.8499999991618","<p style=""color:white;""> Next Figure: Male or Female? </p>","190","html-keyboard-response","654","1027967","0.0-21.0-0.25","prediction","","","",".",""
"null","<div style=""color:white; font-size:60px;"">+</div>","null","html-keyboard-response","655","1028973","0.0-21.0-1.25","fixation","","","","",""
"813.5400000028312","Stimuli/Hangul_F31.bmp","190","image-keyboard-response","656","1029790","0.0-21.0-2.25","c2_test",".","","","","."
