"rt","stimulus","key_press","trial_type","trial_index","time_elapsed","internal_node_id","test_part","correct_response","C1_train","C1","A","C2"
"2464.074999996228","<p style=""color:white;"">Welcome to the experiment! Press any key to begin.</p>","32","html-keyboard-response","0","2473","0.0-0.0","","","","","",""
"29333.60499999253","<p style=""color:white;"">You will see a series of abstract figures. They are adaptations of signs in the Korean alphabet, but that is not important for this study. </p><p style=""color:white;"">Abstract figures sometimes have a more masculine or feminine shape. Here, each figure has already been assigned a gender as <q>Male</q> or <q>Female</q> by a panel of respondents in a pilot study. The respondents were not given specific instructions on how to do this, but were only told to use their intuition and to take into account the entire configuration of the stimulus. </p><p style=""color:white;"">Your task now is to guess the assigned gender of each figure. Please press the corresponding response keys to indicate your choice: </p><p style=""color:white;""> Male &#8594 <q>,</q> (comma)</p><p style=""color:white;""> Female &#8594 <q>.</q> (period)</p><p style=""color:white;"">Press either response keys to continue.</p>","188","html-keyboard-response","1","31808","0.0-1.0","","","","","",""
"4503.484999993816","<p style=""color:white;"">Your choice is correct if it matches the gender assigned by the majority of respondents in the pilot study.</p> <p style=""color:white;"">For each correct choice you will receive 2 cents. There will be 200 trials divided into 4 blocks of 50 trials. You will be able to take a break after every 50 trials.</p> <p style=""color:white;"">Press the space bar to continue.</p>","32","html-keyboard-response","2","36313","0.0-2.0","","","","","",""
"919.289999990724","<p style=""color:white;"">Here are some examples.</p> <p style=""color:white;"">For each, guess whether the assigned figure is male-like or female-like and indicate your choice by pressing either response keys.</p> <p style=""color:white;"">Press the space bar to continue.</p>","32","html-keyboard-response","3","37233","0.0-3.0","","","","","",""
"null","<div style=""color:white; font-size:60px;"">+</div>","null","html-keyboard-response","4","40236","0.0-4.0-0.0","fixation","","","","",""
"1687.0099999941885","Stimuli/Hangul_E2.bmp","190","image-keyboard-response","5","41925","0.0-4.0-1.0","c1_train",".",".","","",""
"null","<div style=""color:white; font-size:60px;"">+</div>","null","html-keyboard-response","6","42927","0.0-4.0-0.1","fixation","","","","",""
"1477.0950000092853","Stimuli/Hangul_E1.bmp","190","image-keyboard-response","7","44405","0.0-4.0-1.1","c1_train",",",".","","",""
"null","<div style=""color:white; font-size:60px;"">+</div>","null","html-keyboard-response","8","45407","0.0-4.0-0.2","fixation","","","","",""
"629.8400000086986","Stimuli/Hangul_E0.bmp","190","image-keyboard-response","9","46038","0.0-4.0-1.2","c1_train",",",".","","",""
"1543.100000009872","<p style=""color:white;"">Let us begin! Press the space bar when you are ready to start block 1 of 4.</p> ","32","html-keyboard-response","10","47582","0.0-5.0","","","","","",""
"null","<div style=""color:white; font-size:60px;"">+</div>","null","html-keyboard-response","11","50584","0.0-6.0-0.0","fixation","","","","",""
"1504.864999995334","Stimuli/Hangul_F5.bmp","190","image-keyboard-response","12","52090","0.0-6.0-1.0","test",".","",".","",""
"null","<div style=""color:white; font-size:60px;"">+</div>","null","html-keyboard-response","13","53092","0.0-6.0-0.1","fixation","","","","",""
"1678.474999993341","Stimuli/Hangul_F22.bmp","188","image-keyboard-response","14","54771","0.0-6.0-1.1","test",".","",",","",""
"null","<div style=""color:white; font-size:60px;"">+</div>","null","html-keyboard-response","15","55773","0.0-6.0-0.2","fixation","","","","",""
"1420.7250000035856","Stimuli/Hangul_F2.bmp","188","image-keyboard-response","16","57195","0.0-6.0-1.2","test",".","",",","",""
"null","<div style=""color:white; font-size:60px;"">+</div>","null","html-keyboard-response","17","58196","0.0-6.0-0.3","fixation","","","","",""
"1298.0699999898206","Stimuli/Hangul_M4.bmp","190","image-keyboard-response","18","59495","0.0-6.0-1.3","test",",","",".","",""
"null","<div style=""color:white; font-size:60px;"">+</div>","null","html-keyboard-response","19","60497","0.0-6.0-0.4","fixation","","","","",""
"1269.1150000027847","Stimuli/Hangul_F17.bmp","190","image-keyboard-response","20","61767","0.0-6.0-1.4","test",".","",".","",""
"null","<div style=""color:white; font-size:60px;"">+</div>","null","html-keyboard-response","21","62768","0.0-6.0-0.5","fixation","","","","",""
"1439.4500000053085","Stimuli/Hangul_F8.bmp","190","image-keyboard-response","22","64208","0.0-6.0-1.5","test",".","",".","",""
"null","<div style=""color:white; font-size:60px;"">+</div>","null","html-keyboard-response","23","65211","0.0-6.0-0.6","fixation","","","","",""
"1395.1149999920744","Stimuli/Hangul_M23.bmp","190","image-keyboard-response","24","66607","0.0-6.0-1.6","test",",","",".","",""
"null","<div style=""color:white; font-size:60px;"">+</div>","null","html-keyboard-response","25","67610","0.0-6.0-0.7","fixation","","","","",""
"1393.9650000247639","Stimuli/Hangul_M24.bmp","188","image-keyboard-response","26","69005","0.0-6.0-1.7","test",",","",",","",""
"null","<div style=""color:white; font-size:60px;"">+</div>","null","html-keyboard-response","27","70006","0.0-6.0-0.8","fixation","","","","",""
"914.8850000055972","Stimuli/Hangul_F4.bmp","188","image-keyboard-response","28","70922","0.0-6.0-1.8","test",".","",",","",""
"null","<div style=""color:white; font-size:60px;"">+</div>","null","html-keyboard-response","29","71924","0.0-6.0-0.9","fixation","","","","",""
"1036.0250000085216","Stimuli/Hangul_M16.bmp","190","image-keyboard-response","30","72961","0.0-6.0-1.9","test",",","",".","",""
"null","<div style=""color:white; font-size:60px;"">+</div>","null","html-keyboard-response","31","73962","0.0-6.0-0.10","fixation","","","","",""
"1829.215000005206","Stimuli/Hangul_M10.bmp","188","image-keyboard-response","32","75792","0.0-6.0-1.10","test",",","",",","",""
"null","<div style=""color:white; font-size:60px;"">+</div>","null","html-keyboard-response","33","76794","0.0-6.0-0.11","fixation","","","","",""
"2238.500000006752","Stimuli/Hangul_F12.bmp","188","image-keyboard-response","34","79034","0.0-6.0-1.11","test",".","",",","",""
"null","<div style=""color:white; font-size:60px;"">+</div>","null","html-keyboard-response","35","80036","0.0-6.0-0.12","fixation","","","","",""
"1579.0050000068732","Stimuli/Hangul_F23.bmp","190","image-keyboard-response","36","81615","0.0-6.0-1.12","test",".","",".","",""
"null","<div style=""color:white; font-size:60px;"">+</div>","null","html-keyboard-response","37","82618","0.0-6.0-0.13","fixation","","","","",""
"1532.3050000006333","Stimuli/Hangul_M9.bmp","188","image-keyboard-response","38","84151","0.0-6.0-1.13","test",",","",",","",""
"null","<div style=""color:white; font-size:60px;"">+</div>","null","html-keyboard-response","39","85152","0.0-6.0-0.14","fixation","","","","",""
"1363.1750000058673","Stimuli/Hangul_F13.bmp","190","image-keyboard-response","40","86516","0.0-6.0-1.14","test",".","",".","",""
"null","<div style=""color:white; font-size:60px;"">+</div>","null","html-keyboard-response","41","87518","0.0-6.0-0.15","fixation","","","","",""
"1592.865000013262","Stimuli/Hangul_M19.bmp","188","image-keyboard-response","42","89112","0.0-6.0-1.15","test",",","",",","",""
"null","<div style=""color:white; font-size:60px;"">+</div>","null","html-keyboard-response","43","90114","0.0-6.0-0.16","fixation","","","","",""
"1483.2149999856483","Stimuli/Hangul_M21.bmp","190","image-keyboard-response","44","91598","0.0-6.0-1.16","test",",","",".","",""
"null","<div style=""color:white; font-size:60px;"">+</div>","null","html-keyboard-response","45","92599","0.0-6.0-0.17","fixation","","","","",""
"2346.6649999900255","Stimuli/Hangul_M0.bmp","188","image-keyboard-response","46","94947","0.0-6.0-1.17","test",",","",",","",""
"null","<div style=""color:white; font-size:60px;"">+</div>","null","html-keyboard-response","47","95948","0.0-6.0-0.18","fixation","","","","",""
"2073.4400000073947","Stimuli/Hangul_F19.bmp","188","image-keyboard-response","48","98022","0.0-6.0-1.18","test",".","",",","",""
"null","<div style=""color:white; font-size:60px;"">+</div>","null","html-keyboard-response","49","99024","0.0-6.0-0.19","fixation","","","","",""
"1805.289999989327","Stimuli/Hangul_F24.bmp","190","image-keyboard-response","50","100831","0.0-6.0-1.19","test",".","",".","",""
"null","<div style=""color:white; font-size:60px;"">+</div>","null","html-keyboard-response","51","101832","0.0-6.0-0.20","fixation","","","","",""
"1963.3349999785423","Stimuli/Hangul_F18.bmp","188","image-keyboard-response","52","103797","0.0-6.0-1.20","test",".","",",","",""
"null","<div style=""color:white; font-size:60px;"">+</div>","null","html-keyboard-response","53","104798","0.0-6.0-0.21","fixation","","","","",""
"1618.3850000088569","Stimuli/Hangul_M20.bmp","190","image-keyboard-response","54","106417","0.0-6.0-1.21","test",",","",".","",""
"null","<div style=""color:white; font-size:60px;"">+</div>","null","html-keyboard-response","55","107419","0.0-6.0-0.22","fixation","","","","",""
"1352.0250000001397","Stimuli/Hangul_F16.bmp","188","image-keyboard-response","56","108772","0.0-6.0-1.22","test",".","",",","",""
"null","<div style=""color:white; font-size:60px;"">+</div>","null","html-keyboard-response","57","109774","0.0-6.0-0.23","fixation","","","","",""
"1425.3000000026077","Stimuli/Hangul_F20.bmp","190","image-keyboard-response","58","111200","0.0-6.0-1.23","test",".","",".","",""
"null","<div style=""color:white; font-size:60px;"">+</div>","null","html-keyboard-response","59","112201","0.0-6.0-0.24","fixation","","","","",""
"1996.66000000434","Stimuli/Hangul_M2.bmp","190","image-keyboard-response","60","114199","0.0-6.0-1.24","test",",","",".","",""
"null","<div style=""color:white; font-size:60px;"">+</div>","null","html-keyboard-response","61","115200","0.0-6.0-0.25","fixation","","","","",""
"1857.6150000153575","Stimuli/Hangul_F7.bmp","190","image-keyboard-response","62","117057","0.0-6.0-1.25","test",".","",".","",""
"null","<div style=""color:white; font-size:60px;"">+</div>","null","html-keyboard-response","63","118059","0.0-6.0-0.26","fixation","","","","",""
"1945.735000015702","Stimuli/Hangul_F6.bmp","188","image-keyboard-response","64","120005","0.0-6.0-1.26","test",".","",",","",""
"null","<div style=""color:white; font-size:60px;"">+</div>","null","html-keyboard-response","65","121008","0.0-6.0-0.27","fixation","","","","",""
"1736.9350000226405","Stimuli/Hangul_M8.bmp","188","image-keyboard-response","66","122746","0.0-6.0-1.27","test",",","",",","",""
"null","<div style=""color:white; font-size:60px;"">+</div>","null","html-keyboard-response","67","123748","0.0-6.0-0.28","fixation","","","","",""
"1239.914999983739","Stimuli/Hangul_M1.bmp","188","image-keyboard-response","68","124989","0.0-6.0-1.28","test",",","",",","",""
"null","<div style=""color:white; font-size:60px;"">+</div>","null","html-keyboard-response","69","125991","0.0-6.0-0.29","fixation","","","","",""
"1723.2849999854807","Stimuli/Hangul_F10.bmp","188","image-keyboard-response","70","127715","0.0-6.0-1.29","test",".","",",","",""
"null","<div style=""color:white; font-size:60px;"">+</div>","null","html-keyboard-response","71","128717","0.0-6.0-0.30","fixation","","","","",""
"2004.159999982221","Stimuli/Hangul_M13.bmp","188","image-keyboard-response","72","130721","0.0-6.0-1.30","test",",","",",","",""
"null","<div style=""color:white; font-size:60px;"">+</div>","null","html-keyboard-response","73","131723","0.0-6.0-0.31","fixation","","","","",""
"1963.2050000072923","Stimuli/Hangul_M15.bmp","190","image-keyboard-response","74","133687","0.0-6.0-1.31","test",",","",".","",""
"null","<div style=""color:white; font-size:60px;"">+</div>","null","html-keyboard-response","75","134688","0.0-6.0-0.32","fixation","","","","",""
"1875.7099999929778","Stimuli/Hangul_M12.bmp","190","image-keyboard-response","76","136564","0.0-6.0-1.32","test",",","",".","",""
"null","<div style=""color:white; font-size:60px;"">+</div>","null","html-keyboard-response","77","137566","0.0-6.0-0.33","fixation","","","","",""
"1722.8249999752734","Stimuli/Hangul_F15.bmp","190","image-keyboard-response","78","139290","0.0-6.0-1.33","test",".","",".","",""
"null","<div style=""color:white; font-size:60px;"">+</div>","null","html-keyboard-response","79","140292","0.0-6.0-0.34","fixation","","","","",""
"1557.2749999992084","Stimuli/Hangul_M22.bmp","190","image-keyboard-response","80","141849","0.0-6.0-1.34","test",",","",".","",""
"null","<div style=""color:white; font-size:60px;"">+</div>","null","html-keyboard-response","81","142851","0.0-6.0-0.35","fixation","","","","",""
"1186.6399999998976","Stimuli/Hangul_M17.bmp","188","image-keyboard-response","82","144038","0.0-6.0-1.35","test",",","",",","",""
"null","<div style=""color:white; font-size:60px;"">+</div>","null","html-keyboard-response","83","145039","0.0-6.0-0.36","fixation","","","","",""
"1780.2499999816064","Stimuli/Hangul_M11.bmp","188","image-keyboard-response","84","146820","0.0-6.0-1.36","test",",","",",","",""
"null","<div style=""color:white; font-size:60px;"">+</div>","null","html-keyboard-response","85","147822","0.0-6.0-0.37","fixation","","","","",""
"1879.9400000134483","Stimuli/Hangul_M5.bmp","188","image-keyboard-response","86","149703","0.0-6.0-1.37","test",",","",",","",""
"null","<div style=""color:white; font-size:60px;"">+</div>","null","html-keyboard-response","87","150705","0.0-6.0-0.38","fixation","","","","",""
"1700.814999989234","Stimuli/Hangul_F11.bmp","188","image-keyboard-response","88","152406","0.0-6.0-1.38","test",".","",",","",""
"null","<div style=""color:white; font-size:60px;"">+</div>","null","html-keyboard-response","89","153408","0.0-6.0-0.39","fixation","","","","",""
"1361.2800000119023","Stimuli/Hangul_F9.bmp","190","image-keyboard-response","90","154770","0.0-6.0-1.39","test",".","",".","",""
"null","<div style=""color:white; font-size:60px;"">+</div>","null","html-keyboard-response","91","155772","0.0-6.0-0.40","fixation","","","","",""
"1758.2899999979418","Stimuli/Hangul_M6.bmp","188","image-keyboard-response","92","157531","0.0-6.0-1.40","test",",","",",","",""
"null","<div style=""color:white; font-size:60px;"">+</div>","null","html-keyboard-response","93","158534","0.0-6.0-0.41","fixation","","","","",""
"1395.4849999863654","Stimuli/Hangul_M14.bmp","188","image-keyboard-response","94","159930","0.0-6.0-1.41","test",",","",",","",""
"null","<div style=""color:white; font-size:60px;"">+</div>","null","html-keyboard-response","95","160932","0.0-6.0-0.42","fixation","","","","",""
"1819.259999989299","Stimuli/Hangul_F3.bmp","190","image-keyboard-response","96","162752","0.0-6.0-1.42","test",".","",".","",""
"null","<div style=""color:white; font-size:60px;"">+</div>","null","html-keyboard-response","97","163755","0.0-6.0-0.43","fixation","","","","",""
"1309.2650000180583","Stimuli/Hangul_M7.bmp","188","image-keyboard-response","98","165065","0.0-6.0-1.43","test",",","",",","",""
"null","<div style=""color:white; font-size:60px;"">+</div>","null","html-keyboard-response","99","166067","0.0-6.0-0.44","fixation","","","","",""
"968.4750000014901","Stimuli/Hangul_F21.bmp","190","image-keyboard-response","100","167036","0.0-6.0-1.44","test",".","",".","",""
"null","<div style=""color:white; font-size:60px;"">+</div>","null","html-keyboard-response","101","168038","0.0-6.0-0.45","fixation","","","","",""
"1120.4149999830406","Stimuli/Hangul_M3.bmp","190","image-keyboard-response","102","169159","0.0-6.0-1.45","test",",","",".","",""
"null","<div style=""color:white; font-size:60px;"">+</div>","null","html-keyboard-response","103","170161","0.0-6.0-0.46","fixation","","","","",""
"1864.9750000040513","Stimuli/Hangul_F0.bmp","188","image-keyboard-response","104","172027","0.0-6.0-1.46","test",".","",",","",""
"null","<div style=""color:white; font-size:60px;"">+</div>","null","html-keyboard-response","105","173032","0.0-6.0-0.47","fixation","","","","",""
"662.3949999921024","Stimuli/Hangul_M18.bmp","188","image-keyboard-response","106","173695","0.0-6.0-1.47","test",",","",",","",""
"null","<div style=""color:white; font-size:60px;"">+</div>","null","html-keyboard-response","107","174696","0.0-6.0-0.48","fixation","","","","",""
"872.4050000018906","Stimuli/Hangul_F14.bmp","190","image-keyboard-response","108","175569","0.0-6.0-1.48","test",".","",".","",""
"null","<div style=""color:white; font-size:60px;"">+</div>","null","html-keyboard-response","109","176570","0.0-6.0-0.49","fixation","","","","",""
"2595.084999979008","Stimuli/Hangul_F1.bmp","190","image-keyboard-response","110","179166","0.0-6.0-1.49","test",".","",".","",""
"88521.84999999008","<p style=""color:white;"">Good job, block 1 complete! Please take a moment to rest.</p> <p style=""color:white;"">When you are ready to continue with block 2 of 4, press the space bar.</p> ","32","html-keyboard-response","111","267688","0.0-7.0","","","","","",""
"null","<div style=""color:white; font-size:60px;"">+</div>","null","html-keyboard-response","112","270690","0.0-8.0-0.0","fixation","","","","",""
"1442.9999999993015","Stimuli/Hangul_M28.bmp","190","image-keyboard-response","113","272135","0.0-8.0-1.0","test",",","",".","",""
"null","<div style=""color:white; font-size:60px;"">+</div>","null","html-keyboard-response","114","273136","0.0-8.0-0.1","fixation","","","","",""
"1824.1850000049453","Stimuli/Hangul_F35.bmp","190","image-keyboard-response","115","274961","0.0-8.0-1.1","test",".","",".","",""
"null","<div style=""color:white; font-size:60px;"">+</div>","null","html-keyboard-response","116","275962","0.0-8.0-0.2","fixation","","","","",""
"1325.2750000101514","Stimuli/Hangul_F25.bmp","188","image-keyboard-response","117","277289","0.0-8.0-1.2","test",".","",",","",""
"null","<div style=""color:white; font-size:60px;"">+</div>","null","html-keyboard-response","118","278291","0.0-8.0-0.3","fixation","","","","",""
"1447.0950000104494","Stimuli/Hangul_M49.bmp","188","image-keyboard-response","119","279738","0.0-8.0-1.3","test",",","",",","",""
"null","<div style=""color:white; font-size:60px;"">+</div>","null","html-keyboard-response","120","280740","0.0-8.0-0.4","fixation","","","","",""
"1281.5600000030827","Stimuli/Hangul_M36.bmp","190","image-keyboard-response","121","282022","0.0-8.0-1.4","test",",","",".","",""
"null","<div style=""color:white; font-size:60px;"">+</div>","null","html-keyboard-response","122","283025","0.0-8.0-0.5","fixation","","","","",""
"925.695000012638","Stimuli/Hangul_F42.bmp","188","image-keyboard-response","123","283952","0.0-8.0-1.5","test",".","",",","",""
"null","<div style=""color:white; font-size:60px;"">+</div>","null","html-keyboard-response","124","284953","0.0-8.0-0.6","fixation","","","","",""
"902.555000007851","Stimuli/Hangul_F38.bmp","188","image-keyboard-response","125","285856","0.0-8.0-1.6","test",".","",",","",""
"null","<div style=""color:white; font-size:60px;"">+</div>","null","html-keyboard-response","126","286858","0.0-8.0-0.7","fixation","","","","",""
"1344.840000005206","Stimuli/Hangul_M39.bmp","190","image-keyboard-response","127","288204","0.0-8.0-1.7","test",",","",".","",""
"null","<div style=""color:white; font-size:60px;"">+</div>","null","html-keyboard-response","128","289206","0.0-8.0-0.8","fixation","","","","",""
"1125.1000000047497","Stimuli/Hangul_F41.bmp","188","image-keyboard-response","129","290331","0.0-8.0-1.8","test",".","",",","",""
"null","<div style=""color:white; font-size:60px;"">+</div>","null","html-keyboard-response","130","291332","0.0-8.0-0.9","fixation","","","","",""
"1215.4849999933504","Stimuli/Hangul_M44.bmp","188","image-keyboard-response","131","292549","0.0-8.0-1.9","test",",","",",","",""
"null","<div style=""color:white; font-size:60px;"">+</div>","null","html-keyboard-response","132","293551","0.0-8.0-0.10","fixation","","","","",""
"1560.0200000044424","Stimuli/Hangul_M37.bmp","190","image-keyboard-response","133","295111","0.0-8.0-1.10","test",",","",".","",""
"null","<div style=""color:white; font-size:60px;"">+</div>","null","html-keyboard-response","134","296113","0.0-8.0-0.11","fixation","","","","",""
"1318.490000005113","Stimuli/Hangul_F28.bmp","188","image-keyboard-response","135","297433","0.0-8.0-1.11","test",".","",",","",""
"null","<div style=""color:white; font-size:60px;"">+</div>","null","html-keyboard-response","136","298433","0.0-8.0-0.12","fixation","","","","",""
"910.2049999928568","Stimuli/Hangul_M33.bmp","190","image-keyboard-response","137","299344","0.0-8.0-1.12","test",",","",".","",""
"null","<div style=""color:white; font-size:60px;"">+</div>","null","html-keyboard-response","138","300346","0.0-8.0-0.13","fixation","","","","",""
"1172.6250000065193","Stimuli/Hangul_F43.bmp","190","image-keyboard-response","139","301520","0.0-8.0-1.13","test",".","",".","",""
"null","<div style=""color:white; font-size:60px;"">+</div>","null","html-keyboard-response","140","302521","0.0-8.0-0.14","fixation","","","","",""
"1487.1750000165775","Stimuli/Hangul_M40.bmp","188","image-keyboard-response","141","304008","0.0-8.0-1.14","test",",","",",","",""
"null","<div style=""color:white; font-size:60px;"">+</div>","null","html-keyboard-response","142","305010","0.0-8.0-0.15","fixation","","","","",""
"925.5100000009406","Stimuli/Hangul_F34.bmp","190","image-keyboard-response","143","305937","0.0-8.0-1.15","test",".","",".","",""
"null","<div style=""color:white; font-size:60px;"">+</div>","null","html-keyboard-response","144","306939","0.0-8.0-0.16","fixation","","","","",""
"1447.0949999813456","Stimuli/Hangul_F36.bmp","190","image-keyboard-response","145","308386","0.0-8.0-1.16","test",".","",".","",""
"null","<div style=""color:white; font-size:60px;"">+</div>","null","html-keyboard-response","146","309388","0.0-8.0-0.17","fixation","","","","",""
"1328.1500000157394","Stimuli/Hangul_M34.bmp","190","image-keyboard-response","147","310716","0.0-8.0-1.17","test",",","",".","",""
"null","<div style=""color:white; font-size:60px;"">+</div>","null","html-keyboard-response","148","311718","0.0-8.0-0.18","fixation","","","","",""
"932.3700000240933","Stimuli/Hangul_F40.bmp","188","image-keyboard-response","149","312651","0.0-8.0-1.18","test",".","",",","",""
"null","<div style=""color:white; font-size:60px;"">+</div>","null","html-keyboard-response","150","313654","0.0-8.0-0.19","fixation","","","","",""
"1394.7850000113249","Stimuli/Hangul_M43.bmp","190","image-keyboard-response","151","315049","0.0-8.0-1.19","test",",","",".","",""
"null","<div style=""color:white; font-size:60px;"">+</div>","null","html-keyboard-response","152","316051","0.0-8.0-0.20","fixation","","","","",""
"872.4199999996927","Stimuli/Hangul_M29.bmp","188","image-keyboard-response","153","316925","0.0-8.0-1.20","test",",","",",","",""
"null","<div style=""color:white; font-size:60px;"">+</div>","null","html-keyboard-response","154","317926","0.0-8.0-0.21","fixation","","","","",""
"1464.2650000168942","Stimuli/Hangul_F48.bmp","190","image-keyboard-response","155","319392","0.0-8.0-1.21","test",".","",".","",""
"null","<div style=""color:white; font-size:60px;"">+</div>","null","html-keyboard-response","156","320393","0.0-8.0-0.22","fixation","","","","",""
"999.5350000099279","Stimuli/Hangul_F37.bmp","188","image-keyboard-response","157","321394","0.0-8.0-1.22","test",".","",",","",""
"null","<div style=""color:white; font-size:60px;"">+</div>","null","html-keyboard-response","158","322397","0.0-8.0-0.23","fixation","","","","",""
"661.1499999999069","Stimuli/Hangul_M47.bmp","188","image-keyboard-response","159","323059","0.0-8.0-1.23","test",",","",",","",""
"null","<div style=""color:white; font-size:60px;"">+</div>","null","html-keyboard-response","160","324060","0.0-8.0-0.24","fixation","","","","",""
"995.5400000035297","Stimuli/Hangul_M27.bmp","188","image-keyboard-response","161","325057","0.0-8.0-1.24","test",",","",",","",""
"null","<div style=""color:white; font-size:60px;"">+</div>","null","html-keyboard-response","162","326058","0.0-8.0-0.25","fixation","","","","",""
"1080.1349999965169","Stimuli/Hangul_F30.bmp","190","image-keyboard-response","163","327139","0.0-8.0-1.25","test",".","",".","",""
"null","<div style=""color:white; font-size:60px;"">+</div>","null","html-keyboard-response","164","328141","0.0-8.0-0.26","fixation","","","","",""
"1807.234999985667","Stimuli/Hangul_F39.bmp","190","image-keyboard-response","165","329949","0.0-8.0-1.26","test",".","",".","",""
"null","<div style=""color:white; font-size:60px;"">+</div>","null","html-keyboard-response","166","330951","0.0-8.0-0.27","fixation","","","","",""
"1758.9000000152737","Stimuli/Hangul_M26.bmp","188","image-keyboard-response","167","332711","0.0-8.0-1.27","test",",","",",","",""
"null","<div style=""color:white; font-size:60px;"">+</div>","null","html-keyboard-response","168","333712","0.0-8.0-0.28","fixation","","","","",""
"1654.9400000076275","Stimuli/Hangul_M35.bmp","188","image-keyboard-response","169","335368","0.0-8.0-1.28","test",",","",",","",""
"null","<div style=""color:white; font-size:60px;"">+</div>","null","html-keyboard-response","170","336369","0.0-8.0-0.29","fixation","","","","",""
"1417.5749999994878","Stimuli/Hangul_M30.bmp","188","image-keyboard-response","171","337788","0.0-8.0-1.29","test",",","",",","",""
"null","<div style=""color:white; font-size:60px;"">+</div>","null","html-keyboard-response","172","338790","0.0-8.0-0.30","fixation","","","","",""
"1399.024999991525","Stimuli/Hangul_F46.bmp","188","image-keyboard-response","173","340190","0.0-8.0-1.30","test",".","",",","",""
"null","<div style=""color:white; font-size:60px;"">+</div>","null","html-keyboard-response","174","341191","0.0-8.0-0.31","fixation","","","","",""
"1464.3299999879673","Stimuli/Hangul_M38.bmp","190","image-keyboard-response","175","342656","0.0-8.0-1.31","test",",","",".","",""
"null","<div style=""color:white; font-size:60px;"">+</div>","null","html-keyboard-response","176","343657","0.0-8.0-0.32","fixation","","","","",""
"1112.3999999836087","Stimuli/Hangul_F33.bmp","190","image-keyboard-response","177","344770","0.0-8.0-1.32","test",".","",".","",""
"null","<div style=""color:white; font-size:60px;"">+</div>","null","html-keyboard-response","178","345771","0.0-8.0-0.33","fixation","","","","",""
"1233.0950000032317","Stimuli/Hangul_M41.bmp","190","image-keyboard-response","179","347005","0.0-8.0-1.33","test",",","",".","",""
"null","<div style=""color:white; font-size:60px;"">+</div>","null","html-keyboard-response","180","348006","0.0-8.0-0.34","fixation","","","","",""
"443.1850000109989","Stimuli/Hangul_F31.bmp","190","image-keyboard-response","181","348450","0.0-8.0-1.34","test",".","",".","",""
"null","<div style=""color:white; font-size:60px;"">+</div>","null","html-keyboard-response","182","349451","0.0-8.0-0.35","fixation","","","","",""
"920.9899999841582","Stimuli/Hangul_M25.bmp","190","image-keyboard-response","183","350373","0.0-8.0-1.35","test",",","",".","",""
"null","<div style=""color:white; font-size:60px;"">+</div>","null","html-keyboard-response","184","351375","0.0-8.0-0.36","fixation","","","","",""
"564.9150000244845","Stimuli/Hangul_F49.bmp","190","image-keyboard-response","185","351940","0.0-8.0-1.36","test",".","",".","",""
"null","<div style=""color:white; font-size:60px;"">+</div>","null","html-keyboard-response","186","352942","0.0-8.0-0.37","fixation","","","","",""
"1068.3999999891967","Stimuli/Hangul_M42.bmp","190","image-keyboard-response","187","354011","0.0-8.0-1.37","test",",","",".","",""
"null","<div style=""color:white; font-size:60px;"">+</div>","null","html-keyboard-response","188","355012","0.0-8.0-0.38","fixation","","","","",""
"1447.2599999862723","Stimuli/Hangul_F44.bmp","190","image-keyboard-response","189","356460","0.0-8.0-1.38","test",".","",".","",""
"null","<div style=""color:white; font-size:60px;"">+</div>","null","html-keyboard-response","190","357461","0.0-8.0-0.39","fixation","","","","",""
"1685.010000015609","Stimuli/Hangul_F27.bmp","190","image-keyboard-response","191","359146","0.0-8.0-1.39","test",".","",".","",""
"null","<div style=""color:white; font-size:60px;"">+</div>","null","html-keyboard-response","192","360149","0.0-8.0-0.40","fixation","","","","",""
"479.53000001143664","Stimuli/Hangul_M45.bmp","190","image-keyboard-response","193","360629","0.0-8.0-1.40","test",",","",".","",""
"null","<div style=""color:white; font-size:60px;"">+</div>","null","html-keyboard-response","194","361631","0.0-8.0-0.41","fixation","","","","",""
"266.57500001601875","Stimuli/Hangul_M48.bmp","190","image-keyboard-response","195","361898","0.0-8.0-1.41","test",",","",".","",""
"null","<div style=""color:white; font-size:60px;"">+</div>","null","html-keyboard-response","196","362899","0.0-8.0-0.42","fixation","","","","",""
"1079.2300000030082","Stimuli/Hangul_F45.bmp","190","image-keyboard-response","197","363979","0.0-8.0-1.42","test",".","",".","",""
"null","<div style=""color:white; font-size:60px;"">+</div>","null","html-keyboard-response","198","364982","0.0-8.0-0.43","fixation","","","","",""
"1591.5299999760464","Stimuli/Hangul_F47.bmp","188","image-keyboard-response","199","366574","0.0-8.0-1.43","test",".","",",","",""
"null","<div style=""color:white; font-size:60px;"">+</div>","null","html-keyboard-response","200","367576","0.0-8.0-0.44","fixation","","","","",""
"1380.364999989979","Stimuli/Hangul_M31.bmp","190","image-keyboard-response","201","368957","0.0-8.0-1.44","test",",","",".","",""
"null","<div style=""color:white; font-size:60px;"">+</div>","null","html-keyboard-response","202","369959","0.0-8.0-0.45","fixation","","","","",""
"1487.0699999737553","Stimuli/Hangul_F32.bmp","190","image-keyboard-response","203","371446","0.0-8.0-1.45","test",".","",".","",""
"null","<div style=""color:white; font-size:60px;"">+</div>","null","html-keyboard-response","204","372449","0.0-8.0-0.46","fixation","","","","",""
"1325.3050000057556","Stimuli/Hangul_M32.bmp","190","image-keyboard-response","205","373775","0.0-8.0-1.46","test",",","",".","",""
"null","<div style=""color:white; font-size:60px;"">+</div>","null","html-keyboard-response","206","374776","0.0-8.0-0.47","fixation","","","","",""
"1289.985000010347","Stimuli/Hangul_F29.bmp","190","image-keyboard-response","207","376067","0.0-8.0-1.47","test",".","",".","",""
"null","<div style=""color:white; font-size:60px;"">+</div>","null","html-keyboard-response","208","377068","0.0-8.0-0.48","fixation","","","","",""
"1534.350000001723","Stimuli/Hangul_M46.bmp","190","image-keyboard-response","209","378603","0.0-8.0-1.48","test",",","",".","",""
"null","<div style=""color:white; font-size:60px;"">+</div>","null","html-keyboard-response","210","379604","0.0-8.0-0.49","fixation","","","","",""
"1446.4549999975134","Stimuli/Hangul_F26.bmp","188","image-keyboard-response","211","381051","0.0-8.0-1.49","test",".","",",","",""
"7305.280000000494","<p style=""color:white;"">Half way there! Please take a moment to rest.</p> <p style=""color:white;"">When you are ready to continue with block 3 of 4, press the space bar.</p> ","32","html-keyboard-response","212","388356","0.0-9.0","","","","","",""
"null","<div style=""color:white; font-size:60px;"">+</div>","null","html-keyboard-response","213","391360","0.0-10.0-0.0","fixation","","","","",""
"903.8700000091922","Stimuli/Hangul_F60.bmp","188","image-keyboard-response","214","392265","0.0-10.0-1.0","test",".","",",","",""
"null","<div style=""color:white; font-size:60px;"">+</div>","null","html-keyboard-response","215","393267","0.0-10.0-0.1","fixation","","","","",""
"1519.4499999925029","Stimuli/Hangul_F51.bmp","188","image-keyboard-response","216","394787","0.0-10.0-1.1","test",".","",",","",""
"null","<div style=""color:white; font-size:60px;"">+</div>","null","html-keyboard-response","217","395788","0.0-10.0-0.2","fixation","","","","",""
"1376.655000000028","Stimuli/Hangul_M57.bmp","188","image-keyboard-response","218","397166","0.0-10.0-1.2","test",",","",",","",""
"null","<div style=""color:white; font-size:60px;"">+</div>","null","html-keyboard-response","219","398168","0.0-10.0-0.3","fixation","","","","",""
"1367.0599999895785","Stimuli/Hangul_F64.bmp","190","image-keyboard-response","220","399536","0.0-10.0-1.3","test",".","",".","",""
"null","<div style=""color:white; font-size:60px;"">+</div>","null","html-keyboard-response","221","400537","0.0-10.0-0.4","fixation","","","","",""
"2638.8300000107847","Stimuli/Hangul_M65.bmp","188","image-keyboard-response","222","403177","0.0-10.0-1.4","test",",","",",","",""
"null","<div style=""color:white; font-size:60px;"">+</div>","null","html-keyboard-response","223","404179","0.0-10.0-0.5","fixation","","","","",""
"373.4200000180863","Stimuli/Hangul_M63.bmp","188","image-keyboard-response","224","404553","0.0-10.0-1.5","test",",","",",","",""
"null","<div style=""color:white; font-size:60px;"">+</div>","null","html-keyboard-response","225","405555","0.0-10.0-0.6","fixation","","","","",""
"1470.7700000144541","Stimuli/Hangul_F58.bmp","190","image-keyboard-response","226","407026","0.0-10.0-1.6","test",".","",".","",""
"null","<div style=""color:white; font-size:60px;"">+</div>","null","html-keyboard-response","227","408028","0.0-10.0-0.7","fixation","","","","",""
"977.0999999891501","Stimuli/Hangul_M71.bmp","188","image-keyboard-response","228","409006","0.0-10.0-1.7","test",",","",",","",""
"null","<div style=""color:white; font-size:60px;"">+</div>","null","html-keyboard-response","229","410007","0.0-10.0-0.8","fixation","","","","",""
"1464.765000011539","Stimuli/Hangul_M52.bmp","188","image-keyboard-response","230","411472","0.0-10.0-1.8","test",",","",",","",""
"null","<div style=""color:white; font-size:60px;"">+</div>","null","html-keyboard-response","231","412473","0.0-10.0-0.9","fixation","","","","",""
"1490.6400000036228","Stimuli/Hangul_M68.bmp","188","image-keyboard-response","232","413965","0.0-10.0-1.9","test",",","",",","",""
"null","<div style=""color:white; font-size:60px;"">+</div>","null","html-keyboard-response","233","414967","0.0-10.0-0.10","fixation","","","","",""
"1506.9749999966007","Stimuli/Hangul_F63.bmp","188","image-keyboard-response","234","416475","0.0-10.0-1.10","test",".","",",","",""
"null","<div style=""color:white; font-size:60px;"">+</div>","null","html-keyboard-response","235","417477","0.0-10.0-0.11","fixation","","","","",""
"1969.714999984717","Stimuli/Hangul_M58.bmp","190","image-keyboard-response","236","419448","0.0-10.0-1.11","test",",","",".","",""
"null","<div style=""color:white; font-size:60px;"">+</div>","null","html-keyboard-response","237","420449","0.0-10.0-0.12","fixation","","","","",""
"1314.0350000176113","Stimuli/Hangul_M59.bmp","190","image-keyboard-response","238","421764","0.0-10.0-1.12","test",",","",".","",""
"null","<div style=""color:white; font-size:60px;"">+</div>","null","html-keyboard-response","239","422766","0.0-10.0-0.13","fixation","","","","",""
"1515.8400000073016","Stimuli/Hangul_M56.bmp","188","image-keyboard-response","240","424282","0.0-10.0-1.13","test",",","",",","",""
"null","<div style=""color:white; font-size:60px;"">+</div>","null","html-keyboard-response","241","425284","0.0-10.0-0.14","fixation","","","","",""
"954.3000000121538","Stimuli/Hangul_F53.bmp","190","image-keyboard-response","242","426239","0.0-10.0-1.14","test",".","",".","",""
"null","<div style=""color:white; font-size:60px;"">+</div>","null","html-keyboard-response","243","427242","0.0-10.0-0.15","fixation","","","","",""
"1518.355000007432","Stimuli/Hangul_M53.bmp","188","image-keyboard-response","244","428761","0.0-10.0-1.15","test",",","",",","",""
"null","<div style=""color:white; font-size:60px;"">+</div>","null","html-keyboard-response","245","429763","0.0-10.0-0.16","fixation","","","","",""
"1177.7950000250712","Stimuli/Hangul_F72.bmp","188","image-keyboard-response","246","430942","0.0-10.0-1.16","test",".","",",","",""
"null","<div style=""color:white; font-size:60px;"">+</div>","null","html-keyboard-response","247","431942","0.0-10.0-0.17","fixation","","","","",""
"1382.705000025453","Stimuli/Hangul_M70.bmp","188","image-keyboard-response","248","433326","0.0-10.0-1.17","test",",","",",","",""
"null","<div style=""color:white; font-size:60px;"">+</div>","null","html-keyboard-response","249","434328","0.0-10.0-0.18","fixation","","","","",""
"1445.1700000208803","Stimuli/Hangul_M72.bmp","190","image-keyboard-response","250","435774","0.0-10.0-1.18","test",",","",".","",""
"null","<div style=""color:white; font-size:60px;"">+</div>","null","html-keyboard-response","251","436776","0.0-10.0-0.19","fixation","","","","",""
"1342.2349999891594","Stimuli/Hangul_F68.bmp","190","image-keyboard-response","252","438119","0.0-10.0-1.19","test",".","",".","",""
"null","<div style=""color:white; font-size:60px;"">+</div>","null","html-keyboard-response","253","439120","0.0-10.0-0.20","fixation","","","","",""
"1538.3849999925587","Stimuli/Hangul_F61.bmp","188","image-keyboard-response","254","440659","0.0-10.0-1.20","test",".","",",","",""
"null","<div style=""color:white; font-size:60px;"">+</div>","null","html-keyboard-response","255","441661","0.0-10.0-0.21","fixation","","","","",""
"1308.8150000257883","Stimuli/Hangul_M51.bmp","188","image-keyboard-response","256","442970","0.0-10.0-1.21","test",",","",",","",""
"null","<div style=""color:white; font-size:60px;"">+</div>","null","html-keyboard-response","257","443971","0.0-10.0-0.22","fixation","","","","",""
"1356.6700000083074","Stimuli/Hangul_M50.bmp","190","image-keyboard-response","258","445329","0.0-10.0-1.22","test",",","",".","",""
"null","<div style=""color:white; font-size:60px;"">+</div>","null","html-keyboard-response","259","446331","0.0-10.0-0.23","fixation","","","","",""
"1302.335000014864","Stimuli/Hangul_F57.bmp","190","image-keyboard-response","260","447634","0.0-10.0-1.23","test",".","",".","",""
"null","<div style=""color:white; font-size:60px;"">+</div>","null","html-keyboard-response","261","448635","0.0-10.0-0.24","fixation","","","","",""
"1310.4199999943376","Stimuli/Hangul_F71.bmp","188","image-keyboard-response","262","449946","0.0-10.0-1.24","test",".","",",","",""
"null","<div style=""color:white; font-size:60px;"">+</div>","null","html-keyboard-response","263","450948","0.0-10.0-0.25","fixation","","","","",""
"1279.785000020638","Stimuli/Hangul_F73.bmp","190","image-keyboard-response","264","452228","0.0-10.0-1.25","test",".","",".","",""
"null","<div style=""color:white; font-size:60px;"">+</div>","null","html-keyboard-response","265","453230","0.0-10.0-0.26","fixation","","","","",""
"1349.3000000016764","Stimuli/Hangul_F52.bmp","188","image-keyboard-response","266","454580","0.0-10.0-1.26","test",".","",",","",""
"null","<div style=""color:white; font-size:60px;"">+</div>","null","html-keyboard-response","267","455582","0.0-10.0-0.27","fixation","","","","",""
"1352.7699999976903","Stimuli/Hangul_F70.bmp","190","image-keyboard-response","268","456936","0.0-10.0-1.27","test",".","",".","",""
"null","<div style=""color:white; font-size:60px;"">+</div>","null","html-keyboard-response","269","457938","0.0-10.0-0.28","fixation","","","","",""
"1314.2799999914132","Stimuli/Hangul_M69.bmp","190","image-keyboard-response","270","459253","0.0-10.0-1.28","test",",","",".","",""
"null","<div style=""color:white; font-size:60px;"">+</div>","null","html-keyboard-response","271","460255","0.0-10.0-0.29","fixation","","","","",""
"944.8200000042561","Stimuli/Hangul_F50.bmp","190","image-keyboard-response","272","461200","0.0-10.0-1.29","test",".","",".","",""
"null","<div style=""color:white; font-size:60px;"">+</div>","null","html-keyboard-response","273","462202","0.0-10.0-0.30","fixation","","","","",""
"967.2699999937322","Stimuli/Hangul_M61.bmp","190","image-keyboard-response","274","463170","0.0-10.0-1.30","test",",","",".","",""
"null","<div style=""color:white; font-size:60px;"">+</div>","null","html-keyboard-response","275","464171","0.0-10.0-0.31","fixation","","","","",""
"1482.1200000005774","Stimuli/Hangul_F56.bmp","188","image-keyboard-response","276","465654","0.0-10.0-1.31","test",".","",",","",""
"null","<div style=""color:white; font-size:60px;"">+</div>","null","html-keyboard-response","277","466656","0.0-10.0-0.32","fixation","","","","",""
"1342.290000000503","Stimuli/Hangul_F54.bmp","190","image-keyboard-response","278","467999","0.0-10.0-1.32","test",".","",".","",""
"null","<div style=""color:white; font-size:60px;"">+</div>","null","html-keyboard-response","279","469000","0.0-10.0-0.33","fixation","","","","",""
"1318.4500000206754","Stimuli/Hangul_F62.bmp","188","image-keyboard-response","280","470319","0.0-10.0-1.33","test",".","",",","",""
"null","<div style=""color:white; font-size:60px;"">+</div>","null","html-keyboard-response","281","471321","0.0-10.0-0.34","fixation","","","","",""
"1244.8350000195205","Stimuli/Hangul_F65.bmp","190","image-keyboard-response","282","472566","0.0-10.0-1.34","test",".","",".","",""
"null","<div style=""color:white; font-size:60px;"">+</div>","null","html-keyboard-response","283","473569","0.0-10.0-0.35","fixation","","","","",""
"923.2000000192784","Stimuli/Hangul_F66.bmp","190","image-keyboard-response","284","474493","0.0-10.0-1.35","test",".","",".","",""
"null","<div style=""color:white; font-size:60px;"">+</div>","null","html-keyboard-response","285","475494","0.0-10.0-0.36","fixation","","","","",""
"1587.0550000108778","Stimuli/Hangul_F67.bmp","188","image-keyboard-response","286","477082","0.0-10.0-1.36","test",".","",",","",""
"null","<div style=""color:white; font-size:60px;"">+</div>","null","html-keyboard-response","287","478084","0.0-10.0-0.37","fixation","","","","",""
"969.5899999933317","Stimuli/Hangul_F59.bmp","188","image-keyboard-response","288","479054","0.0-10.0-1.37","test",".","",",","",""
"null","<div style=""color:white; font-size:60px;"">+</div>","null","html-keyboard-response","289","480055","0.0-10.0-0.38","fixation","","","","",""
"1471.434999984922","Stimuli/Hangul_F55.bmp","188","image-keyboard-response","290","481527","0.0-10.0-1.38","test",".","",",","",""
"null","<div style=""color:white; font-size:60px;"">+</div>","null","html-keyboard-response","291","482530","0.0-10.0-0.39","fixation","","","","",""
"1444.4150000053924","Stimuli/Hangul_M67.bmp","190","image-keyboard-response","292","483975","0.0-10.0-1.39","test",",","",".","",""
"null","<div style=""color:white; font-size:60px;"">+</div>","null","html-keyboard-response","293","484977","0.0-10.0-0.40","fixation","","","","",""
"1377.310000010766","Stimuli/Hangul_M73.bmp","188","image-keyboard-response","294","486355","0.0-10.0-1.40","test",",","",",","",""
"null","<div style=""color:white; font-size:60px;"">+</div>","null","html-keyboard-response","295","487357","0.0-10.0-0.41","fixation","","","","",""
"1462.8049999882933","Stimuli/Hangul_M55.bmp","188","image-keyboard-response","296","488821","0.0-10.0-1.41","test",",","",",","",""
"null","<div style=""color:white; font-size:60px;"">+</div>","null","html-keyboard-response","297","489823","0.0-10.0-0.42","fixation","","","","",""
"1506.2349999789149","Stimuli/Hangul_M66.bmp","188","image-keyboard-response","298","491330","0.0-10.0-1.42","test",",","",",","",""
"null","<div style=""color:white; font-size:60px;"">+</div>","null","html-keyboard-response","299","492332","0.0-10.0-0.43","fixation","","","","",""
"1095.6450000230689","Stimuli/Hangul_M74.bmp","190","image-keyboard-response","300","493428","0.0-10.0-1.43","test",",","",".","",""
"null","<div style=""color:white; font-size:60px;"">+</div>","null","html-keyboard-response","301","494430","0.0-10.0-0.44","fixation","","","","",""
"813.3350000134669","Stimuli/Hangul_F69.bmp","188","image-keyboard-response","302","495244","0.0-10.0-1.44","test",".","",",","",""
"null","<div style=""color:white; font-size:60px;"">+</div>","null","html-keyboard-response","303","496246","0.0-10.0-0.45","fixation","","","","",""
"805.3350000118371","Stimuli/Hangul_M60.bmp","188","image-keyboard-response","304","497052","0.0-10.0-1.45","test",",","",",","",""
"null","<div style=""color:white; font-size:60px;"">+</div>","null","html-keyboard-response","305","498054","0.0-10.0-0.46","fixation","","","","",""
"1531.3850000093225","Stimuli/Hangul_M54.bmp","188","image-keyboard-response","306","499586","0.0-10.0-1.46","test",",","",",","",""
"null","<div style=""color:white; font-size:60px;"">+</div>","null","html-keyboard-response","307","500587","0.0-10.0-0.47","fixation","","","","",""
"1324.5699999970384","Stimuli/Hangul_F74.bmp","188","image-keyboard-response","308","501912","0.0-10.0-1.47","test",".","",",","",""
"null","<div style=""color:white; font-size:60px;"">+</div>","null","html-keyboard-response","309","502915","0.0-10.0-0.48","fixation","","","","",""
"1367.5050000019837","Stimuli/Hangul_M62.bmp","190","image-keyboard-response","310","504283","0.0-10.0-1.48","test",",","",".","",""
"null","<div style=""color:white; font-size:60px;"">+</div>","null","html-keyboard-response","311","505285","0.0-10.0-0.49","fixation","","","","",""
"910.4750000115018","Stimuli/Hangul_M64.bmp","188","image-keyboard-response","312","506196","0.0-10.0-1.49","test",",","",",","",""
"1369.6749999944586","<p style=""color:white;"">One more block to go! Please take a moment to rest.</p> <p style=""color:white;"">When you are ready to continue with block 4 of 4, press the space bar.</p> ","32","html-keyboard-response","313","507567","0.0-11.0","","","","","",""
"null","<div style=""color:white; font-size:60px;"">+</div>","null","html-keyboard-response","314","510570","0.0-12.0-0.0","fixation","","","","",""
"1536.500000016531","Stimuli/Hangul_F87.bmp","190","image-keyboard-response","315","512108","0.0-12.0-1.0","test",".","",".","",""
"null","<div style=""color:white; font-size:60px;"">+</div>","null","html-keyboard-response","316","513111","0.0-12.0-0.1","fixation","","","","",""
"1079.4300000125077","Stimuli/Hangul_M98.bmp","188","image-keyboard-response","317","514191","0.0-12.0-1.1","test",",","",",","",""
"null","<div style=""color:white; font-size:60px;"">+</div>","null","html-keyboard-response","318","515192","0.0-12.0-0.2","fixation","","","","",""
"843.5150000150315","Stimuli/Hangul_F80.bmp","188","image-keyboard-response","319","516037","0.0-12.0-1.2","test",".","",",","",""
"null","<div style=""color:white; font-size:60px;"">+</div>","null","html-keyboard-response","320","517039","0.0-12.0-0.3","fixation","","","","",""
"1281.3199999800418","Stimuli/Hangul_M91.bmp","190","image-keyboard-response","321","518321","0.0-12.0-1.3","test",",","",".","",""
"null","<div style=""color:white; font-size:60px;"">+</div>","null","html-keyboard-response","322","519322","0.0-12.0-0.4","fixation","","","","",""
"1524.8549999960233","Stimuli/Hangul_F88.bmp","190","image-keyboard-response","323","520848","0.0-12.0-1.4","test",".","",".","",""
"null","<div style=""color:white; font-size:60px;"">+</div>","null","html-keyboard-response","324","521849","0.0-12.0-0.5","fixation","","","","",""
"1384.5100000035018","Stimuli/Hangul_F79.bmp","190","image-keyboard-response","325","523234","0.0-12.0-1.5","test",".","",".","",""
"null","<div style=""color:white; font-size:60px;"">+</div>","null","html-keyboard-response","326","524236","0.0-12.0-0.6","fixation","","","","",""
"1402.410000009695","Stimuli/Hangul_M94.bmp","190","image-keyboard-response","327","525640","0.0-12.0-1.6","test",",","",".","",""
"null","<div style=""color:white; font-size:60px;"">+</div>","null","html-keyboard-response","328","526641","0.0-12.0-0.7","fixation","","","","",""
"1435.9350000158884","Stimuli/Hangul_M99.bmp","188","image-keyboard-response","329","528078","0.0-12.0-1.7","test",",","",",","",""
"null","<div style=""color:white; font-size:60px;"">+</div>","null","html-keyboard-response","330","529079","0.0-12.0-0.8","fixation","","","","",""
"1371.6000000131316","Stimuli/Hangul_M75.bmp","190","image-keyboard-response","331","530452","0.0-12.0-1.8","test",",","",".","",""
"null","<div style=""color:white; font-size:60px;"">+</div>","null","html-keyboard-response","332","531453","0.0-12.0-0.9","fixation","","","","",""
"1419.8949999990873","Stimuli/Hangul_M82.bmp","188","image-keyboard-response","333","532874","0.0-12.0-1.9","test",",","",",","",""
"null","<div style=""color:white; font-size:60px;"">+</div>","null","html-keyboard-response","334","533875","0.0-12.0-0.10","fixation","","","","",""
"1279.2149999877438","Stimuli/Hangul_F81.bmp","188","image-keyboard-response","335","535155","0.0-12.0-1.10","test",".","",",","",""
"null","<div style=""color:white; font-size:60px;"">+</div>","null","html-keyboard-response","336","536157","0.0-12.0-0.11","fixation","","","","",""
"1329.4650000170805","Stimuli/Hangul_F89.bmp","190","image-keyboard-response","337","537487","0.0-12.0-1.11","test",".","",".","",""
"null","<div style=""color:white; font-size:60px;"">+</div>","null","html-keyboard-response","338","538490","0.0-12.0-0.12","fixation","","","","",""
"1297.709999984363","Stimuli/Hangul_F91.bmp","190","image-keyboard-response","339","539788","0.0-12.0-1.12","test",".","",".","",""
"null","<div style=""color:white; font-size:60px;"">+</div>","null","html-keyboard-response","340","540791","0.0-12.0-0.13","fixation","","","","",""
"1140.2149999921676","Stimuli/Hangul_F82.bmp","188","image-keyboard-response","341","541932","0.0-12.0-1.13","test",".","",",","",""
"null","<div style=""color:white; font-size:60px;"">+</div>","null","html-keyboard-response","342","542933","0.0-12.0-0.14","fixation","","","","",""
"903.5100000037346","Stimuli/Hangul_F90.bmp","188","image-keyboard-response","343","543838","0.0-12.0-1.14","test",".","",",","",""
"null","<div style=""color:white; font-size:60px;"">+</div>","null","html-keyboard-response","344","544839","0.0-12.0-0.15","fixation","","","","",""
"1283.1200000073295","Stimuli/Hangul_M93.bmp","188","image-keyboard-response","345","546122","0.0-12.0-1.15","test",",","",",","",""
"null","<div style=""color:white; font-size:60px;"">+</div>","null","html-keyboard-response","346","547124","0.0-12.0-0.16","fixation","","","","",""
"1273.5849999880884","Stimuli/Hangul_M76.bmp","190","image-keyboard-response","347","548398","0.0-12.0-1.16","test",",","",".","",""
"null","<div style=""color:white; font-size:60px;"">+</div>","null","html-keyboard-response","348","549400","0.0-12.0-0.17","fixation","","","","",""
"1376.5649999841116","Stimuli/Hangul_M90.bmp","188","image-keyboard-response","349","550778","0.0-12.0-1.17","test",",","",",","",""
"null","<div style=""color:white; font-size:60px;"">+</div>","null","html-keyboard-response","350","551779","0.0-12.0-0.18","fixation","","","","",""
"1314.7250000038184","Stimuli/Hangul_M78.bmp","190","image-keyboard-response","351","553095","0.0-12.0-1.18","test",",","",".","",""
"null","<div style=""color:white; font-size:60px;"">+</div>","null","html-keyboard-response","352","554096","0.0-12.0-0.19","fixation","","","","",""
"1192.3450000176672","Stimuli/Hangul_M89.bmp","188","image-keyboard-response","353","555290","0.0-12.0-1.19","test",",","",",","",""
"null","<div style=""color:white; font-size:60px;"">+</div>","null","html-keyboard-response","354","556292","0.0-12.0-0.20","fixation","","","","",""
"1059.0249999950174","Stimuli/Hangul_F85.bmp","190","image-keyboard-response","355","557351","0.0-12.0-1.20","test",".","",".","",""
"null","<div style=""color:white; font-size:60px;"">+</div>","null","html-keyboard-response","356","558353","0.0-12.0-0.21","fixation","","","","",""
"1020.9299999987707","Stimuli/Hangul_M88.bmp","190","image-keyboard-response","357","559375","0.0-12.0-1.21","test",",","",".","",""
"null","<div style=""color:white; font-size:60px;"">+</div>","null","html-keyboard-response","358","560376","0.0-12.0-0.22","fixation","","","","",""
"1346.3150000025053","Stimuli/Hangul_F96.bmp","190","image-keyboard-response","359","561724","0.0-12.0-1.22","test",".","",".","",""
"null","<div style=""color:white; font-size:60px;"">+</div>","null","html-keyboard-response","360","562725","0.0-12.0-0.23","fixation","","","","",""
"1342.945000011241","Stimuli/Hangul_F99.bmp","188","image-keyboard-response","361","564069","0.0-12.0-1.23","test",".","",",","",""
"null","<div style=""color:white; font-size:60px;"">+</div>","null","html-keyboard-response","362","565070","0.0-12.0-0.24","fixation","","","","",""
"1227.2400000074413","Stimuli/Hangul_F92.bmp","188","image-keyboard-response","363","566298","0.0-12.0-1.24","test",".","",",","",""
"null","<div style=""color:white; font-size:60px;"">+</div>","null","html-keyboard-response","364","567301","0.0-12.0-0.25","fixation","","","","",""
"1501.879999996163","Stimuli/Hangul_F95.bmp","188","image-keyboard-response","365","568803","0.0-12.0-1.25","test",".","",",","",""
"null","<div style=""color:white; font-size:60px;"">+</div>","null","html-keyboard-response","366","569805","0.0-12.0-0.26","fixation","","","","",""
"932.6549999823328","Stimuli/Hangul_F93.bmp","190","image-keyboard-response","367","570739","0.0-12.0-1.26","test",".","",".","",""
"null","<div style=""color:white; font-size:60px;"">+</div>","null","html-keyboard-response","368","571741","0.0-12.0-0.27","fixation","","","","",""
"743.0150000145659","Stimuli/Hangul_M96.bmp","188","image-keyboard-response","369","572484","0.0-12.0-1.27","test",",","",",","",""
"null","<div style=""color:white; font-size:60px;"">+</div>","null","html-keyboard-response","370","573486","0.0-12.0-0.28","fixation","","","","",""
"932.4650000198744","Stimuli/Hangul_F94.bmp","188","image-keyboard-response","371","574419","0.0-12.0-1.28","test",".","",",","",""
"null","<div style=""color:white; font-size:60px;"">+</div>","null","html-keyboard-response","372","575421","0.0-12.0-0.29","fixation","","","","",""
"1226.1749999888707","Stimuli/Hangul_M85.bmp","190","image-keyboard-response","373","576648","0.0-12.0-1.29","test",",","",".","",""
"null","<div style=""color:white; font-size:60px;"">+</div>","null","html-keyboard-response","374","577649","0.0-12.0-0.30","fixation","","","","",""
"1345.180000003893","Stimuli/Hangul_F97.bmp","188","image-keyboard-response","375","578995","0.0-12.0-1.30","test",".","",",","",""
"null","<div style=""color:white; font-size:60px;"">+</div>","null","html-keyboard-response","376","579996","0.0-12.0-0.31","fixation","","","","",""
"1319.5899999991525","Stimuli/Hangul_M84.bmp","190","image-keyboard-response","377","581316","0.0-12.0-1.31","test",",","",".","",""
"null","<div style=""color:white; font-size:60px;"">+</div>","null","html-keyboard-response","378","582318","0.0-12.0-0.32","fixation","","","","",""
"1006.5900000045076","Stimuli/Hangul_F77.bmp","190","image-keyboard-response","379","583325","0.0-12.0-1.32","test",".","",".","",""
"null","<div style=""color:white; font-size:60px;"">+</div>","null","html-keyboard-response","380","584327","0.0-12.0-0.33","fixation","","","","",""
"167.53499998594634","Stimuli/Hangul_M79.bmp","190","image-keyboard-response","381","584495","0.0-12.0-1.33","test",",","",".","",""
"null","<div style=""color:white; font-size:60px;"">+</div>","null","html-keyboard-response","382","585497","0.0-12.0-0.34","fixation","","","","",""
"1213.2149999961257","Stimuli/Hangul_F86.bmp","190","image-keyboard-response","383","586712","0.0-12.0-1.34","test",".","",".","",""
"null","<div style=""color:white; font-size:60px;"">+</div>","null","html-keyboard-response","384","587712","0.0-12.0-0.35","fixation","","","","",""
"1629.7150000173133","Stimuli/Hangul_M81.bmp","188","image-keyboard-response","385","589343","0.0-12.0-1.35","test",",","",",","",""
"null","<div style=""color:white; font-size:60px;"">+</div>","null","html-keyboard-response","386","590344","0.0-12.0-0.36","fixation","","","","",""
"943.3049999934155","Stimuli/Hangul_F84.bmp","188","image-keyboard-response","387","591288","0.0-12.0-1.36","test",".","",",","",""
"null","<div style=""color:white; font-size:60px;"">+</div>","null","html-keyboard-response","388","592290","0.0-12.0-0.37","fixation","","","","",""
"788.9950000098906","Stimuli/Hangul_F98.bmp","188","image-keyboard-response","389","593080","0.0-12.0-1.37","test",".","",",","",""
"null","<div style=""color:white; font-size:60px;"">+</div>","null","html-keyboard-response","390","594082","0.0-12.0-0.38","fixation","","","","",""
"1113.565000006929","Stimuli/Hangul_M80.bmp","190","image-keyboard-response","391","595197","0.0-12.0-1.38","test",",","",".","",""
"null","<div style=""color:white; font-size:60px;"">+</div>","null","html-keyboard-response","392","596199","0.0-12.0-0.39","fixation","","","","",""
"1416.5899999788962","Stimuli/Hangul_M86.bmp","190","image-keyboard-response","393","597617","0.0-12.0-1.39","test",",","",".","",""
"null","<div style=""color:white; font-size:60px;"">+</div>","null","html-keyboard-response","394","598618","0.0-12.0-0.40","fixation","","","","",""
"1471.7649999947753","Stimuli/Hangul_M77.bmp","188","image-keyboard-response","395","600091","0.0-12.0-1.40","test",",","",",","",""
"null","<div style=""color:white; font-size:60px;"">+</div>","null","html-keyboard-response","396","601092","0.0-12.0-0.41","fixation","","","","",""
"1316.2750000192318","Stimuli/Hangul_F76.bmp","190","image-keyboard-response","397","602409","0.0-12.0-1.41","test",".","",".","",""
"null","<div style=""color:white; font-size:60px;"">+</div>","null","html-keyboard-response","398","603411","0.0-12.0-0.42","fixation","","","","",""
"1388.23000001139","Stimuli/Hangul_M92.bmp","188","image-keyboard-response","399","604801","0.0-12.0-1.42","test",",","",",","",""
"null","<div style=""color:white; font-size:60px;"">+</div>","null","html-keyboard-response","400","605802","0.0-12.0-0.43","fixation","","","","",""
"1238.2250000082422","Stimuli/Hangul_M95.bmp","190","image-keyboard-response","401","607041","0.0-12.0-1.43","test",",","",".","",""
"null","<div style=""color:white; font-size:60px;"">+</div>","null","html-keyboard-response","402","608043","0.0-12.0-0.44","fixation","","","","",""
"909.2900000105146","Stimuli/Hangul_F83.bmp","190","image-keyboard-response","403","608953","0.0-12.0-1.44","test",".","",".","",""
"null","<div style=""color:white; font-size:60px;"">+</div>","null","html-keyboard-response","404","609955","0.0-12.0-0.45","fixation","","","","",""
"1366.409999987809","Stimuli/Hangul_F75.bmp","188","image-keyboard-response","405","611322","0.0-12.0-1.45","test",".","",",","",""
"null","<div style=""color:white; font-size:60px;"">+</div>","null","html-keyboard-response","406","612323","0.0-12.0-0.46","fixation","","","","",""
"754.4099999940954","Stimuli/Hangul_F78.bmp","188","image-keyboard-response","407","613078","0.0-12.0-1.46","test",".","",",","",""
"null","<div style=""color:white; font-size:60px;"">+</div>","null","html-keyboard-response","408","614080","0.0-12.0-0.47","fixation","","","","",""
"895.3400000173133","Stimuli/Hangul_M83.bmp","188","image-keyboard-response","409","614976","0.0-12.0-1.47","test",",","",",","",""
"null","<div style=""color:white; font-size:60px;"">+</div>","null","html-keyboard-response","410","615978","0.0-12.0-0.48","fixation","","","","",""
"1362.4799999815878","Stimuli/Hangul_M87.bmp","188","image-keyboard-response","411","617341","0.0-12.0-1.48","test",",","",",","",""
"null","<div style=""color:white; font-size:60px;"">+</div>","null","html-keyboard-response","412","618343","0.0-12.0-0.49","fixation","","","","",""
"1484.2749999952503","Stimuli/Hangul_M97.bmp","190","image-keyboard-response","413","619827","0.0-12.0-1.49","test",",","",".","",""
"2726.5900000056718","<p style=""color:white;"">Phase I of the experiment is complete.</p> <p style=""color:white;"">Press the space bar to proceed to Phase II of the experiment.</p> ","32","html-keyboard-response","414","622555","0.0-13.0","","","","","",""
"6733.600000006845","<p style=""color:white;"">Now we are interested in how well you can predict patterns in the series of figures. You will be asked to predict whether the next figure in the series is more male-like or female-like. When you see the <q>Next Figure</q> prompt, press the corresponding response keys to indicate your prediction: </p><p style=""color:white;""> Male &#8594 <q>,</q> (comma)</p><p style=""color:white;""> Female &#8594 <q>.</q> (period)</p><p style=""color:white;"">The actual figure will then appear on the screen. After you see the figure, please guess the assigned gender with response keys. </p><p style=""color:white;"">As before, you will receive 2 cents for correctly classifying each figure.</p><p style=""color:white;"">Press either response keys to continue.</p>","188","html-keyboard-response","415","631290","0.0-14.0","","","","","",""
"6220.824999996694","<p style=""color:white;"">PREDICTION BONUS</p> <p style=""color:white;"">Your prediction accuracy is the total number of correct predictions you make over the 200 trials.</p> <p style=""color:white;"">In addition to the 2 cents per correct figure classification, you have the chance to receive a bonus of 40 dollars IF your accuracy is above average relative to previous participants.</p><p style=""color:white;"">If your accuracy is below average relative to previous participants, then you will not receive the 40 dollar bonus.</p><p style=""color:white;"">Press the space bar to continue.</p>","32","html-keyboard-response","416","637512","0.0-15.0","","","","","",""
"1337.4799999874085","<p style=""color:white;"">Here are some examples.</p> <p style=""color:white;"">For each, predict whether the next figure looks more male-like or female-like. Then, when the figure appears, guess whether it looks more male-like or female-like and indicate your choice.</p> <p style=""color:white;"">Press the space bar to continue.</p>","32","html-keyboard-response","417","638850","0.0-16.0","","","","","",""
"6003.410000004806","<p style=""color:white;""> Next Figure: Male or Female? </p>","188","html-keyboard-response","418","646855","0.0-17.0-0.0","prediction_train","","","",",",""
"null","<div style=""color:white; font-size:60px;"">+</div>","null","html-keyboard-response","419","647858","0.0-17.0-1.0","fixation","","","","",""
"2763.95500000217","Stimuli/Hangul_E1.bmp","188","image-keyboard-response","420","650623","0.0-17.0-2.0","c2_train",",","","","",","
"2288.8200000161305","<p style=""color:white;""> Next Figure: Male or Female? </p>","188","html-keyboard-response","421","652913","0.0-17.0-0.1","prediction_train","","","",",",""
"null","<div style=""color:white; font-size:60px;"">+</div>","null","html-keyboard-response","422","653915","0.0-17.0-1.1","fixation","","","","",""
"1907.0749999955297","Stimuli/Hangul_E0.bmp","188","image-keyboard-response","423","655823","0.0-17.0-2.1","c2_train",",","","","",","
"758.300000015879","<p style=""color:white;""> Next Figure: Male or Female? </p>","190","html-keyboard-response","424","656582","0.0-17.0-0.2","prediction_train","","","",".",""
"null","<div style=""color:white; font-size:60px;"">+</div>","null","html-keyboard-response","425","657584","0.0-17.0-1.2","fixation","","","","",""
"2105.1299999817275","Stimuli/Hangul_E2.bmp","190","image-keyboard-response","426","659690","0.0-17.0-2.2","c2_train",".","","","","."
"2236.7949999752454","<p style=""color:white;"">Let us begin! Press the space bar when you are ready to start block 1 of 4.</p> ","32","html-keyboard-response","427","661928","0.0-18.0","","","","","",""
"1049.4349999935366","<p style=""color:white;""> Next Figure: Male or Female? </p>","190","html-keyboard-response","428","664980","0.0-19.0-0.0","prediction","","","",".",""
"null","<div style=""color:white; font-size:60px;"">+</div>","null","html-keyboard-response","429","665982","0.0-19.0-1.0","fixation","","","","",""
"1571.8249999918044","Stimuli/Hangul_M16.bmp","190","image-keyboard-response","430","667555","0.0-19.0-2.0","c2_test",",","","","","."
"477.3050000076182","<p style=""color:white;""> Next Figure: Male or Female? </p>","188","html-keyboard-response","431","668033","0.0-19.0-0.1","prediction","","","",",",""
"null","<div style=""color:white; font-size:60px;"">+</div>","null","html-keyboard-response","432","669034","0.0-19.0-1.1","fixation","","","","",""
"1425.5549999943469","Stimuli/Hangul_M17.bmp","188","image-keyboard-response","433","670461","0.0-19.0-2.1","c2_test",",","","","",","
"494.1849999886472","<p style=""color:white;""> Next Figure: Male or Female? </p>","188","html-keyboard-response","434","670956","0.0-19.0-0.2","prediction","","","",",",""
"null","<div style=""color:white; font-size:60px;"">+</div>","null","html-keyboard-response","435","671958","0.0-19.0-1.2","fixation","","","","",""
"1703.9249999797903","Stimuli/Hangul_F2.bmp","188","image-keyboard-response","436","673663","0.0-19.0-2.2","c2_test",".","","","",","
"497.4400000064634","<p style=""color:white;""> Next Figure: Male or Female? </p>","190","html-keyboard-response","437","674161","0.0-19.0-0.3","prediction","","","",".",""
"null","<div style=""color:white; font-size:60px;"">+</div>","null","html-keyboard-response","438","675163","0.0-19.0-1.3","fixation","","","","",""
"1265.4449999972712","Stimuli/Hangul_F20.bmp","190","image-keyboard-response","439","676429","0.0-19.0-2.3","c2_test",".","","","","."
"699.0300000179559","<p style=""color:white;""> Next Figure: Male or Female? </p>","190","html-keyboard-response","440","677129","0.0-19.0-0.4","prediction","","","",".",""
"null","<div style=""color:white; font-size:60px;"">+</div>","null","html-keyboard-response","441","678132","0.0-19.0-1.4","fixation","","","","",""
"1352.9600000183564","Stimuli/Hangul_M9.bmp","190","image-keyboard-response","442","679486","0.0-19.0-2.4","c2_test",",","","","","."
"426.7799999797717","<p style=""color:white;""> Next Figure: Male or Female? </p>","188","html-keyboard-response","443","679914","0.0-19.0-0.5","prediction","","","",",",""
"null","<div style=""color:white; font-size:60px;"">+</div>","null","html-keyboard-response","444","680916","0.0-19.0-1.5","fixation","","","","",""
"1281.315000000177","Stimuli/Hangul_M15.bmp","188","image-keyboard-response","445","682198","0.0-19.0-2.5","c2_test",",","","","",","
"875.4849999968428","<p style=""color:white;""> Next Figure: Male or Female? </p>","188","html-keyboard-response","446","683074","0.0-19.0-0.6","prediction","","","",",",""
"null","<div style=""color:white; font-size:60px;"">+</div>","null","html-keyboard-response","447","684076","0.0-19.0-1.6","fixation","","","","",""
"1433.0250000057276","Stimuli/Hangul_M22.bmp","188","image-keyboard-response","448","685510","0.0-19.0-2.6","c2_test",",","","","",","
"398.2599999872036","<p style=""color:white;""> Next Figure: Male or Female? </p>","190","html-keyboard-response","449","685909","0.0-19.0-0.7","prediction","","","",".",""
"null","<div style=""color:white; font-size:60px;"">+</div>","null","html-keyboard-response","450","686911","0.0-19.0-1.7","fixation","","","","",""
"1542.5600000016857","Stimuli/Hangul_F3.bmp","188","image-keyboard-response","451","688454","0.0-19.0-2.7","c2_test",".","","","",","
"395.2200000057928","<p style=""color:white;""> Next Figure: Male or Female? </p>","188","html-keyboard-response","452","688850","0.0-19.0-0.8","prediction","","","",",",""
"null","<div style=""color:white; font-size:60px;"">+</div>","null","html-keyboard-response","453","689852","0.0-19.0-1.8","fixation","","","","",""
"1912.2050000005402","Stimuli/Hangul_F12.bmp","190","image-keyboard-response","454","691765","0.0-19.0-2.8","c2_test",".","","","","."
"398.1600000115577","<p style=""color:white;""> Next Figure: Male or Female? </p>","190","html-keyboard-response","455","692163","0.0-19.0-0.9","prediction","","","",".",""
"null","<div style=""color:white; font-size:60px;"">+</div>","null","html-keyboard-response","456","693166","0.0-19.0-1.9","fixation","","","","",""
"1324.9150000046939","Stimuli/Hangul_M20.bmp","190","image-keyboard-response","457","694492","0.0-19.0-2.9","c2_test",",","","","","."
"386.9450000056531","<p style=""color:white;""> Next Figure: Male or Female? </p>","190","html-keyboard-response","458","694879","0.0-19.0-0.10","prediction","","","",".",""
"null","<div style=""color:white; font-size:60px;"">+</div>","null","html-keyboard-response","459","695881","0.0-19.0-1.10","fixation","","","","",""
"1767.904999986058","Stimuli/Hangul_F9.bmp","188","image-keyboard-response","460","697649","0.0-19.0-2.10","c2_test",".","","","",","
"455.7149999891408","<p style=""color:white;""> Next Figure: Male or Female? </p>","188","html-keyboard-response","461","698106","0.0-19.0-0.11","prediction","","","",",",""
"null","<div style=""color:white; font-size:60px;"">+</div>","null","html-keyboard-response","462","699108","0.0-19.0-1.11","fixation","","","","",""
"3175.9100000199396","Stimuli/Hangul_F13.bmp","188","image-keyboard-response","463","702285","0.0-19.0-2.11","c2_test",".","","","",","
"524.8649999848567","<p style=""color:white;""> Next Figure: Male or Female? </p>","188","html-keyboard-response","464","702812","0.0-19.0-0.12","prediction","","","",",",""
"null","<div style=""color:white; font-size:60px;"">+</div>","null","html-keyboard-response","465","703813","0.0-19.0-1.12","fixation","","","","",""
"1421.0500000044703","Stimuli/Hangul_F7.bmp","188","image-keyboard-response","466","705236","0.0-19.0-2.12","c2_test",".","","","",","
"828.0549999908544","<p style=""color:white;""> Next Figure: Male or Female? </p>","188","html-keyboard-response","467","706064","0.0-19.0-0.13","prediction","","","",",",""
"null","<div style=""color:white; font-size:60px;"">+</div>","null","html-keyboard-response","468","707066","0.0-19.0-1.13","fixation","","","","",""
"1402.6849999791011","Stimuli/Hangul_F1.bmp","190","image-keyboard-response","469","708469","0.0-19.0-2.13","c2_test",".","","","","."
"715.3449999750592","<p style=""color:white;""> Next Figure: Male or Female? </p>","190","html-keyboard-response","470","709187","0.0-19.0-0.14","prediction","","","",".",""
"null","<div style=""color:white; font-size:60px;"">+</div>","null","html-keyboard-response","471","710189","0.0-19.0-1.14","fixation","","","","",""
"351.16500000003725","Stimuli/Hangul_M7.bmp","190","image-keyboard-response","472","710541","0.0-19.0-2.14","c2_test",",","","","","."
"630.4499999969266","<p style=""color:white;""> Next Figure: Male or Female? </p>","190","html-keyboard-response","473","711173","0.0-19.0-0.15","prediction","","","",".",""
"null","<div style=""color:white; font-size:60px;"">+</div>","null","html-keyboard-response","474","712174","0.0-19.0-1.15","fixation","","","","",""
"1397.434999991674","Stimuli/Hangul_F10.bmp","188","image-keyboard-response","475","713573","0.0-19.0-2.15","c2_test",".","","","",","
"617.2049999877345","<p style=""color:white;""> Next Figure: Male or Female? </p>","188","html-keyboard-response","476","714191","0.0-19.0-0.16","prediction","","","",",",""
"null","<div style=""color:white; font-size:60px;"">+</div>","null","html-keyboard-response","477","715193","0.0-19.0-1.16","fixation","","","","",""
"1334.7349999821745","Stimuli/Hangul_M5.bmp","188","image-keyboard-response","478","716528","0.0-19.0-2.16","c2_test",",","","","",","
"1911.7799999949057","<p style=""color:white;""> Next Figure: Male or Female? </p>","190","html-keyboard-response","479","718441","0.0-19.0-0.17","prediction","","","",".",""
"null","<div style=""color:white; font-size:60px;"">+</div>","null","html-keyboard-response","480","719443","0.0-19.0-1.17","fixation","","","","",""
"1404.9050000030547","Stimuli/Hangul_M3.bmp","188","image-keyboard-response","481","720849","0.0-19.0-2.17","c2_test",",","","","",","
"3385.1399999985006","<p style=""color:white;""> Next Figure: Male or Female? </p>","188","html-keyboard-response","482","724235","0.0-19.0-0.18","prediction","","","",",",""
"null","<div style=""color:white; font-size:60px;"">+</div>","null","html-keyboard-response","483","725236","0.0-19.0-1.18","fixation","","","","",""
"657.2600000072271","Stimuli/Hangul_F6.bmp","188","image-keyboard-response","484","725895","0.0-19.0-2.18","c2_test",".","","","",","
"1014.9550000205636","<p style=""color:white;""> Next Figure: Male or Female? </p>","190","html-keyboard-response","485","726911","0.0-19.0-0.19","prediction","","","",".",""
"null","<div style=""color:white; font-size:60px;"">+</div>","null","html-keyboard-response","486","727911","0.0-19.0-1.19","fixation","","","","",""
"1237.2850000101607","Stimuli/Hangul_F8.bmp","190","image-keyboard-response","487","729149","0.0-19.0-2.19","c2_test",".","","","","."
"2202.045000012731","<p style=""color:white;""> Next Figure: Male or Female? </p>","188","html-keyboard-response","488","731353","0.0-19.0-0.20","prediction","","","",",",""
"null","<div style=""color:white; font-size:60px;"">+</div>","null","html-keyboard-response","489","732354","0.0-19.0-1.20","fixation","","","","",""
"712.0350000041071","Stimuli/Hangul_F23.bmp","190","image-keyboard-response","490","733068","0.0-19.0-2.20","c2_test",".","","","","."
"268.7949999817647","<p style=""color:white;""> Next Figure: Male or Female? </p>","190","html-keyboard-response","491","733338","0.0-19.0-0.21","prediction","","","",".",""
"null","<div style=""color:white; font-size:60px;"">+</div>","null","html-keyboard-response","492","734340","0.0-19.0-1.21","fixation","","","","",""
"655.3600000042934","Stimuli/Hangul_M12.bmp","188","image-keyboard-response","493","734996","0.0-19.0-2.21","c2_test",",","","","",","
"501.17999999201857","<p style=""color:white;""> Next Figure: Male or Female? </p>","188","html-keyboard-response","494","735498","0.0-19.0-0.22","prediction","","","",",",""
"null","<div style=""color:white; font-size:60px;"">+</div>","null","html-keyboard-response","495","736499","0.0-19.0-1.22","fixation","","","","",""
"1503.8749999948777","Stimuli/Hangul_M18.bmp","190","image-keyboard-response","496","738004","0.0-19.0-2.22","c2_test",",","","","","."
"249.86000001081266","<p style=""color:white;""> Next Figure: Male or Female? </p>","188","html-keyboard-response","497","738255","0.0-19.0-0.23","prediction","","","",",",""
"null","<div style=""color:white; font-size:60px;"">+</div>","null","html-keyboard-response","498","739256","0.0-19.0-1.23","fixation","","","","",""
"1509.8850000067614","Stimuli/Hangul_F18.bmp","188","image-keyboard-response","499","740767","0.0-19.0-2.23","c2_test",".","","","",","
"503.65000002784654","<p style=""color:white;""> Next Figure: Male or Female? </p>","190","html-keyboard-response","500","741272","0.0-19.0-0.24","prediction","","","",".",""
"null","<div style=""color:white; font-size:60px;"">+</div>","null","html-keyboard-response","501","742274","0.0-19.0-1.24","fixation","","","","",""
"1517.280000000028","Stimuli/Hangul_M10.bmp","190","image-keyboard-response","502","743793","0.0-19.0-2.24","c2_test",",","","","","."
"372.02500001876615","<p style=""color:white;""> Next Figure: Male or Female? </p>","188","html-keyboard-response","503","744165","0.0-19.0-0.25","prediction","","","",",",""
"null","<div style=""color:white; font-size:60px;"">+</div>","null","html-keyboard-response","504","745167","0.0-19.0-1.25","fixation","","","","",""
"1410.604999982752","Stimuli/Hangul_M6.bmp","188","image-keyboard-response","505","746579","0.0-19.0-2.25","c2_test",",","","","",","
"377.0199999853503","<p style=""color:white;""> Next Figure: Male or Female? </p>","188","html-keyboard-response","506","746957","0.0-19.0-0.26","prediction","","","",",",""
"null","<div style=""color:white; font-size:60px;"">+</div>","null","html-keyboard-response","507","747958","0.0-19.0-1.26","fixation","","","","",""
"1503.2549999887124","Stimuli/Hangul_M23.bmp","190","image-keyboard-response","508","749462","0.0-19.0-2.26","c2_test",",","","","","."
"236.92500000470318","<p style=""color:white;""> Next Figure: Male or Female? </p>","190","html-keyboard-response","509","749699","0.0-19.0-0.27","prediction","","","",".",""
"null","<div style=""color:white; font-size:60px;"">+</div>","null","html-keyboard-response","510","750702","0.0-19.0-1.27","fixation","","","","",""
"1694.7849999996834","Stimuli/Hangul_F11.bmp","188","image-keyboard-response","511","752397","0.0-19.0-2.27","c2_test",".","","","",","
"150.39500000420958","<p style=""color:white;""> Next Figure: Male or Female? </p>","190","html-keyboard-response","512","752548","0.0-19.0-0.28","prediction","","","",".",""
"null","<div style=""color:white; font-size:60px;"">+</div>","null","html-keyboard-response","513","753549","0.0-19.0-1.28","fixation","","","","",""
"1504.3799999984913","Stimuli/Hangul_M14.bmp","190","image-keyboard-response","514","755054","0.0-19.0-2.28","c2_test",",","","","","."
"176.97999998927116","<p style=""color:white;""> Next Figure: Male or Female? </p>","188","html-keyboard-response","515","755232","0.0-19.0-0.29","prediction","","","",",",""
"null","<div style=""color:white; font-size:60px;"">+</div>","null","html-keyboard-response","516","756234","0.0-19.0-1.29","fixation","","","","",""
"1360.179999988759","Stimuli/Hangul_F5.bmp","188","image-keyboard-response","517","757595","0.0-19.0-2.29","c2_test",".","","","",","
"360.3149999980815","<p style=""color:white;""> Next Figure: Male or Female? </p>","188","html-keyboard-response","518","757956","0.0-19.0-0.30","prediction","","","",",",""
"null","<div style=""color:white; font-size:60px;"">+</div>","null","html-keyboard-response","519","758957","0.0-19.0-1.30","fixation","","","","",""
"1418.100000009872","Stimuli/Hangul_F17.bmp","188","image-keyboard-response","520","760376","0.0-19.0-2.30","c2_test",".","","","",","
"416.575000010198","<p style=""color:white;""> Next Figure: Male or Female? </p>","188","html-keyboard-response","521","760795","0.0-19.0-0.31","prediction","","","",",",""
"null","<div style=""color:white; font-size:60px;"">+</div>","null","html-keyboard-response","522","761797","0.0-19.0-1.31","fixation","","","","",""
"1367.9699999920558","Stimuli/Hangul_M1.bmp","190","image-keyboard-response","523","763165","0.0-19.0-2.31","c2_test",",","","","","."
"263.8200000219513","<p style=""color:white;""> Next Figure: Male or Female? </p>","190","html-keyboard-response","524","763430","0.0-19.0-0.32","prediction","","","",".",""
"null","<div style=""color:white; font-size:60px;"">+</div>","null","html-keyboard-response","525","764432","0.0-19.0-1.32","fixation","","","","",""
"711.089999997057","Stimuli/Hangul_M21.bmp","190","image-keyboard-response","526","765144","0.0-19.0-2.32","c2_test",",","","","","."
"314.3299999937881","<p style=""color:white;""> Next Figure: Male or Female? </p>","190","html-keyboard-response","527","765459","0.0-19.0-0.33","prediction","","","",".",""
"null","<div style=""color:white; font-size:60px;"">+</div>","null","html-keyboard-response","528","766461","0.0-19.0-1.33","fixation","","","","",""
"990.0200000265613","Stimuli/Hangul_F21.bmp","188","image-keyboard-response","529","767452","0.0-19.0-2.33","c2_test",".","","","",","
"203.06499997968785","<p style=""color:white;""> Next Figure: Male or Female? </p>","188","html-keyboard-response","530","767656","0.0-19.0-0.34","prediction","","","",",",""
"null","<div style=""color:white; font-size:60px;"">+</div>","null","html-keyboard-response","531","768658","0.0-19.0-1.34","fixation","","","","",""
"1163.4900000062771","Stimuli/Hangul_M4.bmp","190","image-keyboard-response","532","769822","0.0-19.0-2.34","c2_test",",","","","","."
"171.13500001141801","<p style=""color:white;""> Next Figure: Male or Female? </p>","190","html-keyboard-response","533","769994","0.0-19.0-0.35","prediction","","","",".",""
"null","<div style=""color:white; font-size:60px;"">+</div>","null","html-keyboard-response","534","770996","0.0-19.0-1.35","fixation","","","","",""
"1140.4099999926984","Stimuli/Hangul_M0.bmp","190","image-keyboard-response","535","772137","0.0-19.0-2.35","c2_test",",","","","","."
"178.9600000192877","<p style=""color:white;""> Next Figure: Male or Female? </p>","190","html-keyboard-response","536","772317","0.0-19.0-0.36","prediction","","","",".",""
"null","<div style=""color:white; font-size:60px;"">+</div>","null","html-keyboard-response","537","773318","0.0-19.0-1.36","fixation","","","","",""
"1197.905000008177","Stimuli/Hangul_M11.bmp","188","image-keyboard-response","538","774517","0.0-19.0-2.36","c2_test",",","","","",","
"185.11500000022352","<p style=""color:white;""> Next Figure: Male or Female? </p>","188","html-keyboard-response","539","774703","0.0-19.0-0.37","prediction","","","",",",""
"null","<div style=""color:white; font-size:60px;"">+</div>","null","html-keyboard-response","540","775704","0.0-19.0-1.37","fixation","","","","",""
"1006.8649999739137","Stimuli/Hangul_M13.bmp","188","image-keyboard-response","541","776712","0.0-19.0-2.37","c2_test",",","","","",","
"237.2499999764841","<p style=""color:white;""> Next Figure: Male or Female? </p>","188","html-keyboard-response","542","776950","0.0-19.0-0.38","prediction","","","",",",""
"null","<div style=""color:white; font-size:60px;"">+</div>","null","html-keyboard-response","543","777951","0.0-19.0-1.38","fixation","","","","",""
"771.5000000025611","Stimuli/Hangul_M8.bmp","188","image-keyboard-response","544","778723","0.0-19.0-2.38","c2_test",",","","","",","
"234.1899999883026","<p style=""color:white;""> Next Figure: Male or Female? </p>","190","html-keyboard-response","545","778958","0.0-19.0-0.39","prediction","","","",".",""
"null","<div style=""color:white; font-size:60px;"">+</div>","null","html-keyboard-response","546","779959","0.0-19.0-1.39","fixation","","","","",""
"1407.3550000030082","Stimuli/Hangul_M24.bmp","188","image-keyboard-response","547","781368","0.0-19.0-2.39","c2_test",",","","","",","
"488.34500001976267","<p style=""color:white;""> Next Figure: Male or Female? </p>","188","html-keyboard-response","548","781857","0.0-19.0-0.40","prediction","","","",",",""
"null","<div style=""color:white; font-size:60px;"">+</div>","null","html-keyboard-response","549","782860","0.0-19.0-1.40","fixation","","","","",""
"1180.8899999887217","Stimuli/Hangul_F0.bmp","188","image-keyboard-response","550","784042","0.0-19.0-2.40","c2_test",".","","","",","
"285.18500001518987","<p style=""color:white;""> Next Figure: Male or Female? </p>","190","html-keyboard-response","551","784328","0.0-19.0-0.41","prediction","","","",".",""
"null","<div style=""color:white; font-size:60px;"">+</div>","null","html-keyboard-response","552","785329","0.0-19.0-1.41","fixation","","","","",""
"1591.3599999912549","Stimuli/Hangul_F4.bmp","188","image-keyboard-response","553","786921","0.0-19.0-2.41","c2_test",".","","","",","
"351.8449999974109","<p style=""color:white;""> Next Figure: Male or Female? </p>","188","html-keyboard-response","554","787274","0.0-19.0-0.42","prediction","","","",",",""
"null","<div style=""color:white; font-size:60px;"">+</div>","null","html-keyboard-response","555","788276","0.0-19.0-1.42","fixation","","","","",""
"1319.0100000065286","Stimuli/Hangul_M2.bmp","190","image-keyboard-response","556","789596","0.0-19.0-2.42","c2_test",",","","","","."
"218.76499999780208","<p style=""color:white;""> Next Figure: Male or Female? </p>","190","html-keyboard-response","557","789816","0.0-19.0-0.43","prediction","","","",".",""
"null","<div style=""color:white; font-size:60px;"">+</div>","null","html-keyboard-response","558","790818","0.0-19.0-1.43","fixation","","","","",""
"897.3199999891222","Stimuli/Hangul_F15.bmp","190","image-keyboard-response","559","791716","0.0-19.0-2.43","c2_test",".","","","","."
"166.28000000491738","<p style=""color:white;""> Next Figure: Male or Female? </p>","188","html-keyboard-response","560","791883","0.0-19.0-0.44","prediction","","","",",",""
"null","<div style=""color:white; font-size:60px;"">+</div>","null","html-keyboard-response","561","792884","0.0-19.0-1.44","fixation","","","","",""
"1093.4000000124797","Stimuli/Hangul_F16.bmp","188","image-keyboard-response","562","793978","0.0-19.0-2.44","c2_test",".","","","",","
"251.22000000556","<p style=""color:white;""> Next Figure: Male or Female? </p>","190","html-keyboard-response","563","794230","0.0-19.0-0.45","prediction","","","",".",""
"null","<div style=""color:white; font-size:60px;"">+</div>","null","html-keyboard-response","564","795232","0.0-19.0-1.45","fixation","","","","",""
"1349.5899999979883","Stimuli/Hangul_M19.bmp","190","image-keyboard-response","565","796582","0.0-19.0-2.45","c2_test",",","","","","."
"256.3050000171643","<p style=""color:white;""> Next Figure: Male or Female? </p>","190","html-keyboard-response","566","796839","0.0-19.0-0.46","prediction","","","",".",""
"null","<div style=""color:white; font-size:60px;"">+</div>","null","html-keyboard-response","567","797841","0.0-19.0-1.46","fixation","","","","",""
"1387.01000000583","Stimuli/Hangul_F24.bmp","188","image-keyboard-response","568","799228","0.0-19.0-2.46","c2_test",".","","","",","
"216.56000000075437","<p style=""color:white;""> Next Figure: Male or Female? </p>","188","html-keyboard-response","569","799446","0.0-19.0-0.47","prediction","","","",",",""
"null","<div style=""color:white; font-size:60px;"">+</div>","null","html-keyboard-response","570","800448","0.0-19.0-1.47","fixation","","","","",""
"1083.2100000116043","Stimuli/Hangul_F22.bmp","190","image-keyboard-response","571","801532","0.0-19.0-2.47","c2_test",".","","","","."
"255.52000000607222","<p style=""color:white;""> Next Figure: Male or Female? </p>","190","html-keyboard-response","572","801788","0.0-19.0-0.48","prediction","","","",".",""
"null","<div style=""color:white; font-size:60px;"">+</div>","null","html-keyboard-response","573","802790","0.0-19.0-1.48","fixation","","","","",""
"1111.2799999827985","Stimuli/Hangul_F14.bmp","188","image-keyboard-response","574","803902","0.0-19.0-2.48","c2_test",".","","","",","
"196.68500000261702","<p style=""color:white;""> Next Figure: Male or Female? </p>","188","html-keyboard-response","575","804100","0.0-19.0-0.49","prediction","","","",",",""
"null","<div style=""color:white; font-size:60px;"">+</div>","null","html-keyboard-response","576","805102","0.0-19.0-1.49","fixation","","","","",""
"848.1599999940954","Stimuli/Hangul_F19.bmp","188","image-keyboard-response","577","805951","0.0-19.0-2.49","c2_test",".","","","",","
"1540.2349999931175","<p style=""color:white;"">Good job, block 1 complete! Please take a moment to rest.</p> <p style=""color:white;"">When you are ready to continue with block 2 of 4, press the space bar.</p> ","32","html-keyboard-response","578","807492","0.0-20.0","","","","","",""
"116.08000000705943","<p style=""color:white;""> Next Figure: Male or Female? </p>","188","html-keyboard-response","579","809610","0.0-21.0-0.0","prediction","","","",",",""
"null","<div style=""color:white; font-size:60px;"">+</div>","null","html-keyboard-response","580","810612","0.0-21.0-1.0","fixation","","","","",""
"419.08500000135973","Stimuli/Hangul_M30.bmp","190","image-keyboard-response","581","811032","0.0-21.0-2.0","c2_test",",","","","","."
"116.06499998015352","<p style=""color:white;""> Next Figure: Male or Female? </p>","188","html-keyboard-response","582","811149","0.0-21.0-0.1","prediction","","","",",",""
"null","<div style=""color:white; font-size:60px;"">+</div>","null","html-keyboard-response","583","812150","0.0-21.0-1.1","fixation","","","","",""
"943.3799999824259","Stimuli/Hangul_M36.bmp","188","image-keyboard-response","584","813094","0.0-21.0-2.1","c2_test",",","","","",","
"134.98999999137595","<p style=""color:white;""> Next Figure: Male or Female? </p>","188","html-keyboard-response","585","813230","0.0-21.0-0.2","prediction","","","",",",""
"null","<div style=""color:white; font-size:60px;"">+</div>","null","html-keyboard-response","586","814233","0.0-21.0-1.2","fixation","","","","",""
"806.830000015907","Stimuli/Hangul_F43.bmp","188","image-keyboard-response","587","815041","0.0-21.0-2.2","c2_test",".","","","",","
"118.01999999443069","<p style=""color:white;""> Next Figure: Male or Female? </p>","190","html-keyboard-response","588","815160","0.0-21.0-0.3","prediction","","","",".",""
"null","<div style=""color:white; font-size:60px;"">+</div>","null","html-keyboard-response","589","816161","0.0-21.0-1.3","fixation","","","","",""
"17.89499999722466","Stimuli/Hangul_M32.bmp","188","image-keyboard-response","590","816180","0.0-21.0-2.3","c2_test",",","","","",","
"511.46500001777895","<p style=""color:white;""> Next Figure: Male or Female? </p>","190","html-keyboard-response","591","816692","0.0-21.0-0.4","prediction","","","",".",""
"null","<div style=""color:white; font-size:60px;"">+</div>","null","html-keyboard-response","592","817694","0.0-21.0-1.4","fixation","","","","",""
"1428.3599999907892","Stimuli/Hangul_M27.bmp","188","image-keyboard-response","593","819123","0.0-21.0-2.4","c2_test",",","","","",","
"95.24999998393469","<p style=""color:white;""> Next Figure: Male or Female? </p>","190","html-keyboard-response","594","819219","0.0-21.0-0.5","prediction","","","",".",""
"null","<div style=""color:white; font-size:60px;"">+</div>","null","html-keyboard-response","595","820220","0.0-21.0-1.5","fixation","","","","",""
"472.70499999285676","Stimuli/Hangul_M26.bmp","188","image-keyboard-response","596","820694","0.0-21.0-2.5","c2_test",",","","","",","
"1002.1349999879021","<p style=""color:white;""> Next Figure: Male or Female? </p>","188","html-keyboard-response","597","821697","0.0-21.0-0.6","prediction","","","",",",""
"null","<div style=""color:white; font-size:60px;"">+</div>","null","html-keyboard-response","598","822699","0.0-21.0-1.6","fixation","","","","",""
"540.3799999912735","Stimuli/Hangul_M49.bmp","188","image-keyboard-response","599","823240","0.0-21.0-2.6","c2_test",",","","","",","
"210.03499999642372","<p style=""color:white;""> Next Figure: Male or Female? </p>","188","html-keyboard-response","600","823451","0.0-21.0-0.7","prediction","","","",",",""
"null","<div style=""color:white; font-size:60px;"">+</div>","null","html-keyboard-response","601","824452","0.0-21.0-1.7","fixation","","","","",""
"925.1050000020768","Stimuli/Hangul_M47.bmp","188","image-keyboard-response","602","825378","0.0-21.0-2.7","c2_test",",","","","",","
"180.30999999609776","<p style=""color:white;""> Next Figure: Male or Female? </p>","190","html-keyboard-response","603","825559","0.0-21.0-0.8","prediction","","","",".",""
"null","<div style=""color:white; font-size:60px;"">+</div>","null","html-keyboard-response","604","826561","0.0-21.0-1.8","fixation","","","","",""
"111.43499999889173","Stimuli/Hangul_M44.bmp","188","image-keyboard-response","605","826673","0.0-21.0-2.8","c2_test",",","","","",","
"148.90999998897314","<p style=""color:white;""> Next Figure: Male or Female? </p>","190","html-keyboard-response","606","826823","0.0-21.0-0.9","prediction","","","",".",""
"null","<div style=""color:white; font-size:60px;"">+</div>","null","html-keyboard-response","607","827826","0.0-21.0-1.9","fixation","","","","",""
"996.3949999946635","Stimuli/Hangul_M45.bmp","190","image-keyboard-response","608","828823","0.0-21.0-2.9","c2_test",",","","","","."
"200.0949999783188","<p style=""color:white;""> Next Figure: Male or Female? </p>","190","html-keyboard-response","609","829024","0.0-21.0-0.10","prediction","","","",".",""
"null","<div style=""color:white; font-size:60px;"">+</div>","null","html-keyboard-response","610","830026","0.0-21.0-1.10","fixation","","","","",""
"3.759999992325902","Stimuli/Hangul_M39.bmp","190","image-keyboard-response","611","830031","0.0-21.0-2.10","c2_test",",","","","","."
"1303.4699999843724","<p style=""color:white;""> Next Figure: Male or Female? </p>","190","html-keyboard-response","612","831335","0.0-21.0-0.11","prediction","","","",".",""
"null","<div style=""color:white; font-size:60px;"">+</div>","null","html-keyboard-response","613","832337","0.0-21.0-1.11","fixation","","","","",""
"835.5100000044331","Stimuli/Hangul_F39.bmp","190","image-keyboard-response","614","833173","0.0-21.0-2.11","c2_test",".","","","","."
"18.69500000611879","<p style=""color:white;""> Next Figure: Male or Female? </p>","188","html-keyboard-response","615","833193","0.0-21.0-0.12","prediction","","","",",",""
"null","<div style=""color:white; font-size:60px;"">+</div>","null","html-keyboard-response","616","834195","0.0-21.0-1.12","fixation","","","","",""
"895.4800000065006","Stimuli/Hangul_M29.bmp","188","image-keyboard-response","617","835091","0.0-21.0-2.12","c2_test",",","","","",","
"1057.7049999847077","<p style=""color:white;""> Next Figure: Male or Female? </p>","188","html-keyboard-response","618","836149","0.0-21.0-0.13","prediction","","","",",",""
"null","<div style=""color:white; font-size:60px;"">+</div>","null","html-keyboard-response","619","837151","0.0-21.0-1.13","fixation","","","","",""
"432.795000000624","Stimuli/Hangul_F27.bmp","188","image-keyboard-response","620","837585","0.0-21.0-2.13","c2_test",".","","","",","
"4024.180000007618","<p style=""color:white;""> Next Figure: Male or Female? </p>","188","html-keyboard-response","621","841610","0.0-21.0-0.14","prediction","","","",",",""
"null","<div style=""color:white; font-size:60px;"">+</div>","null","html-keyboard-response","622","842612","0.0-21.0-1.14","fixation","","","","",""
"1051.4249999832828","Stimuli/Hangul_F29.bmp","190","image-keyboard-response","623","843665","0.0-21.0-2.14","c2_test",".","","","","."
"229.5999999914784","<p style=""color:white;""> Next Figure: Male or Female? </p>","188","html-keyboard-response","624","843896","0.0-21.0-0.15","prediction","","","",",",""
"null","<div style=""color:white; font-size:60px;"">+</div>","null","html-keyboard-response","625","844899","0.0-21.0-1.15","fixation","","","","",""
"595.3650000155903","Stimuli/Hangul_F34.bmp","188","image-keyboard-response","626","845495","0.0-21.0-2.15","c2_test",".","","","",","
"1606.1099999933504","<p style=""color:white;""> Next Figure: Male or Female? </p>","188","html-keyboard-response","627","847102","0.0-21.0-0.16","prediction","","","",",",""
"null","<div style=""color:white; font-size:60px;"">+</div>","null","html-keyboard-response","628","848104","0.0-21.0-1.16","fixation","","","","",""
"326.2749999994412","Stimuli/Hangul_F40.bmp","188","image-keyboard-response","629","848431","0.0-21.0-2.16","c2_test",".","","","",","
"620.4450000077486","<p style=""color:white;""> Next Figure: Male or Female? </p>","188","html-keyboard-response","630","849052","0.0-21.0-0.17","prediction","","","",",",""
"null","<div style=""color:white; font-size:60px;"">+</div>","null","html-keyboard-response","631","850055","0.0-21.0-1.17","fixation","","","","",""
"914.0849999967031","Stimuli/Hangul_M40.bmp","188","image-keyboard-response","632","850970","0.0-21.0-2.17","c2_test",",","","","",","
"382.98000002396293","<p style=""color:white;""> Next Figure: Male or Female? </p>","190","html-keyboard-response","633","851354","0.0-21.0-0.18","prediction","","","",".",""
"null","<div style=""color:white; font-size:60px;"">+</div>","null","html-keyboard-response","634","852357","0.0-21.0-1.18","fixation","","","","",""
"858.4200000041164","Stimuli/Hangul_M38.bmp","188","image-keyboard-response","635","853216","0.0-21.0-2.18","c2_test",",","","","",","
"257.93999998131767","<p style=""color:white;""> Next Figure: Male or Female? </p>","188","html-keyboard-response","636","853475","0.0-21.0-0.19","prediction","","","",",",""
"null","<div style=""color:white; font-size:60px;"">+</div>","null","html-keyboard-response","637","854478","0.0-21.0-1.19","fixation","","","","",""
"384.46999998996034","Stimuli/Hangul_F33.bmp","188","image-keyboard-response","638","854863","0.0-21.0-2.19","c2_test",".","","","",","
"337.96999999322","<p style=""color:white;""> Next Figure: Male or Female? </p>","188","html-keyboard-response","639","855202","0.0-21.0-0.20","prediction","","","",",",""
"null","<div style=""color:white; font-size:60px;"">+</div>","null","html-keyboard-response","640","856204","0.0-21.0-1.20","fixation","","","","",""
"1083.7349999928847","Stimuli/Hangul_F38.bmp","190","image-keyboard-response","641","857288","0.0-21.0-2.20","c2_test",".","","","","."
"259.50499999453314","<p style=""color:white;""> Next Figure: Male or Female? </p>","188","html-keyboard-response","642","857549","0.0-21.0-0.21","prediction","","","",",",""
"null","<div style=""color:white; font-size:60px;"">+</div>","null","html-keyboard-response","643","858552","0.0-21.0-1.21","fixation","","","","",""
"815.9999999916181","Stimuli/Hangul_M28.bmp","188","image-keyboard-response","644","859369","0.0-21.0-2.21","c2_test",",","","","",","
"627.0950000034645","<p style=""color:white;""> Next Figure: Male or Female? </p>","188","html-keyboard-response","645","859997","0.0-21.0-0.22","prediction","","","",",",""
"null","<div style=""color:white; font-size:60px;"">+</div>","null","html-keyboard-response","646","860999","0.0-21.0-1.22","fixation","","","","",""
"1409.9149999965448","Stimuli/Hangul_F37.bmp","188","image-keyboard-response","647","862410","0.0-21.0-2.22","c2_test",".","","","",","
"197.4049999844283","<p style=""color:white;""> Next Figure: Male or Female? </p>","190","html-keyboard-response","648","862608","0.0-21.0-0.23","prediction","","","",".",""
"null","<div style=""color:white; font-size:60px;"">+</div>","null","html-keyboard-response","649","863610","0.0-21.0-1.23","fixation","","","","",""
"1450.490000017453","Stimuli/Hangul_M41.bmp","188","image-keyboard-response","650","865061","0.0-21.0-2.23","c2_test",",","","","",","
"201.05500001227483","<p style=""color:white;""> Next Figure: Male or Female? </p>","190","html-keyboard-response","651","865263","0.0-21.0-0.24","prediction","","","",".",""
"null","<div style=""color:white; font-size:60px;"">+</div>","null","html-keyboard-response","652","866265","0.0-21.0-1.24","fixation","","","","",""
"440.43000001693144","Stimuli/Hangul_M48.bmp","188","image-keyboard-response","653","866706","0.0-21.0-2.24","c2_test",",","","","",","
"180.00999998184852","<p style=""color:white;""> Next Figure: Male or Female? </p>","190","html-keyboard-response","654","866888","0.0-21.0-0.25","prediction","","","",".",""
"null","<div style=""color:white; font-size:60px;"">+</div>","null","html-keyboard-response","655","867890","0.0-21.0-1.25","fixation","","","","",""
"470.36500001559034","Stimuli/Hangul_F45.bmp","190","image-keyboard-response","656","868361","0.0-21.0-2.25","c2_test",".","","","","."
