"rt","stimulus","key_press","trial_type","trial_index","time_elapsed","internal_node_id","test_part","correct_response","C1_train","C1","A","C2"
"1221.7949999612756","<p style=""color:white;"">Welcome to the experiment! Press any key to begin.</p>","32","html-keyboard-response","0","1229","0.0-0.0","","","","","",""
"14850.295000011101","<p style=""color:white;"">You will see a series of abstract figures. They are adaptations of signs in the Korean alphabet, but that is not important for this study. </p><p style=""color:white;"">Abstract figures sometimes have a more masculine or feminine shape. Here, each figure has already been assigned a gender as <q>Male</q> or <q>Female</q> by a panel of respondents in a pilot study. The respondents were not given specific instructions on how to do this, but were only told to use their intuition and to take into account the entire configuration of the stimulus. </p><p style=""color:white;"">Your task now is to guess the assigned gender of each figure. Please press the corresponding response keys to indicate your choice: </p><p style=""color:white;""> Male &#8594 <q>,</q> (comma)</p><p style=""color:white;""> Female &#8594 <q>.</q> (period)</p><p style=""color:white;"">Press either response keys to continue.</p>","188","html-keyboard-response","1","16081","0.0-1.0","","","","","",""
"10714.930000016466","<p style=""color:white;"">Your choice is correct if it matches the gender assigned by the majority of respondents in the pilot study.</p> <p style=""color:white;"">For each correct choice you will receive 2 cents. There will be 200 trials divided into 4 blocks of 50 trials. You will be able to take a break after every 50 trials.</p> <p style=""color:white;"">Press the space bar to continue.</p>","32","html-keyboard-response","2","26797","0.0-2.0","","","","","",""
"4094.4800000288524","<p style=""color:white;"">Here are some examples.</p> <p style=""color:white;"">For each, guess whether the assigned figure is male-like or female-like and indicate your choice by pressing either response keys.</p> <p style=""color:white;"">Press the space bar to continue.</p>","32","html-keyboard-response","3","30892","0.0-3.0","","","","","",""
"null","<div style=""color:white; font-size:60px;"">+</div>","null","html-keyboard-response","4","33895","0.0-4.0-0.0","fixation","","","","",""
"4918.179999978747","Stimuli/Hangul_E2.bmp","188","image-keyboard-response","5","38815","0.0-4.0-1.0","c1_train",".",",","","",""
"null","<div style=""color:white; font-size:60px;"">+</div>","null","html-keyboard-response","6","39817","0.0-4.0-0.1","fixation","","","","",""
"3647.014999995008","Stimuli/Hangul_E0.bmp","188","image-keyboard-response","7","43465","0.0-4.0-1.1","c1_train",",",",","","",""
"null","<div style=""color:white; font-size:60px;"">+</div>","null","html-keyboard-response","8","44466","0.0-4.0-0.2","fixation","","","","",""
"2362.909999967087","Stimuli/Hangul_E1.bmp","190","image-keyboard-response","9","46830","0.0-4.0-1.2","c1_train",",",".","","",""
"5546.80000001099","<p style=""color:white;"">Let us begin! Press the space bar when you are ready to start block 1 of 4.</p> ","32","html-keyboard-response","10","52378","0.0-5.0","","","","","",""
"null","<div style=""color:white; font-size:60px;"">+</div>","null","html-keyboard-response","11","55381","0.0-6.0-0.0","fixation","","","","",""
"4613.615000038408","Stimuli/Hangul_M13.bmp","188","image-keyboard-response","12","59996","0.0-6.0-1.0","test",",","",",","",""
"null","<div style=""color:white; font-size:60px;"">+</div>","null","html-keyboard-response","13","61008","0.0-6.0-0.1","fixation","","","","",""
"3317.624999966938","Stimuli/Hangul_F12.bmp","190","image-keyboard-response","14","64327","0.0-6.0-1.1","test",".","",".","",""
"null","<div style=""color:white; font-size:60px;"">+</div>","null","html-keyboard-response","15","65329","0.0-6.0-0.2","fixation","","","","",""
"3645.0799999875017","Stimuli/Hangul_F21.bmp","188","image-keyboard-response","16","68976","0.0-6.0-1.2","test",".","",",","",""
"null","<div style=""color:white; font-size:60px;"">+</div>","null","html-keyboard-response","17","69977","0.0-6.0-0.3","fixation","","","","",""
"3669.739999982994","Stimuli/Hangul_F9.bmp","190","image-keyboard-response","18","73648","0.0-6.0-1.3","test",".","",".","",""
"null","<div style=""color:white; font-size:60px;"">+</div>","null","html-keyboard-response","19","74649","0.0-6.0-0.4","fixation","","","","",""
"3277.410000038799","Stimuli/Hangul_M5.bmp","190","image-keyboard-response","20","77928","0.0-6.0-1.4","test",",","",".","",""
"null","<div style=""color:white; font-size:60px;"">+</div>","null","html-keyboard-response","21","78929","0.0-6.0-0.5","fixation","","","","",""
"3567.5850000116043","Stimuli/Hangul_M16.bmp","188","image-keyboard-response","22","82498","0.0-6.0-1.5","test",",","",",","",""
"null","<div style=""color:white; font-size:60px;"">+</div>","null","html-keyboard-response","23","83512","0.0-6.0-0.6","fixation","","","","",""
"4070.1850000186823","Stimuli/Hangul_M20.bmp","188","image-keyboard-response","24","87583","0.0-6.0-1.6","test",",","",",","",""
"null","<div style=""color:white; font-size:60px;"">+</div>","null","html-keyboard-response","25","88585","0.0-6.0-0.7","fixation","","","","",""
"3705.2649999968708","Stimuli/Hangul_M11.bmp","188","image-keyboard-response","26","92291","0.0-6.0-1.7","test",",","",",","",""
"null","<div style=""color:white; font-size:60px;"">+</div>","null","html-keyboard-response","27","93293","0.0-6.0-0.8","fixation","","","","",""
"5416.335000016261","Stimuli/Hangul_M18.bmp","190","image-keyboard-response","28","98710","0.0-6.0-1.8","test",",","",".","",""
"null","<div style=""color:white; font-size:60px;"">+</div>","null","html-keyboard-response","29","99712","0.0-6.0-0.9","fixation","","","","",""
"3231.9099999731407","Stimuli/Hangul_M14.bmp","190","image-keyboard-response","30","102945","0.0-6.0-1.9","test",",","",".","",""
"null","<div style=""color:white; font-size:60px;"">+</div>","null","html-keyboard-response","31","103946","0.0-6.0-0.10","fixation","","","","",""
"5280.200000037439","Stimuli/Hangul_F16.bmp","188","image-keyboard-response","32","109227","0.0-6.0-1.10","test",".","",",","",""
"null","<div style=""color:white; font-size:60px;"">+</div>","null","html-keyboard-response","33","110229","0.0-6.0-0.11","fixation","","","","",""
"3318.0949999950826","Stimuli/Hangul_M17.bmp","188","image-keyboard-response","34","113548","0.0-6.0-1.11","test",",","",",","",""
"null","<div style=""color:white; font-size:60px;"">+</div>","null","html-keyboard-response","35","114550","0.0-6.0-0.12","fixation","","","","",""
"3546.9699999666773","Stimuli/Hangul_F2.bmp","188","image-keyboard-response","36","118097","0.0-6.0-1.12","test",".","",",","",""
"null","<div style=""color:white; font-size:60px;"">+</div>","null","html-keyboard-response","37","119098","0.0-6.0-0.13","fixation","","","","",""
"2453.265000018291","Stimuli/Hangul_F22.bmp","188","image-keyboard-response","38","121553","0.0-6.0-1.13","test",".","",",","",""
"null","<div style=""color:white; font-size:60px;"">+</div>","null","html-keyboard-response","39","122568","0.0-6.0-0.14","fixation","","","","",""
"2259.955000015907","Stimuli/Hangul_F19.bmp","188","image-keyboard-response","40","124829","0.0-6.0-1.14","test",".","",",","",""
"null","<div style=""color:white; font-size:60px;"">+</div>","null","html-keyboard-response","41","125830","0.0-6.0-0.15","fixation","","","","",""
"2240.140000008978","Stimuli/Hangul_F24.bmp","190","image-keyboard-response","42","128070","0.0-6.0-1.15","test",".","",".","",""
"null","<div style=""color:white; font-size:60px;"">+</div>","null","html-keyboard-response","43","129072","0.0-6.0-0.16","fixation","","","","",""
"2960.814999998547","Stimuli/Hangul_M9.bmp","188","image-keyboard-response","44","132034","0.0-6.0-1.16","test",",","",",","",""
"null","<div style=""color:white; font-size:60px;"">+</div>","null","html-keyboard-response","45","133036","0.0-6.0-0.17","fixation","","","","",""
"3401.3449999620207","Stimuli/Hangul_M19.bmp","190","image-keyboard-response","46","136438","0.0-6.0-1.17","test",",","",".","",""
"null","<div style=""color:white; font-size:60px;"">+</div>","null","html-keyboard-response","47","137440","0.0-6.0-0.18","fixation","","","","",""
"2524.809999973513","Stimuli/Hangul_F23.bmp","188","image-keyboard-response","48","139965","0.0-6.0-1.18","test",".","",",","",""
"null","<div style=""color:white; font-size:60px;"">+</div>","null","html-keyboard-response","49","140974","0.0-6.0-0.19","fixation","","","","",""
"2418.119999987539","Stimuli/Hangul_M2.bmp","190","image-keyboard-response","50","143393","0.0-6.0-1.19","test",",","",".","",""
"null","<div style=""color:white; font-size:60px;"">+</div>","null","html-keyboard-response","51","144394","0.0-6.0-0.20","fixation","","","","",""
"2671.6899999883026","Stimuli/Hangul_M10.bmp","190","image-keyboard-response","52","147067","0.0-6.0-1.20","test",",","",".","",""
"null","<div style=""color:white; font-size:60px;"">+</div>","null","html-keyboard-response","53","148068","0.0-6.0-0.21","fixation","","","","",""
"1972.1600000048056","Stimuli/Hangul_M3.bmp","188","image-keyboard-response","54","150041","0.0-6.0-1.21","test",",","",",","",""
"null","<div style=""color:white; font-size:60px;"">+</div>","null","html-keyboard-response","55","151043","0.0-6.0-0.22","fixation","","","","",""
"1891.1349999834783","Stimuli/Hangul_M21.bmp","188","image-keyboard-response","56","152935","0.0-6.0-1.22","test",",","",",","",""
"null","<div style=""color:white; font-size:60px;"">+</div>","null","html-keyboard-response","57","153936","0.0-6.0-0.23","fixation","","","","",""
"2088.2600000477396","Stimuli/Hangul_F17.bmp","188","image-keyboard-response","58","156025","0.0-6.0-1.23","test",".","",",","",""
"null","<div style=""color:white; font-size:60px;"">+</div>","null","html-keyboard-response","59","157026","0.0-6.0-0.24","fixation","","","","",""
"2306.235000025481","Stimuli/Hangul_F3.bmp","190","image-keyboard-response","60","159333","0.0-6.0-1.24","test",".","",".","",""
"null","<div style=""color:white; font-size:60px;"">+</div>","null","html-keyboard-response","61","160334","0.0-6.0-0.25","fixation","","","","",""
"2165.27999995742","Stimuli/Hangul_M15.bmp","190","image-keyboard-response","62","162500","0.0-6.0-1.25","test",",","",".","",""
"null","<div style=""color:white; font-size:60px;"">+</div>","null","html-keyboard-response","63","163502","0.0-6.0-0.26","fixation","","","","",""
"2000.5300000193529","Stimuli/Hangul_M24.bmp","188","image-keyboard-response","64","165503","0.0-6.0-1.26","test",",","",",","",""
"null","<div style=""color:white; font-size:60px;"">+</div>","null","html-keyboard-response","65","166505","0.0-6.0-0.27","fixation","","","","",""
"2289.7349999984726","Stimuli/Hangul_M0.bmp","188","image-keyboard-response","66","168796","0.0-6.0-1.27","test",",","",",","",""
"null","<div style=""color:white; font-size:60px;"">+</div>","null","html-keyboard-response","67","169798","0.0-6.0-0.28","fixation","","","","",""
"3447.16000003973","Stimuli/Hangul_F15.bmp","190","image-keyboard-response","68","173245","0.0-6.0-1.28","test",".","",".","",""
"null","<div style=""color:white; font-size:60px;"">+</div>","null","html-keyboard-response","69","174248","0.0-6.0-0.29","fixation","","","","",""
"2125.385000021197","Stimuli/Hangul_F5.bmp","190","image-keyboard-response","70","176374","0.0-6.0-1.29","test",".","",".","",""
"null","<div style=""color:white; font-size:60px;"">+</div>","null","html-keyboard-response","71","177376","0.0-6.0-0.30","fixation","","","","",""
"1841.454999987036","Stimuli/Hangul_M1.bmp","188","image-keyboard-response","72","179219","0.0-6.0-1.30","test",",","",",","",""
"null","<div style=""color:white; font-size:60px;"">+</div>","null","html-keyboard-response","73","180221","0.0-6.0-0.31","fixation","","","","",""
"2280.7499999762513","Stimuli/Hangul_F14.bmp","190","image-keyboard-response","74","182502","0.0-6.0-1.31","test",".","",".","",""
"null","<div style=""color:white; font-size:60px;"">+</div>","null","html-keyboard-response","75","183504","0.0-6.0-0.32","fixation","","","","",""
"2327.85000000149","Stimuli/Hangul_M12.bmp","188","image-keyboard-response","76","185833","0.0-6.0-1.32","test",",","",",","",""
"null","<div style=""color:white; font-size:60px;"">+</div>","null","html-keyboard-response","77","186835","0.0-6.0-0.33","fixation","","","","",""
"1967.8599999751896","Stimuli/Hangul_F1.bmp","190","image-keyboard-response","78","188804","0.0-6.0-1.33","test",".","",".","",""
"null","<div style=""color:white; font-size:60px;"">+</div>","null","html-keyboard-response","79","189806","0.0-6.0-0.34","fixation","","","","",""
"3416.5800000191666","Stimuli/Hangul_F20.bmp","190","image-keyboard-response","80","193223","0.0-6.0-1.34","test",".","",".","",""
"null","<div style=""color:white; font-size:60px;"">+</div>","null","html-keyboard-response","81","194224","0.0-6.0-0.35","fixation","","","","",""
"2542.8200000314973","Stimuli/Hangul_F13.bmp","188","image-keyboard-response","82","196768","0.0-6.0-1.35","test",".","",",","",""
"null","<div style=""color:white; font-size:60px;"">+</div>","null","html-keyboard-response","83","197769","0.0-6.0-0.36","fixation","","","","",""
"2344.6450000046752","Stimuli/Hangul_F8.bmp","190","image-keyboard-response","84","200115","0.0-6.0-1.36","test",".","",".","",""
"null","<div style=""color:white; font-size:60px;"">+</div>","null","html-keyboard-response","85","201117","0.0-6.0-0.37","fixation","","","","",""
"2506.5099999774247","Stimuli/Hangul_F6.bmp","190","image-keyboard-response","86","203624","0.0-6.0-1.37","test",".","",".","",""
"null","<div style=""color:white; font-size:60px;"">+</div>","null","html-keyboard-response","87","204626","0.0-6.0-0.38","fixation","","","","",""
"2939.900000055786","Stimuli/Hangul_F0.bmp","190","image-keyboard-response","88","207567","0.0-6.0-1.38","test",".","",".","",""
"null","<div style=""color:white; font-size:60px;"">+</div>","null","html-keyboard-response","89","208569","0.0-6.0-0.39","fixation","","","","",""
"2083.775000006426","Stimuli/Hangul_F11.bmp","190","image-keyboard-response","90","210654","0.0-6.0-1.39","test",".","",".","",""
"null","<div style=""color:white; font-size:60px;"">+</div>","null","html-keyboard-response","91","211656","0.0-6.0-0.40","fixation","","","","",""
"2250.735000008717","Stimuli/Hangul_F4.bmp","190","image-keyboard-response","92","213907","0.0-6.0-1.40","test",".","",".","",""
"null","<div style=""color:white; font-size:60px;"">+</div>","null","html-keyboard-response","93","214934","0.0-6.0-0.41","fixation","","","","",""
"2347.605000017211","Stimuli/Hangul_F10.bmp","190","image-keyboard-response","94","217282","0.0-6.0-1.41","test",".","",".","",""
"null","<div style=""color:white; font-size:60px;"">+</div>","null","html-keyboard-response","95","218285","0.0-6.0-0.42","fixation","","","","",""
"2728.5350000020117","Stimuli/Hangul_M6.bmp","188","image-keyboard-response","96","221015","0.0-6.0-1.42","test",",","",",","",""
"null","<div style=""color:white; font-size:60px;"">+</div>","null","html-keyboard-response","97","222016","0.0-6.0-0.43","fixation","","","","",""
"1953.8000000175089","Stimuli/Hangul_M7.bmp","188","image-keyboard-response","98","223970","0.0-6.0-1.43","test",",","",",","",""
"null","<div style=""color:white; font-size:60px;"">+</div>","null","html-keyboard-response","99","224977","0.0-6.0-0.44","fixation","","","","",""
"2727.6399999973364","Stimuli/Hangul_M4.bmp","188","image-keyboard-response","100","227705","0.0-6.0-1.44","test",",","",",","",""
"null","<div style=""color:white; font-size:60px;"">+</div>","null","html-keyboard-response","101","228708","0.0-6.0-0.45","fixation","","","","",""
"1937.8949999809265","Stimuli/Hangul_M8.bmp","188","image-keyboard-response","102","230647","0.0-6.0-1.45","test",",","",",","",""
"null","<div style=""color:white; font-size:60px;"">+</div>","null","html-keyboard-response","103","231648","0.0-6.0-0.46","fixation","","","","",""
"2449.8099999618717","Stimuli/Hangul_M23.bmp","190","image-keyboard-response","104","234098","0.0-6.0-1.46","test",",","",".","",""
"null","<div style=""color:white; font-size:60px;"">+</div>","null","html-keyboard-response","105","235101","0.0-6.0-0.47","fixation","","","","",""
"3138.474999985192","Stimuli/Hangul_F7.bmp","188","image-keyboard-response","106","238241","0.0-6.0-1.47","test",".","",",","",""
"null","<div style=""color:white; font-size:60px;"">+</div>","null","html-keyboard-response","107","239251","0.0-6.0-0.48","fixation","","","","",""
"1881.5449999528937","Stimuli/Hangul_M22.bmp","188","image-keyboard-response","108","241133","0.0-6.0-1.48","test",",","",",","",""
"null","<div style=""color:white; font-size:60px;"">+</div>","null","html-keyboard-response","109","242136","0.0-6.0-0.49","fixation","","","","",""
"2023.8399999798276","Stimuli/Hangul_F18.bmp","190","image-keyboard-response","110","244160","0.0-6.0-1.49","test",".","",".","",""
"1952.335000038147","<p style=""color:white;"">Good job, block 1 complete! Please take a moment to rest.</p> <p style=""color:white;"">When you are ready to continue with block 2 of 4, press the space bar.</p> ","32","html-keyboard-response","111","246114","0.0-7.0","","","","","",""
"null","<div style=""color:white; font-size:60px;"">+</div>","null","html-keyboard-response","112","249117","0.0-8.0-0.0","fixation","","","","",""
"1819.5850000483915","Stimuli/Hangul_F34.bmp","190","image-keyboard-response","113","250938","0.0-8.0-1.0","test",".","",".","",""
"null","<div style=""color:white; font-size:60px;"">+</div>","null","html-keyboard-response","114","251939","0.0-8.0-0.1","fixation","","","","",""
"2033.594999986235","Stimuli/Hangul_M25.bmp","190","image-keyboard-response","115","253974","0.0-8.0-1.1","test",",","",".","",""
"null","<div style=""color:white; font-size:60px;"">+</div>","null","html-keyboard-response","116","254975","0.0-8.0-0.2","fixation","","","","",""
"2476.6400000080466","Stimuli/Hangul_M36.bmp","190","image-keyboard-response","117","257453","0.0-8.0-1.2","test",",","",".","",""
"null","<div style=""color:white; font-size:60px;"">+</div>","null","html-keyboard-response","118","258455","0.0-8.0-0.3","fixation","","","","",""
"1971.5699999942444","Stimuli/Hangul_M35.bmp","190","image-keyboard-response","119","260428","0.0-8.0-1.3","test",",","",".","",""
"null","<div style=""color:white; font-size:60px;"">+</div>","null","html-keyboard-response","120","261430","0.0-8.0-0.4","fixation","","","","",""
"2642.259999993257","Stimuli/Hangul_F47.bmp","190","image-keyboard-response","121","264073","0.0-8.0-1.4","test",".","",".","",""
"null","<div style=""color:white; font-size:60px;"">+</div>","null","html-keyboard-response","122","265075","0.0-8.0-0.5","fixation","","","","",""
"2001.4500000397675","Stimuli/Hangul_F35.bmp","190","image-keyboard-response","123","267077","0.0-8.0-1.5","test",".","",".","",""
"null","<div style=""color:white; font-size:60px;"">+</div>","null","html-keyboard-response","124","268079","0.0-8.0-0.6","fixation","","","","",""
"2898.57000001939","Stimuli/Hangul_M40.bmp","188","image-keyboard-response","125","270979","0.0-8.0-1.6","test",",","",",","",""
"null","<div style=""color:white; font-size:60px;"">+</div>","null","html-keyboard-response","126","271999","0.0-8.0-0.7","fixation","","","","",""
"1951.2800000375137","Stimuli/Hangul_M48.bmp","188","image-keyboard-response","127","273951","0.0-8.0-1.7","test",",","",",","",""
"null","<div style=""color:white; font-size:60px;"">+</div>","null","html-keyboard-response","128","274953","0.0-8.0-0.8","fixation","","","","",""
"2171.5950000216253","Stimuli/Hangul_F29.bmp","190","image-keyboard-response","129","277125","0.0-8.0-1.8","test",".","",".","",""
"null","<div style=""color:white; font-size:60px;"">+</div>","null","html-keyboard-response","130","278126","0.0-8.0-0.9","fixation","","","","",""
"2579.4350000214763","Stimuli/Hangul_M46.bmp","188","image-keyboard-response","131","280706","0.0-8.0-1.9","test",",","",",","",""
"null","<div style=""color:white; font-size:60px;"">+</div>","null","html-keyboard-response","132","281708","0.0-8.0-0.10","fixation","","","","",""
"3091.9100000173785","Stimuli/Hangul_M49.bmp","190","image-keyboard-response","133","284801","0.0-8.0-1.10","test",",","",".","",""
"null","<div style=""color:white; font-size:60px;"">+</div>","null","html-keyboard-response","134","285801","0.0-8.0-0.11","fixation","","","","",""
"2896.249999990687","Stimuli/Hangul_M30.bmp","190","image-keyboard-response","135","288699","0.0-8.0-1.11","test",",","",".","",""
"null","<div style=""color:white; font-size:60px;"">+</div>","null","html-keyboard-response","136","289700","0.0-8.0-0.12","fixation","","","","",""
"3030.2049999590963","Stimuli/Hangul_F28.bmp","190","image-keyboard-response","137","292731","0.0-8.0-1.12","test",".","",".","",""
"null","<div style=""color:white; font-size:60px;"">+</div>","null","html-keyboard-response","138","293733","0.0-8.0-0.13","fixation","","","","",""
"5272.50500000082","Stimuli/Hangul_F26.bmp","190","image-keyboard-response","139","299006","0.0-8.0-1.13","test",".","",".","",""
"null","<div style=""color:white; font-size:60px;"">+</div>","null","html-keyboard-response","140","300008","0.0-8.0-0.14","fixation","","","","",""
"3039.9150000303052","Stimuli/Hangul_F43.bmp","190","image-keyboard-response","141","303049","0.0-8.0-1.14","test",".","",".","",""
"null","<div style=""color:white; font-size:60px;"">+</div>","null","html-keyboard-response","142","304051","0.0-8.0-0.15","fixation","","","","",""
"2203.380000020843","Stimuli/Hangul_F33.bmp","190","image-keyboard-response","143","306255","0.0-8.0-1.15","test",".","",".","",""
"null","<div style=""color:white; font-size:60px;"">+</div>","null","html-keyboard-response","144","307256","0.0-8.0-0.16","fixation","","","","",""
"2289.214999997057","Stimuli/Hangul_F25.bmp","188","image-keyboard-response","145","309546","0.0-8.0-1.16","test",".","",",","",""
"null","<div style=""color:white; font-size:60px;"">+</div>","null","html-keyboard-response","146","310548","0.0-8.0-0.17","fixation","","","","",""
"2714.520000037737","Stimuli/Hangul_M27.bmp","190","image-keyboard-response","147","313263","0.0-8.0-1.17","test",",","",".","",""
"null","<div style=""color:white; font-size:60px;"">+</div>","null","html-keyboard-response","148","314264","0.0-8.0-0.18","fixation","","","","",""
"4509.545000037178","Stimuli/Hangul_F46.bmp","190","image-keyboard-response","149","318775","0.0-8.0-1.18","test",".","",".","",""
"null","<div style=""color:white; font-size:60px;"">+</div>","null","html-keyboard-response","150","319776","0.0-8.0-0.19","fixation","","","","",""
"2999.7300000395626","Stimuli/Hangul_M44.bmp","188","image-keyboard-response","151","322777","0.0-8.0-1.19","test",",","",",","",""
"null","<div style=""color:white; font-size:60px;"">+</div>","null","html-keyboard-response","152","323778","0.0-8.0-0.20","fixation","","","","",""
"5227.690000028815","Stimuli/Hangul_M34.bmp","190","image-keyboard-response","153","329007","0.0-8.0-1.20","test",",","",".","",""
"null","<div style=""color:white; font-size:60px;"">+</div>","null","html-keyboard-response","154","330009","0.0-8.0-0.21","fixation","","","","",""
"5407.119999988936","Stimuli/Hangul_M33.bmp","190","image-keyboard-response","155","335417","0.0-8.0-1.21","test",",","",".","",""
"null","<div style=""color:white; font-size:60px;"">+</div>","null","html-keyboard-response","156","336419","0.0-8.0-0.22","fixation","","","","",""
"2988.6599999736063","Stimuli/Hangul_F42.bmp","190","image-keyboard-response","157","339409","0.0-8.0-1.22","test",".","",".","",""
"null","<div style=""color:white; font-size:60px;"">+</div>","null","html-keyboard-response","158","340411","0.0-8.0-0.23","fixation","","","","",""
"3282.420000003185","Stimuli/Hangul_M37.bmp","188","image-keyboard-response","159","343694","0.0-8.0-1.23","test",",","",",","",""
"null","<div style=""color:white; font-size:60px;"">+</div>","null","html-keyboard-response","160","344696","0.0-8.0-0.24","fixation","","","","",""
"3008.4899999783374","Stimuli/Hangul_M42.bmp","188","image-keyboard-response","161","347706","0.0-8.0-1.24","test",",","",",","",""
"null","<div style=""color:white; font-size:60px;"">+</div>","null","html-keyboard-response","162","348707","0.0-8.0-0.25","fixation","","","","",""
"3146.4649999979883","Stimuli/Hangul_F27.bmp","190","image-keyboard-response","163","351855","0.0-8.0-1.25","test",".","",".","",""
"null","<div style=""color:white; font-size:60px;"">+</div>","null","html-keyboard-response","164","352856","0.0-8.0-0.26","fixation","","","","",""
"2993.8899999833666","Stimuli/Hangul_M39.bmp","188","image-keyboard-response","165","355851","0.0-8.0-1.26","test",",","",",","",""
"null","<div style=""color:white; font-size:60px;"">+</div>","null","html-keyboard-response","166","356852","0.0-8.0-0.27","fixation","","","","",""
"3951.045000052545","Stimuli/Hangul_F38.bmp","188","image-keyboard-response","167","360803","0.0-8.0-1.27","test",".","",",","",""
"null","<div style=""color:white; font-size:60px;"">+</div>","null","html-keyboard-response","168","361805","0.0-8.0-0.28","fixation","","","","",""
"2743.750000023283","Stimuli/Hangul_M29.bmp","190","image-keyboard-response","169","364550","0.0-8.0-1.28","test",",","",".","",""
"null","<div style=""color:white; font-size:60px;"">+</div>","null","html-keyboard-response","170","365553","0.0-8.0-0.29","fixation","","","","",""
"2349.884999974165","Stimuli/Hangul_F40.bmp","190","image-keyboard-response","171","367905","0.0-8.0-1.29","test",".","",".","",""
"null","<div style=""color:white; font-size:60px;"">+</div>","null","html-keyboard-response","172","368906","0.0-8.0-0.30","fixation","","","","",""
"2951.284999959171","Stimuli/Hangul_F32.bmp","190","image-keyboard-response","173","371858","0.0-8.0-1.30","test",".","",".","",""
"null","<div style=""color:white; font-size:60px;"">+</div>","null","html-keyboard-response","174","372860","0.0-8.0-0.31","fixation","","","","",""
"3256.185000005644","Stimuli/Hangul_F39.bmp","190","image-keyboard-response","175","376117","0.0-8.0-1.31","test",".","",".","",""
"null","<div style=""color:white; font-size:60px;"">+</div>","null","html-keyboard-response","176","377118","0.0-8.0-0.32","fixation","","","","",""
"2404.195000010077","Stimuli/Hangul_M43.bmp","188","image-keyboard-response","177","379523","0.0-8.0-1.32","test",",","",",","",""
"null","<div style=""color:white; font-size:60px;"">+</div>","null","html-keyboard-response","178","380524","0.0-8.0-0.33","fixation","","","","",""
"3907.34000003431","Stimuli/Hangul_M26.bmp","188","image-keyboard-response","179","384432","0.0-8.0-1.33","test",",","",",","",""
"null","<div style=""color:white; font-size:60px;"">+</div>","null","html-keyboard-response","180","385434","0.0-8.0-0.34","fixation","","","","",""
"3372.7400000207126","Stimuli/Hangul_M45.bmp","188","image-keyboard-response","181","388808","0.0-8.0-1.34","test",",","",",","",""
"null","<div style=""color:white; font-size:60px;"">+</div>","null","html-keyboard-response","182","389808","0.0-8.0-0.35","fixation","","","","",""
"3746.705000055954","Stimuli/Hangul_F41.bmp","188","image-keyboard-response","183","393556","0.0-8.0-1.35","test",".","",",","",""
"null","<div style=""color:white; font-size:60px;"">+</div>","null","html-keyboard-response","184","394557","0.0-8.0-0.36","fixation","","","","",""
"2613.290000008419","Stimuli/Hangul_F30.bmp","190","image-keyboard-response","185","397172","0.0-8.0-1.36","test",".","",".","",""
"null","<div style=""color:white; font-size:60px;"">+</div>","null","html-keyboard-response","186","398174","0.0-8.0-0.37","fixation","","","","",""
"4988.794999953825","Stimuli/Hangul_F44.bmp","188","image-keyboard-response","187","403163","0.0-8.0-1.37","test",".","",",","",""
"null","<div style=""color:white; font-size:60px;"">+</div>","null","html-keyboard-response","188","404165","0.0-8.0-0.38","fixation","","","","",""
"3852.8300000471063","Stimuli/Hangul_M47.bmp","188","image-keyboard-response","189","408019","0.0-8.0-1.38","test",",","",",","",""
"null","<div style=""color:white; font-size:60px;"">+</div>","null","html-keyboard-response","190","409020","0.0-8.0-0.39","fixation","","","","",""
"2789.8000000277534","Stimuli/Hangul_F31.bmp","190","image-keyboard-response","191","411810","0.0-8.0-1.39","test",".","",".","",""
"null","<div style=""color:white; font-size:60px;"">+</div>","null","html-keyboard-response","192","412812","0.0-8.0-0.40","fixation","","","","",""
"4693.269999988843","Stimuli/Hangul_M38.bmp","188","image-keyboard-response","193","417506","0.0-8.0-1.40","test",",","",",","",""
"null","<div style=""color:white; font-size:60px;"">+</div>","null","html-keyboard-response","194","418507","0.0-8.0-0.41","fixation","","","","",""
"2162.9749999847263","Stimuli/Hangul_M31.bmp","188","image-keyboard-response","195","420671","0.0-8.0-1.41","test",",","",",","",""
"null","<div style=""color:white; font-size:60px;"">+</div>","null","html-keyboard-response","196","421672","0.0-8.0-0.42","fixation","","","","",""
"3250.445000012405","Stimuli/Hangul_F48.bmp","190","image-keyboard-response","197","424924","0.0-8.0-1.42","test",".","",".","",""
"null","<div style=""color:white; font-size:60px;"">+</div>","null","html-keyboard-response","198","425925","0.0-8.0-0.43","fixation","","","","",""
"3820.9799999604","Stimuli/Hangul_M41.bmp","190","image-keyboard-response","199","429747","0.0-8.0-1.43","test",",","",".","",""
"null","<div style=""color:white; font-size:60px;"">+</div>","null","html-keyboard-response","200","430749","0.0-8.0-0.44","fixation","","","","",""
"3385.4450000217184","Stimuli/Hangul_F36.bmp","190","image-keyboard-response","201","434135","0.0-8.0-1.44","test",".","",".","",""
"null","<div style=""color:white; font-size:60px;"">+</div>","null","html-keyboard-response","202","435136","0.0-8.0-0.45","fixation","","","","",""
"3478.659999964293","Stimuli/Hangul_F49.bmp","188","image-keyboard-response","203","438616","0.0-8.0-1.45","test",".","",",","",""
"null","<div style=""color:white; font-size:60px;"">+</div>","null","html-keyboard-response","204","439617","0.0-8.0-0.46","fixation","","","","",""
"5446.7949999962","Stimuli/Hangul_M32.bmp","190","image-keyboard-response","205","445065","0.0-8.0-1.46","test",",","",".","",""
"null","<div style=""color:white; font-size:60px;"">+</div>","null","html-keyboard-response","206","446066","0.0-8.0-0.47","fixation","","","","",""
"4954.56500002183","Stimuli/Hangul_M28.bmp","190","image-keyboard-response","207","451021","0.0-8.0-1.47","test",",","",".","",""
"null","<div style=""color:white; font-size:60px;"">+</div>","null","html-keyboard-response","208","452023","0.0-8.0-0.48","fixation","","","","",""
"5711.255000031088","Stimuli/Hangul_F37.bmp","190","image-keyboard-response","209","457735","0.0-8.0-1.48","test",".","",".","",""
"null","<div style=""color:white; font-size:60px;"">+</div>","null","html-keyboard-response","210","458737","0.0-8.0-0.49","fixation","","","","",""
"5445.994999958202","Stimuli/Hangul_F45.bmp","188","image-keyboard-response","211","464184","0.0-8.0-1.49","test",".","",",","",""
"19921.45000002347","<p style=""color:white;"">Half way there! Please take a moment to rest.</p> <p style=""color:white;"">When you are ready to continue with block 3 of 4, press the space bar.</p> ","32","html-keyboard-response","212","484106","0.0-9.0","","","","","",""
"null","<div style=""color:white; font-size:60px;"">+</div>","null","html-keyboard-response","213","487108","0.0-10.0-0.0","fixation","","","","",""
"14593.504999997094","Stimuli/Hangul_M66.bmp","188","image-keyboard-response","214","501703","0.0-10.0-1.0","test",",","",",","",""
"null","<div style=""color:white; font-size:60px;"">+</div>","null","html-keyboard-response","215","502705","0.0-10.0-0.1","fixation","","","","",""
"9330.235000001267","Stimuli/Hangul_M73.bmp","188","image-keyboard-response","216","512036","0.0-10.0-1.1","test",",","",",","",""
"null","<div style=""color:white; font-size:60px;"">+</div>","null","html-keyboard-response","217","513038","0.0-10.0-0.2","fixation","","","","",""
"6982.20000002766","Stimuli/Hangul_F67.bmp","190","image-keyboard-response","218","520021","0.0-10.0-1.2","test",".","",".","",""
"null","<div style=""color:white; font-size:60px;"">+</div>","null","html-keyboard-response","219","521022","0.0-10.0-0.3","fixation","","","","",""
"6975.455000007059","Stimuli/Hangul_M71.bmp","190","image-keyboard-response","220","527999","0.0-10.0-1.3","test",",","",".","",""
"null","<div style=""color:white; font-size:60px;"">+</div>","null","html-keyboard-response","221","529000","0.0-10.0-0.4","fixation","","","","",""
"5745.755000039935","Stimuli/Hangul_F59.bmp","190","image-keyboard-response","222","534747","0.0-10.0-1.4","test",".","",".","",""
"null","<div style=""color:white; font-size:60px;"">+</div>","null","html-keyboard-response","223","535748","0.0-10.0-0.5","fixation","","","","",""
"3949.330000032205","Stimuli/Hangul_F70.bmp","190","image-keyboard-response","224","539699","0.0-10.0-1.5","test",".","",".","",""
"null","<div style=""color:white; font-size:60px;"">+</div>","null","html-keyboard-response","225","540700","0.0-10.0-0.6","fixation","","","","",""
"5296.860000002198","Stimuli/Hangul_F58.bmp","188","image-keyboard-response","226","545999","0.0-10.0-1.6","test",".","",",","",""
"null","<div style=""color:white; font-size:60px;"">+</div>","null","html-keyboard-response","227","547000","0.0-10.0-0.7","fixation","","","","",""
"5220.285000046715","Stimuli/Hangul_M68.bmp","188","image-keyboard-response","228","552222","0.0-10.0-1.7","test",",","",",","",""
"null","<div style=""color:white; font-size:60px;"">+</div>","null","html-keyboard-response","229","553223","0.0-10.0-0.8","fixation","","","","",""
"3502.970000030473","Stimuli/Hangul_M55.bmp","188","image-keyboard-response","230","556727","0.0-10.0-1.8","test",",","",",","",""
"null","<div style=""color:white; font-size:60px;"">+</div>","null","html-keyboard-response","231","557728","0.0-10.0-0.9","fixation","","","","",""
"4168.81000000285","Stimuli/Hangul_F65.bmp","190","image-keyboard-response","232","561898","0.0-10.0-1.9","test",".","",".","",""
"null","<div style=""color:white; font-size:60px;"">+</div>","null","html-keyboard-response","233","562900","0.0-10.0-0.10","fixation","","","","",""
"4686.5600000019185","Stimuli/Hangul_M57.bmp","188","image-keyboard-response","234","567587","0.0-10.0-1.10","test",",","",",","",""
"null","<div style=""color:white; font-size:60px;"">+</div>","null","html-keyboard-response","235","568589","0.0-10.0-0.11","fixation","","","","",""
"2984.9550000508316","Stimuli/Hangul_F55.bmp","190","image-keyboard-response","236","571575","0.0-10.0-1.11","test",".","",".","",""
"null","<div style=""color:white; font-size:60px;"">+</div>","null","html-keyboard-response","237","572577","0.0-10.0-0.12","fixation","","","","",""
"4705.614999984391","Stimuli/Hangul_M54.bmp","188","image-keyboard-response","238","577283","0.0-10.0-1.12","test",",","",",","",""
"null","<div style=""color:white; font-size:60px;"">+</div>","null","html-keyboard-response","239","578285","0.0-10.0-0.13","fixation","","","","",""
"4441.374999994878","Stimuli/Hangul_M58.bmp","188","image-keyboard-response","240","582727","0.0-10.0-1.13","test",",","",",","",""
"null","<div style=""color:white; font-size:60px;"">+</div>","null","html-keyboard-response","241","583729","0.0-10.0-0.14","fixation","","","","",""
"3889.2500000074506","Stimuli/Hangul_F64.bmp","190","image-keyboard-response","242","587620","0.0-10.0-1.14","test",".","",".","",""
"null","<div style=""color:white; font-size:60px;"">+</div>","null","html-keyboard-response","243","588622","0.0-10.0-0.15","fixation","","","","",""
"5409.994999994524","Stimuli/Hangul_M63.bmp","188","image-keyboard-response","244","594033","0.0-10.0-1.15","test",",","",",","",""
"null","<div style=""color:white; font-size:60px;"">+</div>","null","html-keyboard-response","245","595035","0.0-10.0-0.16","fixation","","","","",""
"6083.4349999786355","Stimuli/Hangul_F68.bmp","190","image-keyboard-response","246","601119","0.0-10.0-1.16","test",".","",".","",""
"null","<div style=""color:white; font-size:60px;"">+</div>","null","html-keyboard-response","247","602121","0.0-10.0-0.17","fixation","","","","",""
"7918.739999993704","Stimuli/Hangul_M72.bmp","188","image-keyboard-response","248","610040","0.0-10.0-1.17","test",",","",",","",""
"null","<div style=""color:white; font-size:60px;"">+</div>","null","html-keyboard-response","249","611041","0.0-10.0-0.18","fixation","","","","",""
"6979.770000034478","Stimuli/Hangul_F53.bmp","190","image-keyboard-response","250","618022","0.0-10.0-1.18","test",".","",".","",""
"null","<div style=""color:white; font-size:60px;"">+</div>","null","html-keyboard-response","251","619024","0.0-10.0-0.19","fixation","","","","",""
"7313.085000030696","Stimuli/Hangul_M50.bmp","190","image-keyboard-response","252","626338","0.0-10.0-1.19","test",",","",".","",""
"null","<div style=""color:white; font-size:60px;"">+</div>","null","html-keyboard-response","253","627340","0.0-10.0-0.20","fixation","","","","",""
"8070.235000050161","Stimuli/Hangul_F57.bmp","190","image-keyboard-response","254","635412","0.0-10.0-1.20","test",".","",".","",""
"null","<div style=""color:white; font-size:60px;"">+</div>","null","html-keyboard-response","255","636413","0.0-10.0-0.21","fixation","","","","",""
"7022.639999981038","Stimuli/Hangul_F69.bmp","190","image-keyboard-response","256","643437","0.0-10.0-1.21","test",".","",".","",""
"null","<div style=""color:white; font-size:60px;"">+</div>","null","html-keyboard-response","257","644439","0.0-10.0-0.22","fixation","","","","",""
"4797.235000005458","Stimuli/Hangul_M70.bmp","190","image-keyboard-response","258","649237","0.0-10.0-1.22","test",",","",".","",""
"null","<div style=""color:white; font-size:60px;"">+</div>","null","html-keyboard-response","259","650239","0.0-10.0-0.23","fixation","","","","",""
"4837.884999986272","Stimuli/Hangul_F51.bmp","190","image-keyboard-response","260","655078","0.0-10.0-1.23","test",".","",".","",""
"null","<div style=""color:white; font-size:60px;"">+</div>","null","html-keyboard-response","261","656079","0.0-10.0-0.24","fixation","","","","",""
"4203.414999996312","Stimuli/Hangul_M61.bmp","188","image-keyboard-response","262","660283","0.0-10.0-1.24","test",",","",",","",""
"null","<div style=""color:white; font-size:60px;"">+</div>","null","html-keyboard-response","263","661284","0.0-10.0-0.25","fixation","","","","",""
"2736.154999991413","Stimuli/Hangul_F74.bmp","190","image-keyboard-response","264","664021","0.0-10.0-1.25","test",".","",".","",""
"null","<div style=""color:white; font-size:60px;"">+</div>","null","html-keyboard-response","265","665023","0.0-10.0-0.26","fixation","","","","",""
"3013.5100000188686","Stimuli/Hangul_F56.bmp","190","image-keyboard-response","266","668037","0.0-10.0-1.26","test",".","",".","",""
"null","<div style=""color:white; font-size:60px;"">+</div>","null","html-keyboard-response","267","669040","0.0-10.0-0.27","fixation","","","","",""
"2364.0250000171363","Stimuli/Hangul_F71.bmp","190","image-keyboard-response","268","671405","0.0-10.0-1.27","test",".","",".","",""
"null","<div style=""color:white; font-size:60px;"">+</div>","null","html-keyboard-response","269","672407","0.0-10.0-0.28","fixation","","","","",""
"3232.9500000341795","Stimuli/Hangul_M59.bmp","188","image-keyboard-response","270","675641","0.0-10.0-1.28","test",",","",",","",""
"null","<div style=""color:white; font-size:60px;"">+</div>","null","html-keyboard-response","271","676643","0.0-10.0-0.29","fixation","","","","",""
"3121.419999981299","Stimuli/Hangul_F72.bmp","190","image-keyboard-response","272","679765","0.0-10.0-1.29","test",".","",".","",""
"null","<div style=""color:white; font-size:60px;"">+</div>","null","html-keyboard-response","273","680767","0.0-10.0-0.30","fixation","","","","",""
"3153.679999988526","Stimuli/Hangul_F52.bmp","190","image-keyboard-response","274","683922","0.0-10.0-1.30","test",".","",".","",""
"null","<div style=""color:white; font-size:60px;"">+</div>","null","html-keyboard-response","275","684923","0.0-10.0-0.31","fixation","","","","",""
"4280.3100000019185","Stimuli/Hangul_M67.bmp","188","image-keyboard-response","276","689204","0.0-10.0-1.31","test",",","",",","",""
"null","<div style=""color:white; font-size:60px;"">+</div>","null","html-keyboard-response","277","690205","0.0-10.0-0.32","fixation","","","","",""
"3048.7349999602884","Stimuli/Hangul_M60.bmp","188","image-keyboard-response","278","693255","0.0-10.0-1.32","test",",","",",","",""
"null","<div style=""color:white; font-size:60px;"">+</div>","null","html-keyboard-response","279","694257","0.0-10.0-0.33","fixation","","","","",""
"5697.669999965001","Stimuli/Hangul_F62.bmp","188","image-keyboard-response","280","699956","0.0-10.0-1.33","test",".","",",","",""
"null","<div style=""color:white; font-size:60px;"">+</div>","null","html-keyboard-response","281","700957","0.0-10.0-0.34","fixation","","","","",""
"4796.344999980647","Stimuli/Hangul_F73.bmp","188","image-keyboard-response","282","705755","0.0-10.0-1.34","test",".","",",","",""
"null","<div style=""color:white; font-size:60px;"">+</div>","null","html-keyboard-response","283","706756","0.0-10.0-0.35","fixation","","","","",""
"4797.924999962561","Stimuli/Hangul_M53.bmp","188","image-keyboard-response","284","711555","0.0-10.0-1.35","test",",","",",","",""
"null","<div style=""color:white; font-size:60px;"">+</div>","null","html-keyboard-response","285","712557","0.0-10.0-0.36","fixation","","","","",""
"4995.104999979958","Stimuli/Hangul_M64.bmp","188","image-keyboard-response","286","717553","0.0-10.0-1.36","test",",","",",","",""
"null","<div style=""color:white; font-size:60px;"">+</div>","null","html-keyboard-response","287","718555","0.0-10.0-0.37","fixation","","","","",""
"3708.570000017062","Stimuli/Hangul_F66.bmp","188","image-keyboard-response","288","722265","0.0-10.0-1.37","test",".","",",","",""
"null","<div style=""color:white; font-size:60px;"">+</div>","null","html-keyboard-response","289","723267","0.0-10.0-0.38","fixation","","","","",""
"5489.100000006147","Stimuli/Hangul_M69.bmp","188","image-keyboard-response","290","728757","0.0-10.0-1.38","test",",","",",","",""
"null","<div style=""color:white; font-size:60px;"">+</div>","null","html-keyboard-response","291","729758","0.0-10.0-0.39","fixation","","","","",""
"8093.509999976959","Stimuli/Hangul_F61.bmp","188","image-keyboard-response","292","737852","0.0-10.0-1.39","test",".","",",","",""
"null","<div style=""color:white; font-size:60px;"">+</div>","null","html-keyboard-response","293","738855","0.0-10.0-0.40","fixation","","","","",""
"5871.610000031069","Stimuli/Hangul_M52.bmp","188","image-keyboard-response","294","744727","0.0-10.0-1.40","test",",","",",","",""
"null","<div style=""color:white; font-size:60px;"">+</div>","null","html-keyboard-response","295","745729","0.0-10.0-0.41","fixation","","","","",""
"3990.634999994654","Stimuli/Hangul_F63.bmp","190","image-keyboard-response","296","749721","0.0-10.0-1.41","test",".","",".","",""
"null","<div style=""color:white; font-size:60px;"">+</div>","null","html-keyboard-response","297","750722","0.0-10.0-0.42","fixation","","","","",""
"4510.530000028666","Stimuli/Hangul_F50.bmp","190","image-keyboard-response","298","755234","0.0-10.0-1.42","test",".","",".","",""
"null","<div style=""color:white; font-size:60px;"">+</div>","null","html-keyboard-response","299","756234","0.0-10.0-0.43","fixation","","","","",""
"3979.209999961313","Stimuli/Hangul_M56.bmp","188","image-keyboard-response","300","760215","0.0-10.0-1.43","test",",","",",","",""
"null","<div style=""color:white; font-size:60px;"">+</div>","null","html-keyboard-response","301","761216","0.0-10.0-0.44","fixation","","","","",""
"5612.2449999675155","Stimuli/Hangul_M62.bmp","188","image-keyboard-response","302","766830","0.0-10.0-1.44","test",",","",",","",""
"null","<div style=""color:white; font-size:60px;"">+</div>","null","html-keyboard-response","303","767831","0.0-10.0-0.45","fixation","","","","",""
"5852.805000031367","Stimuli/Hangul_M51.bmp","188","image-keyboard-response","304","773685","0.0-10.0-1.45","test",",","",",","",""
"null","<div style=""color:white; font-size:60px;"">+</div>","null","html-keyboard-response","305","774687","0.0-10.0-0.46","fixation","","","","",""
"6564.675000030547","Stimuli/Hangul_F54.bmp","188","image-keyboard-response","306","781253","0.0-10.0-1.46","test",".","",",","",""
"null","<div style=""color:white; font-size:60px;"">+</div>","null","html-keyboard-response","307","782255","0.0-10.0-0.47","fixation","","","","",""
"6007.829999958631","Stimuli/Hangul_F60.bmp","190","image-keyboard-response","308","788264","0.0-10.0-1.47","test",".","",".","",""
"null","<div style=""color:white; font-size:60px;"">+</div>","null","html-keyboard-response","309","789265","0.0-10.0-0.48","fixation","","","","",""
"7297.060000011697","Stimuli/Hangul_M65.bmp","188","image-keyboard-response","310","796563","0.0-10.0-1.48","test",",","",",","",""
"null","<div style=""color:white; font-size:60px;"">+</div>","null","html-keyboard-response","311","797565","0.0-10.0-0.49","fixation","","","","",""
"7992.614999995567","Stimuli/Hangul_M74.bmp","188","image-keyboard-response","312","805559","0.0-10.0-1.49","test",",","",",","",""
"1192.9499999969266","<p style=""color:white;"">One more block to go! Please take a moment to rest.</p> <p style=""color:white;"">When you are ready to continue with block 4 of 4, press the space bar.</p> ","32","html-keyboard-response","313","806754","0.0-11.0","","","","","",""
"null","<div style=""color:white; font-size:60px;"">+</div>","null","html-keyboard-response","314","809757","0.0-12.0-0.0","fixation","","","","",""
"5774.349999963306","Stimuli/Hangul_F80.bmp","190","image-keyboard-response","315","815532","0.0-12.0-1.0","test",".","",".","",""
"null","<div style=""color:white; font-size:60px;"">+</div>","null","html-keyboard-response","316","816533","0.0-12.0-0.1","fixation","","","","",""
"9483.249999990221","Stimuli/Hangul_M87.bmp","190","image-keyboard-response","317","826017","0.0-12.0-1.1","test",",","",".","",""
"null","<div style=""color:white; font-size:60px;"">+</div>","null","html-keyboard-response","318","827019","0.0-12.0-0.2","fixation","","","","",""
"5765.560000028927","Stimuli/Hangul_M99.bmp","188","image-keyboard-response","319","832785","0.0-12.0-1.2","test",",","",",","",""
"null","<div style=""color:white; font-size:60px;"">+</div>","null","html-keyboard-response","320","833787","0.0-12.0-0.3","fixation","","","","",""
"13911.215000029188","Stimuli/Hangul_F87.bmp","190","image-keyboard-response","321","847699","0.0-12.0-1.3","test",".","",".","",""
"null","<div style=""color:white; font-size:60px;"">+</div>","null","html-keyboard-response","322","848701","0.0-12.0-0.4","fixation","","","","",""
"3054.3199999956414","Stimuli/Hangul_F95.bmp","190","image-keyboard-response","323","851756","0.0-12.0-1.4","test",".","",".","",""
"null","<div style=""color:white; font-size:60px;"">+</div>","null","html-keyboard-response","324","852758","0.0-12.0-0.5","fixation","","","","",""
"4428.7050000275485","Stimuli/Hangul_F96.bmp","190","image-keyboard-response","325","857188","0.0-12.0-1.5","test",".","",".","",""
"null","<div style=""color:white; font-size:60px;"">+</div>","null","html-keyboard-response","326","858189","0.0-12.0-0.6","fixation","","","","",""
"3577.645000012126","Stimuli/Hangul_M97.bmp","188","image-keyboard-response","327","861767","0.0-12.0-1.6","test",",","",",","",""
"null","<div style=""color:white; font-size:60px;"">+</div>","null","html-keyboard-response","328","862769","0.0-12.0-0.7","fixation","","","","",""
"4571.550000051502","Stimuli/Hangul_M94.bmp","188","image-keyboard-response","329","867341","0.0-12.0-1.7","test",",","",",","",""
"null","<div style=""color:white; font-size:60px;"">+</div>","null","html-keyboard-response","330","868343","0.0-12.0-0.8","fixation","","","","",""
"3422.1249999827705","Stimuli/Hangul_F89.bmp","190","image-keyboard-response","331","871766","0.0-12.0-1.8","test",".","",".","",""
"null","<div style=""color:white; font-size:60px;"">+</div>","null","html-keyboard-response","332","872768","0.0-12.0-0.9","fixation","","","","",""
"5568.490000034217","Stimuli/Hangul_M92.bmp","190","image-keyboard-response","333","878339","0.0-12.0-1.9","test",",","",".","",""
"null","<div style=""color:white; font-size:60px;"">+</div>","null","html-keyboard-response","334","879341","0.0-12.0-0.10","fixation","","","","",""
"5822.324999957345","Stimuli/Hangul_F84.bmp","190","image-keyboard-response","335","885164","0.0-12.0-1.10","test",".","",".","",""
"null","<div style=""color:white; font-size:60px;"">+</div>","null","html-keyboard-response","336","886166","0.0-12.0-0.11","fixation","","","","",""
"5159.96499999892","Stimuli/Hangul_F83.bmp","190","image-keyboard-response","337","891328","0.0-12.0-1.11","test",".","",".","",""
"null","<div style=""color:white; font-size:60px;"">+</div>","null","html-keyboard-response","338","892330","0.0-12.0-0.12","fixation","","","","",""
"5443.474999978207","Stimuli/Hangul_M76.bmp","188","image-keyboard-response","339","897774","0.0-12.0-1.12","test",",","",",","",""
"null","<div style=""color:white; font-size:60px;"">+</div>","null","html-keyboard-response","340","898776","0.0-12.0-0.13","fixation","","","","",""
"5643.355000007432","Stimuli/Hangul_F79.bmp","190","image-keyboard-response","341","904420","0.0-12.0-1.13","test",".","",".","",""
"null","<div style=""color:white; font-size:60px;"">+</div>","null","html-keyboard-response","342","905421","0.0-12.0-0.14","fixation","","","","",""
"5768.674999999348","Stimuli/Hangul_M95.bmp","188","image-keyboard-response","343","911191","0.0-12.0-1.14","test",",","",",","",""
"null","<div style=""color:white; font-size:60px;"">+</div>","null","html-keyboard-response","344","912192","0.0-12.0-0.15","fixation","","","","",""
"6863.985000003595","Stimuli/Hangul_F94.bmp","190","image-keyboard-response","345","919057","0.0-12.0-1.15","test",".","",".","",""
"null","<div style=""color:white; font-size:60px;"">+</div>","null","html-keyboard-response","346","920058","0.0-12.0-0.16","fixation","","","","",""
"8676.704999990761","Stimuli/Hangul_F97.bmp","190","image-keyboard-response","347","928736","0.0-12.0-1.16","test",".","",".","",""
"null","<div style=""color:white; font-size:60px;"">+</div>","null","html-keyboard-response","348","929738","0.0-12.0-0.17","fixation","","","","",""
"7354.969999985769","Stimuli/Hangul_M88.bmp","188","image-keyboard-response","349","937094","0.0-12.0-1.17","test",",","",",","",""
"null","<div style=""color:white; font-size:60px;"">+</div>","null","html-keyboard-response","350","938095","0.0-12.0-0.18","fixation","","","","",""
"6302.804999984801","Stimuli/Hangul_M78.bmp","188","image-keyboard-response","351","944399","0.0-12.0-1.18","test",",","",",","",""
"null","<div style=""color:white; font-size:60px;"">+</div>","null","html-keyboard-response","352","945400","0.0-12.0-0.19","fixation","","","","",""
"4849.320000037551","Stimuli/Hangul_F93.bmp","190","image-keyboard-response","353","950251","0.0-12.0-1.19","test",".","",".","",""
"null","<div style=""color:white; font-size:60px;"">+</div>","null","html-keyboard-response","354","951253","0.0-12.0-0.20","fixation","","","","",""
"6441.129999991972","Stimuli/Hangul_F85.bmp","190","image-keyboard-response","355","957695","0.0-12.0-1.20","test",".","",".","",""
"null","<div style=""color:white; font-size:60px;"">+</div>","null","html-keyboard-response","356","958696","0.0-12.0-0.21","fixation","","","","",""
"6947.325000015553","Stimuli/Hangul_M85.bmp","188","image-keyboard-response","357","965644","0.0-12.0-1.21","test",",","",",","",""
"null","<div style=""color:white; font-size:60px;"">+</div>","null","html-keyboard-response","358","966646","0.0-12.0-0.22","fixation","","","","",""
"8315.000000002328","Stimuli/Hangul_M83.bmp","188","image-keyboard-response","359","974962","0.0-12.0-1.22","test",",","",",","",""
"null","<div style=""color:white; font-size:60px;"">+</div>","null","html-keyboard-response","360","975963","0.0-12.0-0.23","fixation","","","","",""
"13741.749999986496","Stimuli/Hangul_F98.bmp","188","image-keyboard-response","361","989706","0.0-12.0-1.23","test",".","",",","",""
"null","<div style=""color:white; font-size:60px;"">+</div>","null","html-keyboard-response","362","990708","0.0-12.0-0.24","fixation","","","","",""
"9022.325000027195","Stimuli/Hangul_F75.bmp","190","image-keyboard-response","363","999731","0.0-12.0-1.24","test",".","",".","",""
"null","<div style=""color:white; font-size:60px;"">+</div>","null","html-keyboard-response","364","1000733","0.0-12.0-0.25","fixation","","","","",""
"8555.349999980535","Stimuli/Hangul_M82.bmp","188","image-keyboard-response","365","1009289","0.0-12.0-1.25","test",",","",",","",""
"null","<div style=""color:white; font-size:60px;"">+</div>","null","html-keyboard-response","366","1010290","0.0-12.0-0.26","fixation","","","","",""
"9851.185000035912","Stimuli/Hangul_M81.bmp","188","image-keyboard-response","367","1020142","0.0-12.0-1.26","test",",","",",","",""
"null","<div style=""color:white; font-size:60px;"">+</div>","null","html-keyboard-response","368","1021145","0.0-12.0-0.27","fixation","","","","",""
"7775.5250000045635","Stimuli/Hangul_M96.bmp","188","image-keyboard-response","369","1028921","0.0-12.0-1.27","test",",","",",","",""
"null","<div style=""color:white; font-size:60px;"">+</div>","null","html-keyboard-response","370","1029924","0.0-12.0-0.28","fixation","","","","",""
"6681.990000011865","Stimuli/Hangul_M79.bmp","188","image-keyboard-response","371","1036607","0.0-12.0-1.28","test",",","",",","",""
"null","<div style=""color:white; font-size:60px;"">+</div>","null","html-keyboard-response","372","1037608","0.0-12.0-0.29","fixation","","","","",""
"8771.024999965448","Stimuli/Hangul_M98.bmp","188","image-keyboard-response","373","1046381","0.0-12.0-1.29","test",",","",",","",""
"null","<div style=""color:white; font-size:60px;"">+</div>","null","html-keyboard-response","374","1047381","0.0-12.0-0.30","fixation","","","","",""
"7965.634999971371","Stimuli/Hangul_F90.bmp","188","image-keyboard-response","375","1055348","0.0-12.0-1.30","test",".","",",","",""
"null","<div style=""color:white; font-size:60px;"">+</div>","null","html-keyboard-response","376","1056350","0.0-12.0-0.31","fixation","","","","",""
"9939.480000000913","Stimuli/Hangul_F91.bmp","190","image-keyboard-response","377","1066290","0.0-12.0-1.31","test",".","",".","",""
"null","<div style=""color:white; font-size:60px;"">+</div>","null","html-keyboard-response","378","1067292","0.0-12.0-0.32","fixation","","","","",""
"7213.560000003781","Stimuli/Hangul_M84.bmp","190","image-keyboard-response","379","1074506","0.0-12.0-1.32","test",",","",".","",""
"null","<div style=""color:white; font-size:60px;"">+</div>","null","html-keyboard-response","380","1075507","0.0-12.0-0.33","fixation","","","","",""
"9862.86499997368","Stimuli/Hangul_M91.bmp","188","image-keyboard-response","381","1085372","0.0-12.0-1.33","test",",","",",","",""
"null","<div style=""color:white; font-size:60px;"">+</div>","null","html-keyboard-response","382","1086373","0.0-12.0-0.34","fixation","","","","",""
"10073.174999968614","Stimuli/Hangul_M86.bmp","188","image-keyboard-response","383","1096448","0.0-12.0-1.34","test",",","",",","",""
"null","<div style=""color:white; font-size:60px;"">+</div>","null","html-keyboard-response","384","1097449","0.0-12.0-0.35","fixation","","","","",""
"6486.254999996163","Stimuli/Hangul_M90.bmp","188","image-keyboard-response","385","1103938","0.0-12.0-1.35","test",",","",",","",""
"null","<div style=""color:white; font-size:60px;"">+</div>","null","html-keyboard-response","386","1104939","0.0-12.0-0.36","fixation","","","","",""
"6655.440000002272","Stimuli/Hangul_F88.bmp","190","image-keyboard-response","387","1111596","0.0-12.0-1.36","test",".","",".","",""
"null","<div style=""color:white; font-size:60px;"">+</div>","null","html-keyboard-response","388","1112598","0.0-12.0-0.37","fixation","","","","",""
"6456.56500000041","Stimuli/Hangul_F77.bmp","190","image-keyboard-response","389","1119056","0.0-12.0-1.37","test",".","",".","",""
"null","<div style=""color:white; font-size:60px;"">+</div>","null","html-keyboard-response","390","1120058","0.0-12.0-0.38","fixation","","","","",""
"9861.114999977872","Stimuli/Hangul_M75.bmp","188","image-keyboard-response","391","1129920","0.0-12.0-1.38","test",",","",",","",""
"null","<div style=""color:white; font-size:60px;"">+</div>","null","html-keyboard-response","392","1130921","0.0-12.0-0.39","fixation","","","","",""
"7516.729999973904","Stimuli/Hangul_M93.bmp","188","image-keyboard-response","393","1138439","0.0-12.0-1.39","test",",","",",","",""
"null","<div style=""color:white; font-size:60px;"">+</div>","null","html-keyboard-response","394","1139440","0.0-12.0-0.40","fixation","","","","",""
"8428.080000041518","Stimuli/Hangul_M89.bmp","188","image-keyboard-response","395","1147870","0.0-12.0-1.40","test",",","",",","",""
"null","<div style=""color:white; font-size:60px;"">+</div>","null","html-keyboard-response","396","1148870","0.0-12.0-0.41","fixation","","","","",""
"8608.645000029355","Stimuli/Hangul_F99.bmp","188","image-keyboard-response","397","1157479","0.0-12.0-1.41","test",".","",",","",""
"null","<div style=""color:white; font-size:60px;"">+</div>","null","html-keyboard-response","398","1158480","0.0-12.0-0.42","fixation","","","","",""
"10740.909999993164","Stimuli/Hangul_F92.bmp","190","image-keyboard-response","399","1169222","0.0-12.0-1.42","test",".","",".","",""
"null","<div style=""color:white; font-size:60px;"">+</div>","null","html-keyboard-response","400","1170224","0.0-12.0-0.43","fixation","","","","",""
"10540.199999988545","Stimuli/Hangul_F82.bmp","190","image-keyboard-response","401","1180765","0.0-12.0-1.43","test",".","",".","",""
"null","<div style=""color:white; font-size:60px;"">+</div>","null","html-keyboard-response","402","1181767","0.0-12.0-0.44","fixation","","","","",""
"8442.585000011604","Stimuli/Hangul_M80.bmp","188","image-keyboard-response","403","1190210","0.0-12.0-1.44","test",",","",",","",""
"null","<div style=""color:white; font-size:60px;"">+</div>","null","html-keyboard-response","404","1191212","0.0-12.0-0.45","fixation","","","","",""
"7897.510000038892","Stimuli/Hangul_F78.bmp","190","image-keyboard-response","405","1199110","0.0-12.0-1.45","test",".","",".","",""
"null","<div style=""color:white; font-size:60px;"">+</div>","null","html-keyboard-response","406","1200111","0.0-12.0-0.46","fixation","","","","",""
"10899.18500004569","Stimuli/Hangul_F86.bmp","190","image-keyboard-response","407","1211014","0.0-12.0-1.46","test",".","",".","",""
"null","<div style=""color:white; font-size:60px;"">+</div>","null","html-keyboard-response","408","1212015","0.0-12.0-0.47","fixation","","","","",""
"8064.624999999069","Stimuli/Hangul_M77.bmp","188","image-keyboard-response","409","1220081","0.0-12.0-1.47","test",",","",",","",""
"null","<div style=""color:white; font-size:60px;"">+</div>","null","html-keyboard-response","410","1221083","0.0-12.0-0.48","fixation","","","","",""
"6748.039999976754","Stimuli/Hangul_F81.bmp","190","image-keyboard-response","411","1227832","0.0-12.0-1.48","test",".","",".","",""
"null","<div style=""color:white; font-size:60px;"">+</div>","null","html-keyboard-response","412","1228833","0.0-12.0-0.49","fixation","","","","",""
"10039.474999997765","Stimuli/Hangul_F76.bmp","188","image-keyboard-response","413","1238874","0.0-12.0-1.49","test",".","",",","",""
"1361.0699999844655","<p style=""color:white;"">Phase I of the experiment is complete.</p> <p style=""color:white;"">Press the space bar to proceed to Phase II of the experiment.</p> ","32","html-keyboard-response","414","1240236","0.0-13.0","","","","","",""
"13428.284999972675","<p style=""color:white;"">Now we are interested in how well you can predict patterns in the series of figures. You will be asked to predict whether the next figure in the series is more male-like or female-like. When you see the <q>Next Figure</q> prompt, press the corresponding response keys to indicate your prediction: </p><p style=""color:white;""> Male &#8594 <q>,</q> (comma)</p><p style=""color:white;""> Female &#8594 <q>.</q> (period)</p><p style=""color:white;"">The actual figure will then appear on the screen. After you see the figure, please guess the assigned gender with response keys. </p><p style=""color:white;"">As before, you will receive 2 cents for correctly classifying each figure.</p><p style=""color:white;"">Press either response keys to continue.</p>","188","html-keyboard-response","415","1255667","0.0-14.0","","","","","",""
"8146.714999980759","<p style=""color:white;"">PREDICTION BONUS</p> <p style=""color:white;"">Your prediction accuracy is the total number of correct predictions you make over the 200 trials.</p> <p style=""color:white;"">In addition to the 2 cents per correct figure classification, you have the chance to receive a bonus of 40 dollars IF your accuracy is above average relative to previous participants.</p><p style=""color:white;"">If your accuracy is below average relative to previous participants, then you will not receive the 40 dollar bonus.</p><p style=""color:white;"">Press the space bar to continue.</p>","32","html-keyboard-response","416","1263814","0.0-15.0","","","","","",""
"2749.3300000205636","<p style=""color:white;"">Here are some examples.</p> <p style=""color:white;"">For each, predict whether the next figure looks more male-like or female-like. Then, when the figure appears, guess whether it looks more male-like or female-like and indicate your choice.</p> <p style=""color:white;"">Press the space bar to continue.</p>","32","html-keyboard-response","417","1266564","0.0-16.0","","","","","",""
"1341.9700000085868","<p style=""color:white;""> Next Figure: Male or Female? </p>","188","html-keyboard-response","418","1269908","0.0-17.0-0.0","prediction_train","","","",",",""
"null","<div style=""color:white; font-size:60px;"">+</div>","null","html-keyboard-response","419","1270909","0.0-17.0-1.0","fixation","","","","",""
"7489.635000005364","Stimuli/Hangul_E2.bmp","190","image-keyboard-response","420","1278399","0.0-17.0-2.0","c2_train",".","","","","."
"1901.5099999960512","<p style=""color:white;""> Next Figure: Male or Female? </p>","188","html-keyboard-response","421","1280302","0.0-17.0-0.1","prediction_train","","","",",",""
"null","<div style=""color:white; font-size:60px;"">+</div>","null","html-keyboard-response","422","1281304","0.0-17.0-1.1","fixation","","","","",""
"3346.7299999902025","Stimuli/Hangul_E0.bmp","188","image-keyboard-response","423","1284651","0.0-17.0-2.1","c2_train",",","","","",","
"3858.37500001071","<p style=""color:white;""> Next Figure: Male or Female? </p>","188","html-keyboard-response","424","1288510","0.0-17.0-0.2","prediction_train","","","",",",""
"null","<div style=""color:white; font-size:60px;"">+</div>","null","html-keyboard-response","425","1289512","0.0-17.0-1.2","fixation","","","","",""
"608.1750000012107","Stimuli/Hangul_E1.bmp","188","image-keyboard-response","426","1290121","0.0-17.0-2.2","c2_train",",","","","",","
"1733.124999969732","<p style=""color:white;"">Let us begin! Press the space bar when you are ready to start block 1 of 4.</p> ","32","html-keyboard-response","427","1291855","0.0-18.0","","","","","",""
"604.2950000264682","<p style=""color:white;""> Next Figure: Male or Female? </p>","188","html-keyboard-response","428","1294461","0.0-19.0-0.0","prediction","","","",",",""
"null","<div style=""color:white; font-size:60px;"">+</div>","null","html-keyboard-response","429","1295463","0.0-19.0-1.0","fixation","","","","",""
"2627.154999994673","Stimuli/Hangul_F14.bmp","190","image-keyboard-response","430","1298091","0.0-19.0-2.0","c2_test",".","","","","."
"1152.1950000314973","<p style=""color:white;""> Next Figure: Male or Female? </p>","188","html-keyboard-response","431","1299244","0.0-19.0-0.1","prediction","","","",",",""
"null","<div style=""color:white; font-size:60px;"">+</div>","null","html-keyboard-response","432","1300245","0.0-19.0-1.1","fixation","","","","",""
"1847.3349999985658","Stimuli/Hangul_F4.bmp","188","image-keyboard-response","433","1302093","0.0-19.0-2.1","c2_test",".","","","",","
"926.9149999599904","<p style=""color:white;""> Next Figure: Male or Female? </p>","188","html-keyboard-response","434","1303020","0.0-19.0-0.2","prediction","","","",",",""
"null","<div style=""color:white; font-size:60px;"">+</div>","null","html-keyboard-response","435","1304022","0.0-19.0-1.2","fixation","","","","",""
"1365.1299999910407","Stimuli/Hangul_F24.bmp","188","image-keyboard-response","436","1305388","0.0-19.0-2.2","c2_test",".","","","",","
"710.1799999945797","<p style=""color:white;""> Next Figure: Male or Female? </p>","188","html-keyboard-response","437","1306099","0.0-19.0-0.3","prediction","","","",",",""
"null","<div style=""color:white; font-size:60px;"">+</div>","null","html-keyboard-response","438","1307101","0.0-19.0-1.3","fixation","","","","",""
"1045.7649999880232","Stimuli/Hangul_M10.bmp","188","image-keyboard-response","439","1308148","0.0-19.0-2.3","c2_test",",","","","",","
"828.3299999893643","<p style=""color:white;""> Next Figure: Male or Female? </p>","190","html-keyboard-response","440","1308977","0.0-19.0-0.4","prediction","","","",".",""
"null","<div style=""color:white; font-size:60px;"">+</div>","null","html-keyboard-response","441","1309978","0.0-19.0-1.4","fixation","","","","",""
"827.8400000417605","Stimuli/Hangul_F5.bmp","188","image-keyboard-response","442","1310807","0.0-19.0-2.4","c2_test",".","","","",","
"639.9700000183657","<p style=""color:white;""> Next Figure: Male or Female? </p>","188","html-keyboard-response","443","1311448","0.0-19.0-0.5","prediction","","","",",",""
"null","<div style=""color:white; font-size:60px;"">+</div>","null","html-keyboard-response","444","1312450","0.0-19.0-1.5","fixation","","","","",""
"775.8899999898858","Stimuli/Hangul_F10.bmp","190","image-keyboard-response","445","1313227","0.0-19.0-2.5","c2_test",".","","","","."
"710.8900000457652","<p style=""color:white;""> Next Figure: Male or Female? </p>","190","html-keyboard-response","446","1313938","0.0-19.0-0.6","prediction","","","",".",""
"null","<div style=""color:white; font-size:60px;"">+</div>","null","html-keyboard-response","447","1314939","0.0-19.0-1.6","fixation","","","","",""
"651.3799999956973","Stimuli/Hangul_M8.bmp","188","image-keyboard-response","448","1315591","0.0-19.0-2.6","c2_test",",","","","",","
"593.8399999868125","<p style=""color:white;""> Next Figure: Male or Female? </p>","188","html-keyboard-response","449","1316186","0.0-19.0-0.7","prediction","","","",",",""
"null","<div style=""color:white; font-size:60px;"">+</div>","null","html-keyboard-response","450","1317188","0.0-19.0-1.7","fixation","","","","",""
"597.8049999685027","Stimuli/Hangul_F23.bmp","188","image-keyboard-response","451","1317787","0.0-19.0-2.7","c2_test",".","","","",","
"885.8849999960512","<p style=""color:white;""> Next Figure: Male or Female? </p>","188","html-keyboard-response","452","1318673","0.0-19.0-0.8","prediction","","","",",",""
"null","<div style=""color:white; font-size:60px;"">+</div>","null","html-keyboard-response","453","1319675","0.0-19.0-1.8","fixation","","","","",""
"640.6849999912083","Stimuli/Hangul_M7.bmp","188","image-keyboard-response","454","1320317","0.0-19.0-2.8","c2_test",",","","","",","
"710.579999955371","<p style=""color:white;""> Next Figure: Male or Female? </p>","188","html-keyboard-response","455","1321028","0.0-19.0-0.9","prediction","","","",",",""
"null","<div style=""color:white; font-size:60px;"">+</div>","null","html-keyboard-response","456","1322033","0.0-19.0-1.9","fixation","","","","",""
"730.4850000073202","Stimuli/Hangul_M12.bmp","188","image-keyboard-response","457","1322764","0.0-19.0-2.9","c2_test",",","","","",","
"816.2799999699928","<p style=""color:white;""> Next Figure: Male or Female? </p>","190","html-keyboard-response","458","1323581","0.0-19.0-0.10","prediction","","","",".",""
"null","<div style=""color:white; font-size:60px;"">+</div>","null","html-keyboard-response","459","1324585","0.0-19.0-1.10","fixation","","","","",""
"574.8800000292249","Stimuli/Hangul_F21.bmp","190","image-keyboard-response","460","1325161","0.0-19.0-2.10","c2_test",".","","","","."
"852.4350000079721","<p style=""color:white;""> Next Figure: Male or Female? </p>","188","html-keyboard-response","461","1326014","0.0-19.0-0.11","prediction","","","",",",""
"null","<div style=""color:white; font-size:60px;"">+</div>","null","html-keyboard-response","462","1327016","0.0-19.0-1.11","fixation","","","","",""
"575.829999987036","Stimuli/Hangul_M1.bmp","188","image-keyboard-response","463","1327593","0.0-19.0-2.11","c2_test",",","","","",","
"625.3499999875203","<p style=""color:white;""> Next Figure: Male or Female? </p>","188","html-keyboard-response","464","1328219","0.0-19.0-0.12","prediction","","","",",",""
"null","<div style=""color:white; font-size:60px;"">+</div>","null","html-keyboard-response","465","1329241","0.0-19.0-1.12","fixation","","","","",""
"2158.4249999723397","Stimuli/Hangul_F20.bmp","190","image-keyboard-response","466","1331400","0.0-19.0-2.12","c2_test",".","","","","."
"688.1200000061654","<p style=""color:white;""> Next Figure: Male or Female? </p>","188","html-keyboard-response","467","1332089","0.0-19.0-0.13","prediction","","","",",",""
"null","<div style=""color:white; font-size:60px;"">+</div>","null","html-keyboard-response","468","1333091","0.0-19.0-1.13","fixation","","","","",""
"638.3849999983795","Stimuli/Hangul_M20.bmp","188","image-keyboard-response","469","1333730","0.0-19.0-2.13","c2_test",",","","","",","
"620.5099999788217","<p style=""color:white;""> Next Figure: Male or Female? </p>","190","html-keyboard-response","470","1334353","0.0-19.0-0.14","prediction","","","",".",""
"null","<div style=""color:white; font-size:60px;"">+</div>","null","html-keyboard-response","471","1335354","0.0-19.0-1.14","fixation","","","","",""
"778.9900000207126","Stimuli/Hangul_M0.bmp","188","image-keyboard-response","472","1336134","0.0-19.0-2.14","c2_test",",","","","",","
"650.46999999322","<p style=""color:white;""> Next Figure: Male or Female? </p>","188","html-keyboard-response","473","1336785","0.0-19.0-0.15","prediction","","","",",",""
"null","<div style=""color:white; font-size:60px;"">+</div>","null","html-keyboard-response","474","1337786","0.0-19.0-1.15","fixation","","","","",""
"2325.9299999917857","Stimuli/Hangul_F3.bmp","190","image-keyboard-response","475","1340113","0.0-19.0-2.15","c2_test",".","","","","."
"790.5500000342727","<p style=""color:white;""> Next Figure: Male or Female? </p>","188","html-keyboard-response","476","1340904","0.0-19.0-0.16","prediction","","","",",",""
"null","<div style=""color:white; font-size:60px;"">+</div>","null","html-keyboard-response","477","1341905","0.0-19.0-1.16","fixation","","","","",""
"763.6899999924935","Stimuli/Hangul_F22.bmp","188","image-keyboard-response","478","1342670","0.0-19.0-2.16","c2_test",".","","","",","
"586.2949999864213","<p style=""color:white;""> Next Figure: Male or Female? </p>","188","html-keyboard-response","479","1343257","0.0-19.0-0.17","prediction","","","",",",""
"null","<div style=""color:white; font-size:60px;"">+</div>","null","html-keyboard-response","480","1344258","0.0-19.0-1.17","fixation","","","","",""
"674.8599999700673","Stimuli/Hangul_M4.bmp","188","image-keyboard-response","481","1344933","0.0-19.0-2.17","c2_test",",","","","",","
"820.4750000149943","<p style=""color:white;""> Next Figure: Male or Female? </p>","188","html-keyboard-response","482","1345754","0.0-19.0-0.18","prediction","","","",",",""
"null","<div style=""color:white; font-size:60px;"">+</div>","null","html-keyboard-response","483","1346762","0.0-19.0-1.18","fixation","","","","",""
"1635.245000012219","Stimuli/Hangul_F9.bmp","188","image-keyboard-response","484","1348398","0.0-19.0-2.18","c2_test",".","","","",","
"661.7800000240095","<p style=""color:white;""> Next Figure: Male or Female? </p>","190","html-keyboard-response","485","1349061","0.0-19.0-0.19","prediction","","","",".",""
"null","<div style=""color:white; font-size:60px;"">+</div>","null","html-keyboard-response","486","1350063","0.0-19.0-1.19","fixation","","","","",""
"1588.6349999927916","Stimuli/Hangul_F0.bmp","190","image-keyboard-response","487","1351653","0.0-19.0-2.19","c2_test",".","","","","."
"581.9449999835342","<p style=""color:white;""> Next Figure: Male or Female? </p>","190","html-keyboard-response","488","1352237","0.0-19.0-0.20","prediction","","","",".",""
"null","<div style=""color:white; font-size:60px;"">+</div>","null","html-keyboard-response","489","1353253","0.0-19.0-1.20","fixation","","","","",""
"643.5749999945983","Stimuli/Hangul_M22.bmp","188","image-keyboard-response","490","1353897","0.0-19.0-2.20","c2_test",",","","","",","
"612.2750000213273","<p style=""color:white;""> Next Figure: Male or Female? </p>","188","html-keyboard-response","491","1354510","0.0-19.0-0.21","prediction","","","",",",""
"null","<div style=""color:white; font-size:60px;"">+</div>","null","html-keyboard-response","492","1355511","0.0-19.0-1.21","fixation","","","","",""
"562.7249999670312","Stimuli/Hangul_F11.bmp","188","image-keyboard-response","493","1356075","0.0-19.0-2.21","c2_test",".","","","",","
"663.6199999484234","<p style=""color:white;""> Next Figure: Male or Female? </p>","188","html-keyboard-response","494","1356739","0.0-19.0-0.22","prediction","","","",",",""
"null","<div style=""color:white; font-size:60px;"">+</div>","null","html-keyboard-response","495","1357741","0.0-19.0-1.22","fixation","","","","",""
"738.1900000036694","Stimuli/Hangul_F19.bmp","188","image-keyboard-response","496","1358480","0.0-19.0-2.22","c2_test",".","","","",","
"578.3599999849685","<p style=""color:white;""> Next Figure: Male or Female? </p>","190","html-keyboard-response","497","1359059","0.0-19.0-0.23","prediction","","","",".",""
"null","<div style=""color:white; font-size:60px;"">+</div>","null","html-keyboard-response","498","1360060","0.0-19.0-1.23","fixation","","","","",""
"1722.0450000022538","Stimuli/Hangul_F2.bmp","190","image-keyboard-response","499","1361783","0.0-19.0-2.23","c2_test",".","","","","."
"895.1550000347197","<p style=""color:white;""> Next Figure: Male or Female? </p>","190","html-keyboard-response","500","1362679","0.0-19.0-0.24","prediction","","","",".",""
"null","<div style=""color:white; font-size:60px;"">+</div>","null","html-keyboard-response","501","1363681","0.0-19.0-1.24","fixation","","","","",""
"1733.47500001546","Stimuli/Hangul_M14.bmp","188","image-keyboard-response","502","1365415","0.0-19.0-2.24","c2_test",",","","","",","
"711.3900000113063","<p style=""color:white;""> Next Figure: Male or Female? </p>","188","html-keyboard-response","503","1366127","0.0-19.0-0.25","prediction","","","",",",""
"null","<div style=""color:white; font-size:60px;"">+</div>","null","html-keyboard-response","504","1367128","0.0-19.0-1.25","fixation","","","","",""
"1228.6200000089593","Stimuli/Hangul_M15.bmp","188","image-keyboard-response","505","1368358","0.0-19.0-2.25","c2_test",",","","","",","
"473.085000005085","<p style=""color:white;""> Next Figure: Male or Female? </p>","188","html-keyboard-response","506","1368832","0.0-19.0-0.26","prediction","","","",",",""
"null","<div style=""color:white; font-size:60px;"">+</div>","null","html-keyboard-response","507","1369833","0.0-19.0-1.26","fixation","","","","",""
"937.7049999893643","Stimuli/Hangul_F1.bmp","190","image-keyboard-response","508","1370771","0.0-19.0-2.26","c2_test",".","","","","."
"560.944999975618","<p style=""color:white;""> Next Figure: Male or Female? </p>","188","html-keyboard-response","509","1371333","0.0-19.0-0.27","prediction","","","",",",""
"null","<div style=""color:white; font-size:60px;"">+</div>","null","html-keyboard-response","510","1372335","0.0-19.0-1.27","fixation","","","","",""
"1165.5500000342727","Stimuli/Hangul_M5.bmp","190","image-keyboard-response","511","1373501","0.0-19.0-2.27","c2_test",",","","","","."
"476.8550000153482","<p style=""color:white;""> Next Figure: Male or Female? </p>","190","html-keyboard-response","512","1373979","0.0-19.0-0.28","prediction","","","",".",""
"null","<div style=""color:white; font-size:60px;"">+</div>","null","html-keyboard-response","513","1374980","0.0-19.0-1.28","fixation","","","","",""
"1103.0199999804609","Stimuli/Hangul_M2.bmp","190","image-keyboard-response","514","1376084","0.0-19.0-2.28","c2_test",",","","","","."
"718.3649999788031","<p style=""color:white;""> Next Figure: Male or Female? </p>","190","html-keyboard-response","515","1376803","0.0-19.0-0.29","prediction","","","",".",""
"null","<div style=""color:white; font-size:60px;"">+</div>","null","html-keyboard-response","516","1377805","0.0-19.0-1.29","fixation","","","","",""
"1317.525000020396","Stimuli/Hangul_M17.bmp","188","image-keyboard-response","517","1379123","0.0-19.0-2.29","c2_test",",","","","",","
"535.3049999685027","<p style=""color:white;""> Next Figure: Male or Female? </p>","188","html-keyboard-response","518","1379659","0.0-19.0-0.30","prediction","","","",",",""
"null","<div style=""color:white; font-size:60px;"">+</div>","null","html-keyboard-response","519","1380662","0.0-19.0-1.30","fixation","","","","",""
"679.8999999882653","Stimuli/Hangul_F13.bmp","188","image-keyboard-response","520","1381343","0.0-19.0-2.30","c2_test",".","","","",","
"520.250000001397","<p style=""color:white;""> Next Figure: Male or Female? </p>","188","html-keyboard-response","521","1381864","0.0-19.0-0.31","prediction","","","",",",""
"null","<div style=""color:white; font-size:60px;"">+</div>","null","html-keyboard-response","522","1382866","0.0-19.0-1.31","fixation","","","","",""
"964.6549999597482","Stimuli/Hangul_F6.bmp","190","image-keyboard-response","523","1383831","0.0-19.0-2.31","c2_test",".","","","","."
"427.0449999603443","<p style=""color:white;""> Next Figure: Male or Female? </p>","188","html-keyboard-response","524","1384259","0.0-19.0-0.32","prediction","","","",",",""
"null","<div style=""color:white; font-size:60px;"">+</div>","null","html-keyboard-response","525","1385260","0.0-19.0-1.32","fixation","","","","",""
"683.7550000054762","Stimuli/Hangul_M6.bmp","188","image-keyboard-response","526","1385945","0.0-19.0-2.32","c2_test",",","","","",","
"617.1549999853596","<p style=""color:white;""> Next Figure: Male or Female? </p>","188","html-keyboard-response","527","1386563","0.0-19.0-0.33","prediction","","","",",",""
"null","<div style=""color:white; font-size:60px;"">+</div>","null","html-keyboard-response","528","1387564","0.0-19.0-1.33","fixation","","","","",""
"2055.449999985285","Stimuli/Hangul_M11.bmp","190","image-keyboard-response","529","1389620","0.0-19.0-2.33","c2_test",",","","","","."
"713.4599999990314","<p style=""color:white;""> Next Figure: Male or Female? </p>","190","html-keyboard-response","530","1390334","0.0-19.0-0.34","prediction","","","",".",""
"null","<div style=""color:white; font-size:60px;"">+</div>","null","html-keyboard-response","531","1391335","0.0-19.0-1.34","fixation","","","","",""
"871.1200000252575","Stimuli/Hangul_M19.bmp","190","image-keyboard-response","532","1392207","0.0-19.0-2.34","c2_test",",","","","","."
"84.70500004477799","<p style=""color:white;""> Next Figure: Male or Female? </p>","190","html-keyboard-response","533","1392292","0.0-19.0-0.35","prediction","","","",".",""
"null","<div style=""color:white; font-size:60px;"">+</div>","null","html-keyboard-response","534","1393293","0.0-19.0-1.35","fixation","","","","",""
"667.0600000070408","Stimuli/Hangul_F18.bmp","190","image-keyboard-response","535","1393961","0.0-19.0-2.35","c2_test",".","","","","."
"105.06500001065433","<p style=""color:white;""> Next Figure: Male or Female? </p>","190","html-keyboard-response","536","1394067","0.0-19.0-0.36","prediction","","","",".",""
"null","<div style=""color:white; font-size:60px;"">+</div>","null","html-keyboard-response","537","1395068","0.0-19.0-1.36","fixation","","","","",""
"1086.2649999908172","Stimuli/Hangul_F12.bmp","190","image-keyboard-response","538","1396154","0.0-19.0-2.36","c2_test",".","","","","."
"759.215000027325","<p style=""color:white;""> Next Figure: Male or Female? </p>","188","html-keyboard-response","539","1396914","0.0-19.0-0.37","prediction","","","",",",""
"null","<div style=""color:white; font-size:60px;"">+</div>","null","html-keyboard-response","540","1397916","0.0-19.0-1.37","fixation","","","","",""
"836.2900000065565","Stimuli/Hangul_M18.bmp","188","image-keyboard-response","541","1398753","0.0-19.0-2.37","c2_test",",","","","",","
"650.8650000323541","<p style=""color:white;""> Next Figure: Male or Female? </p>","188","html-keyboard-response","542","1399404","0.0-19.0-0.38","prediction","","","",",",""
"null","<div style=""color:white; font-size:60px;"">+</div>","null","html-keyboard-response","543","1400405","0.0-19.0-1.38","fixation","","","","",""
"652.1199999842793","Stimuli/Hangul_F17.bmp","188","image-keyboard-response","544","1401058","0.0-19.0-2.38","c2_test",".","","","",","
"656.684999994468","<p style=""color:white;""> Next Figure: Male or Female? </p>","190","html-keyboard-response","545","1401716","0.0-19.0-0.39","prediction","","","",".",""
"null","<div style=""color:white; font-size:60px;"">+</div>","null","html-keyboard-response","546","1402717","0.0-19.0-1.39","fixation","","","","",""
"620.7350000040606","Stimuli/Hangul_M3.bmp","188","image-keyboard-response","547","1403339","0.0-19.0-2.39","c2_test",",","","","",","
"676.3499999651685","<p style=""color:white;""> Next Figure: Male or Female? </p>","188","html-keyboard-response","548","1404016","0.0-19.0-0.40","prediction","","","",",",""
"null","<div style=""color:white; font-size:60px;"">+</div>","null","html-keyboard-response","549","1405017","0.0-19.0-1.40","fixation","","","","",""
"478.6949999979697","Stimuli/Hangul_M21.bmp","188","image-keyboard-response","550","1405496","0.0-19.0-2.40","c2_test",",","","","",","
"481.16500000469387","<p style=""color:white;""> Next Figure: Male or Female? </p>","188","html-keyboard-response","551","1405978","0.0-19.0-0.41","prediction","","","",",",""
"null","<div style=""color:white; font-size:60px;"">+</div>","null","html-keyboard-response","552","1406979","0.0-19.0-1.41","fixation","","","","",""
"945.1549999648705","Stimuli/Hangul_M16.bmp","188","image-keyboard-response","553","1407925","0.0-19.0-2.41","c2_test",",","","","",","
"383.77500005299225","<p style=""color:white;""> Next Figure: Male or Female? </p>","188","html-keyboard-response","554","1408310","0.0-19.0-0.42","prediction","","","",",",""
"null","<div style=""color:white; font-size:60px;"">+</div>","null","html-keyboard-response","555","1409312","0.0-19.0-1.42","fixation","","","","",""
"700.7549999980256","Stimuli/Hangul_M9.bmp","188","image-keyboard-response","556","1410013","0.0-19.0-2.42","c2_test",",","","","",","
"885.6050000176765","<p style=""color:white;""> Next Figure: Male or Female? </p>","188","html-keyboard-response","557","1410899","0.0-19.0-0.43","prediction","","","",",",""
"null","<div style=""color:white; font-size:60px;"">+</div>","null","html-keyboard-response","558","1411900","0.0-19.0-1.43","fixation","","","","",""
"1471.8949999660254","Stimuli/Hangul_F16.bmp","190","image-keyboard-response","559","1413373","0.0-19.0-2.43","c2_test",".","","","","."
"629.8600000445731","<p style=""color:white;""> Next Figure: Male or Female? </p>","188","html-keyboard-response","560","1414004","0.0-19.0-0.44","prediction","","","",",",""
"null","<div style=""color:white; font-size:60px;"">+</div>","null","html-keyboard-response","561","1415009","0.0-19.0-1.44","fixation","","","","",""
"668.3049999992363","Stimuli/Hangul_F15.bmp","188","image-keyboard-response","562","1415678","0.0-19.0-2.44","c2_test",".","","","",","
"531.0949999839067","<p style=""color:white;""> Next Figure: Male or Female? </p>","190","html-keyboard-response","563","1416210","0.0-19.0-0.45","prediction","","","",".",""
"null","<div style=""color:white; font-size:60px;"">+</div>","null","html-keyboard-response","564","1417212","0.0-19.0-1.45","fixation","","","","",""
"1287.7500000176951","Stimuli/Hangul_F7.bmp","188","image-keyboard-response","565","1418500","0.0-19.0-2.45","c2_test",".","","","",","
"601.2699999846518","<p style=""color:white;""> Next Figure: Male or Female? </p>","188","html-keyboard-response","566","1419102","0.0-19.0-0.46","prediction","","","",",",""
"null","<div style=""color:white; font-size:60px;"">+</div>","null","html-keyboard-response","567","1420105","0.0-19.0-1.46","fixation","","","","",""
"587.4549999716692","Stimuli/Hangul_F8.bmp","190","image-keyboard-response","568","1420693","0.0-19.0-2.46","c2_test",".","","","","."
"736.4999999990687","<p style=""color:white;""> Next Figure: Male or Female? </p>","190","html-keyboard-response","569","1421430","0.0-19.0-0.47","prediction","","","",".",""
"null","<div style=""color:white; font-size:60px;"">+</div>","null","html-keyboard-response","570","1422432","0.0-19.0-1.47","fixation","","","","",""
"704.0600000182167","Stimuli/Hangul_M24.bmp","188","image-keyboard-response","571","1423136","0.0-19.0-2.47","c2_test",",","","","",","
"582.0199999725446","<p style=""color:white;""> Next Figure: Male or Female? </p>","188","html-keyboard-response","572","1423719","0.0-19.0-0.48","prediction","","","",",",""
"null","<div style=""color:white; font-size:60px;"">+</div>","null","html-keyboard-response","573","1424721","0.0-19.0-1.48","fixation","","","","",""
"873.2849999796599","Stimuli/Hangul_M13.bmp","190","image-keyboard-response","574","1425595","0.0-19.0-2.48","c2_test",",","","","","."
"673.5200000111945","<p style=""color:white;""> Next Figure: Male or Female? </p>","188","html-keyboard-response","575","1426269","0.0-19.0-0.49","prediction","","","",",",""
"null","<div style=""color:white; font-size:60px;"">+</div>","null","html-keyboard-response","576","1427272","0.0-19.0-1.49","fixation","","","","",""
"875.8350000134669","Stimuli/Hangul_M23.bmp","190","image-keyboard-response","577","1428148","0.0-19.0-2.49","c2_test",",","","","","."
"1532.839999999851","<p style=""color:white;"">Good job, block 1 complete! Please take a moment to rest.</p> <p style=""color:white;"">When you are ready to continue with block 2 of 4, press the space bar.</p> ","32","html-keyboard-response","578","1429682","0.0-20.0","","","","","",""
"492.4199999659322","<p style=""color:white;""> Next Figure: Male or Female? </p>","188","html-keyboard-response","579","1432177","0.0-21.0-0.0","prediction","","","",",",""
"null","<div style=""color:white; font-size:60px;"">+</div>","null","html-keyboard-response","580","1433178","0.0-21.0-1.0","fixation","","","","",""
"562.210000003688","Stimuli/Hangul_M47.bmp","188","image-keyboard-response","581","1433741","0.0-21.0-2.0","c2_test",",","","","",","
"574.7750000446104","<p style=""color:white;""> Next Figure: Male or Female? </p>","188","html-keyboard-response","582","1434316","0.0-21.0-0.1","prediction","","","",",",""
"null","<div style=""color:white; font-size:60px;"">+</div>","null","html-keyboard-response","583","1435317","0.0-21.0-1.1","fixation","","","","",""
"770.4149999772198","Stimuli/Hangul_M36.bmp","190","image-keyboard-response","584","1436089","0.0-21.0-2.1","c2_test",",","","","","."
"713.9249999891035","<p style=""color:white;""> Next Figure: Male or Female? </p>","190","html-keyboard-response","585","1436803","0.0-21.0-0.2","prediction","","","",".",""
"null","<div style=""color:white; font-size:60px;"">+</div>","null","html-keyboard-response","586","1437804","0.0-21.0-1.2","fixation","","","","",""
"446.4049999951385","Stimuli/Hangul_F25.bmp","188","image-keyboard-response","587","1438252","0.0-21.0-2.2","c2_test",".","","","",","
"492.9200000478886","<p style=""color:white;""> Next Figure: Male or Female? </p>","188","html-keyboard-response","588","1438745","0.0-21.0-0.3","prediction","","","",",",""
"null","<div style=""color:white; font-size:60px;"">+</div>","null","html-keyboard-response","589","1439747","0.0-21.0-1.3","fixation","","","","",""
"726.8000000040047","Stimuli/Hangul_M43.bmp","188","image-keyboard-response","590","1440474","0.0-21.0-2.3","c2_test",",","","","",","
"345.07000003941357","<p style=""color:white;""> Next Figure: Male or Female? </p>","188","html-keyboard-response","591","1440821","0.0-21.0-0.4","prediction","","","",",",""
"null","<div style=""color:white; font-size:60px;"">+</div>","null","html-keyboard-response","592","1441823","0.0-21.0-1.4","fixation","","","","",""
"820.7050000200979","Stimuli/Hangul_F41.bmp","188","image-keyboard-response","593","1442645","0.0-21.0-2.4","c2_test",".","","","",","
"812.4299999908544","<p style=""color:white;""> Next Figure: Male or Female? </p>","190","html-keyboard-response","594","1443458","0.0-21.0-0.5","prediction","","","",".",""
"null","<div style=""color:white; font-size:60px;"">+</div>","null","html-keyboard-response","595","1444460","0.0-21.0-1.5","fixation","","","","",""
"851.7599999904633","Stimuli/Hangul_M46.bmp","190","image-keyboard-response","596","1445312","0.0-21.0-2.5","c2_test",",","","","","."
"560.7050000107847","<p style=""color:white;""> Next Figure: Male or Female? </p>","190","html-keyboard-response","597","1445873","0.0-21.0-0.6","prediction","","","",".",""
"null","<div style=""color:white; font-size:60px;"">+</div>","null","html-keyboard-response","598","1446875","0.0-21.0-1.6","fixation","","","","",""
"863.1000000168569","Stimuli/Hangul_M26.bmp","190","image-keyboard-response","599","1447739","0.0-21.0-2.6","c2_test",",","","","","."
"794.289999990724","<p style=""color:white;""> Next Figure: Male or Female? </p>","188","html-keyboard-response","600","1448534","0.0-21.0-0.7","prediction","","","",",",""
"null","<div style=""color:white; font-size:60px;"">+</div>","null","html-keyboard-response","601","1449536","0.0-21.0-1.7","fixation","","","","",""
"1300.0400000019","Stimuli/Hangul_M44.bmp","190","image-keyboard-response","602","1450837","0.0-21.0-2.7","c2_test",",","","","","."
"861.5099999587983","<p style=""color:white;""> Next Figure: Male or Female? </p>","188","html-keyboard-response","603","1451700","0.0-21.0-0.8","prediction","","","",",",""
"null","<div style=""color:white; font-size:60px;"">+</div>","null","html-keyboard-response","604","1452704","0.0-21.0-1.8","fixation","","","","",""
"818.9649999840185","Stimuli/Hangul_F48.bmp","190","image-keyboard-response","605","1453523","0.0-21.0-2.8","c2_test",".","","","","."
"557.3000000440516","<p style=""color:white;""> Next Figure: Male or Female? </p>","190","html-keyboard-response","606","1454081","0.0-21.0-0.9","prediction","","","",".",""
"null","<div style=""color:white; font-size:60px;"">+</div>","null","html-keyboard-response","607","1455083","0.0-21.0-1.9","fixation","","","","",""
"1075.135000050068","Stimuli/Hangul_F45.bmp","190","image-keyboard-response","608","1456159","0.0-21.0-2.9","c2_test",".","","","","."
"772.4149999557994","<p style=""color:white;""> Next Figure: Male or Female? </p>","190","html-keyboard-response","609","1456932","0.0-21.0-0.10","prediction","","","",".",""
"null","<div style=""color:white; font-size:60px;"">+</div>","null","html-keyboard-response","610","1457933","0.0-21.0-1.10","fixation","","","","",""
"1342.339999973774","Stimuli/Hangul_F30.bmp","190","image-keyboard-response","611","1459276","0.0-21.0-2.10","c2_test",".","","","","."
"555.980000004638","<p style=""color:white;""> Next Figure: Male or Female? </p>","188","html-keyboard-response","612","1459833","0.0-21.0-0.11","prediction","","","",",",""
"null","<div style=""color:white; font-size:60px;"">+</div>","null","html-keyboard-response","613","1460841","0.0-21.0-1.11","fixation","","","","",""
"1419.1199999768287","Stimuli/Hangul_M34.bmp","188","image-keyboard-response","614","1462261","0.0-21.0-2.11","c2_test",",","","","",","
"709.0700000408106","<p style=""color:white;""> Next Figure: Male or Female? </p>","188","html-keyboard-response","615","1462971","0.0-21.0-0.12","prediction","","","",",",""
"null","<div style=""color:white; font-size:60px;"">+</div>","null","html-keyboard-response","616","1463972","0.0-21.0-1.12","fixation","","","","",""
"2256.5900000045076","Stimuli/Hangul_F40.bmp","190","image-keyboard-response","617","1466229","0.0-21.0-2.12","c2_test",".","","","","."
"1128.6850000033155","<p style=""color:white;""> Next Figure: Male or Female? </p>","190","html-keyboard-response","618","1467359","0.0-21.0-0.13","prediction","","","",".",""
"null","<div style=""color:white; font-size:60px;"">+</div>","null","html-keyboard-response","619","1468360","0.0-21.0-1.13","fixation","","","","",""
"1940.0100000202656","Stimuli/Hangul_M42.bmp","190","image-keyboard-response","620","1470301","0.0-21.0-2.13","c2_test",",","","","","."
"766.1550000193529","<p style=""color:white;""> Next Figure: Male or Female? </p>","188","html-keyboard-response","621","1471068","0.0-21.0-0.14","prediction","","","",",",""
"null","<div style=""color:white; font-size:60px;"">+</div>","null","html-keyboard-response","622","1472069","0.0-21.0-1.14","fixation","","","","",""
"918.4050000039861","Stimuli/Hangul_M39.bmp","188","image-keyboard-response","623","1472988","0.0-21.0-2.14","c2_test",",","","","",","
"851.5449999831617","<p style=""color:white;""> Next Figure: Male or Female? </p>","188","html-keyboard-response","624","1473841","0.0-21.0-0.15","prediction","","","",",",""
"null","<div style=""color:white; font-size:60px;"">+</div>","null","html-keyboard-response","625","1474842","0.0-21.0-1.15","fixation","","","","",""
"938.0699999746867","Stimuli/Hangul_M48.bmp","188","image-keyboard-response","626","1475781","0.0-21.0-2.15","c2_test",",","","","",","
"634.6849999972619","<p style=""color:white;""> Next Figure: Male or Female? </p>","188","html-keyboard-response","627","1476416","0.0-21.0-0.16","prediction","","","",",",""
"null","<div style=""color:white; font-size:60px;"">+</div>","null","html-keyboard-response","628","1477418","0.0-21.0-1.16","fixation","","","","",""
"1706.0049999854527","Stimuli/Hangul_M27.bmp","188","image-keyboard-response","629","1479125","0.0-21.0-2.16","c2_test",",","","","",","
"438.76500002807006","<p style=""color:white;""> Next Figure: Male or Female? </p>","188","html-keyboard-response","630","1479564","0.0-21.0-0.17","prediction","","","",",",""
"null","<div style=""color:white; font-size:60px;"">+</div>","null","html-keyboard-response","631","1480566","0.0-21.0-1.17","fixation","","","","",""
"1398.1450000428595","Stimuli/Hangul_M41.bmp","190","image-keyboard-response","632","1481965","0.0-21.0-2.17","c2_test",",","","","","."
"635.2799999876879","<p style=""color:white;""> Next Figure: Male or Female? </p>","190","html-keyboard-response","633","1482601","0.0-21.0-0.18","prediction","","","",".",""
"null","<div style=""color:white; font-size:60px;"">+</div>","null","html-keyboard-response","634","1483603","0.0-21.0-1.18","fixation","","","","",""
"1983.2700000260957","Stimuli/Hangul_M29.bmp","188","image-keyboard-response","635","1485587","0.0-21.0-2.18","c2_test",",","","","",","
"575.1450000097975","<p style=""color:white;""> Next Figure: Male or Female? </p>","188","html-keyboard-response","636","1486163","0.0-21.0-0.19","prediction","","","",",",""
"null","<div style=""color:white; font-size:60px;"">+</div>","null","html-keyboard-response","637","1487164","0.0-21.0-1.19","fixation","","","","",""
"1028.0299999867566","Stimuli/Hangul_F42.bmp","190","image-keyboard-response","638","1488193","0.0-21.0-2.19","c2_test",".","","","","."
"737.6349999685772","<p style=""color:white;""> Next Figure: Male or Female? </p>","190","html-keyboard-response","639","1488931","0.0-21.0-0.20","prediction","","","",".",""
"null","<div style=""color:white; font-size:60px;"">+</div>","null","html-keyboard-response","640","1489934","0.0-21.0-1.20","fixation","","","","",""
"506.0199999716133","Stimuli/Hangul_F34.bmp","190","image-keyboard-response","641","1490440","0.0-21.0-2.20","c2_test",".","","","","."
"536.1250000423752","<p style=""color:white;""> Next Figure: Male or Female? </p>","190","html-keyboard-response","642","1490977","0.0-21.0-0.21","prediction","","","",".",""
"null","<div style=""color:white; font-size:60px;"">+</div>","null","html-keyboard-response","643","1491978","0.0-21.0-1.21","fixation","","","","",""
"772.5750000099652","Stimuli/Hangul_M32.bmp","190","image-keyboard-response","644","1492751","0.0-21.0-2.21","c2_test",",","","","","."
"608.9999999967404","<p style=""color:white;""> Next Figure: Male or Female? </p>","188","html-keyboard-response","645","1493361","0.0-21.0-0.22","prediction","","","",",",""
"null","<div style=""color:white; font-size:60px;"">+</div>","null","html-keyboard-response","646","1494363","0.0-21.0-1.22","fixation","","","","",""
"1196.70499995118","Stimuli/Hangul_M49.bmp","190","image-keyboard-response","647","1495561","0.0-21.0-2.22","c2_test",",","","","","."
"703.4349999739788","<p style=""color:white;""> Next Figure: Male or Female? </p>","188","html-keyboard-response","648","1496265","0.0-21.0-0.23","prediction","","","",",",""
"null","<div style=""color:white; font-size:60px;"">+</div>","null","html-keyboard-response","649","1497266","0.0-21.0-1.23","fixation","","","","",""
"1298.5700000426732","Stimuli/Hangul_M45.bmp","190","image-keyboard-response","650","1498566","0.0-21.0-2.23","c2_test",",","","","","."
"474.965000001248","<p style=""color:white;""> Next Figure: Male or Female? </p>","188","html-keyboard-response","651","1499041","0.0-21.0-0.24","prediction","","","",",",""
"null","<div style=""color:white; font-size:60px;"">+</div>","null","html-keyboard-response","652","1500043","0.0-21.0-1.24","fixation","","","","",""
"902.0650000311434","Stimuli/Hangul_F39.bmp","190","image-keyboard-response","653","1500945","0.0-21.0-2.24","c2_test",".","","","","."
"401.5299999737181","<p style=""color:white;""> Next Figure: Male or Female? </p>","190","html-keyboard-response","654","1501348","0.0-21.0-0.25","prediction","","","",".",""
"null","<div style=""color:white; font-size:60px;"">+</div>","null","html-keyboard-response","655","1502350","0.0-21.0-1.25","fixation","","","","",""
