"rt","stimulus","key_press","trial_type","trial_index","time_elapsed","internal_node_id","test_part","correct_response","C1_train","C1","A","C2"
"2781.095000000292","<p style=""color:white;"">Welcome to the experiment! Press any key to begin.</p>","32","html-keyboard-response","0","2792","0.0-0.0","","","","","",""
"30836.06499999948","<p style=""color:white;"">You will see a series of abstract figures. They are adaptations of signs in the Korean alphabet, but that is not important for this study. </p><p style=""color:white;"">Abstract figures sometimes have a more masculine or feminine shape. Here, each figure has already been assigned a gender as <q>Male</q> or <q>Female</q> by a panel of respondents in a pilot study. The respondents were not given specific instructions on how to do this, but were only told to use their intuition and to take into account the entire configuration of the stimulus. </p><p style=""color:white;"">Your task now is to guess the assigned gender of each figure. Please press the corresponding response keys to indicate your choice: </p><p style=""color:white;""> Male &#8594 <q>,</q> (comma)</p><p style=""color:white;""> Female &#8594 <q>.</q> (period)</p><p style=""color:white;"">Press either response keys to continue.</p>","190","html-keyboard-response","1","33628","0.0-1.0","","","","","",""
"9764.615000000049","<p style=""color:white;"">Your choice is correct if it matches the gender assigned by the majority of respondents in the pilot study.</p> <p style=""color:white;"">For each correct choice you will receive 2 cents. There will be 200 trials divided into 4 blocks of 50 trials. You will be able to take a break after every 50 trials.</p> <p style=""color:white;"">Press the space bar to continue.</p>","32","html-keyboard-response","2","43392","0.0-2.0","","","","","",""
"5999.94499999957","<p style=""color:white;"">Here are some examples.</p> <p style=""color:white;"">For each, guess whether the assigned figure is male-like or female-like and indicate your choice by pressing either response keys.</p> <p style=""color:white;"">Press the space bar to continue.</p>","32","html-keyboard-response","3","49393","0.0-3.0","","","","","",""
"null","<div style=""color:white; font-size:60px;"">+</div>","null","html-keyboard-response","4","52395","0.0-4.0-0.0","fixation","","","","",""
"2786.290000000008","Stimuli/Hangul_E0.bmp","188","image-keyboard-response","5","55183","0.0-4.0-1.0","c1_train",",",",","","",""
"null","<div style=""color:white; font-size:60px;"">+</div>","null","html-keyboard-response","6","56186","0.0-4.0-0.1","fixation","","","","",""
"2601.2849999988393","Stimuli/Hangul_E1.bmp","190","image-keyboard-response","7","58788","0.0-4.0-1.1","c1_train",",",".","","",""
"null","<div style=""color:white; font-size:60px;"">+</div>","null","html-keyboard-response","8","59789","0.0-4.0-0.2","fixation","","","","",""
"2877.3600000003935","Stimuli/Hangul_E2.bmp","190","image-keyboard-response","9","62667","0.0-4.0-1.2","c1_train",".",".","","",""
"241461.8799999989","<p style=""color:white;"">Let us begin! Press the space bar when you are ready to start block 1 of 4.</p> ","32","html-keyboard-response","10","304118","0.0-5.0","","","","","",""
"null","<div style=""color:white; font-size:60px;"">+</div>","null","html-keyboard-response","11","307123","0.0-6.0-0.0","fixation","","","","",""
"2578.8799999990733","Stimuli/Hangul_F12.bmp","188","image-keyboard-response","12","309703","0.0-6.0-1.0","test",".","",",","",""
"null","<div style=""color:white; font-size:60px;"">+</div>","null","html-keyboard-response","13","310705","0.0-6.0-0.1","fixation","","","","",""
"2146.900000001595","Stimuli/Hangul_F4.bmp","190","image-keyboard-response","14","312853","0.0-6.0-1.1","test",".","",".","",""
"null","<div style=""color:white; font-size:60px;"">+</div>","null","html-keyboard-response","15","313855","0.0-6.0-0.2","fixation","","","","",""
"2046.3099999997066","Stimuli/Hangul_F8.bmp","190","image-keyboard-response","16","315902","0.0-6.0-1.2","test",".","",".","",""
"null","<div style=""color:white; font-size:60px;"">+</div>","null","html-keyboard-response","17","316904","0.0-6.0-0.3","fixation","","","","",""
"1784.4199999999837","Stimuli/Hangul_M7.bmp","188","image-keyboard-response","18","318689","0.0-6.0-1.3","test",",","",",","",""
"null","<div style=""color:white; font-size:60px;"">+</div>","null","html-keyboard-response","19","319693","0.0-6.0-0.4","fixation","","","","",""
"1884.2050000003073","Stimuli/Hangul_F18.bmp","190","image-keyboard-response","20","321578","0.0-6.0-1.4","test",".","",".","",""
"null","<div style=""color:white; font-size:60px;"">+</div>","null","html-keyboard-response","21","322580","0.0-6.0-0.5","fixation","","","","",""
"2927.694999998552","Stimuli/Hangul_M4.bmp","190","image-keyboard-response","22","325508","0.0-6.0-1.5","test",",","",".","",""
"null","<div style=""color:white; font-size:60px;"">+</div>","null","html-keyboard-response","23","326513","0.0-6.0-0.6","fixation","","","","",""
"2070.19500000024","Stimuli/Hangul_F6.bmp","188","image-keyboard-response","24","328584","0.0-6.0-1.6","test",".","",",","",""
"null","<div style=""color:white; font-size:60px;"">+</div>","null","html-keyboard-response","25","329588","0.0-6.0-0.7","fixation","","","","",""
"2054.330000000831","Stimuli/Hangul_M16.bmp","188","image-keyboard-response","26","331643","0.0-6.0-1.7","test",",","",",","",""
"null","<div style=""color:white; font-size:60px;"">+</div>","null","html-keyboard-response","27","332648","0.0-6.0-0.8","fixation","","","","",""
"3172.5150000001886","Stimuli/Hangul_M19.bmp","190","image-keyboard-response","28","335821","0.0-6.0-1.8","test",",","",".","",""
"null","<div style=""color:white; font-size:60px;"">+</div>","null","html-keyboard-response","29","336822","0.0-6.0-0.9","fixation","","","","",""
"5927.910000000382","Stimuli/Hangul_F1.bmp","190","image-keyboard-response","30","342751","0.0-6.0-1.9","test",".","",".","",""
"null","<div style=""color:white; font-size:60px;"">+</div>","null","html-keyboard-response","31","343751","0.0-6.0-0.10","fixation","","","","",""
"3386.8999999994994","Stimuli/Hangul_F13.bmp","188","image-keyboard-response","32","347139","0.0-6.0-1.10","test",".","",",","",""
"null","<div style=""color:white; font-size:60px;"">+</div>","null","html-keyboard-response","33","348143","0.0-6.0-0.11","fixation","","","","",""
"3345.459999998624","Stimuli/Hangul_F21.bmp","188","image-keyboard-response","34","351489","0.0-6.0-1.11","test",".","",",","",""
"null","<div style=""color:white; font-size:60px;"">+</div>","null","html-keyboard-response","35","352491","0.0-6.0-0.12","fixation","","","","",""
"3457.4649999994435","Stimuli/Hangul_F3.bmp","188","image-keyboard-response","36","355949","0.0-6.0-1.12","test",".","",",","",""
"null","<div style=""color:white; font-size:60px;"">+</div>","null","html-keyboard-response","37","356951","0.0-6.0-0.13","fixation","","","","",""
"1999.4800000003306","Stimuli/Hangul_F24.bmp","188","image-keyboard-response","38","358951","0.0-6.0-1.13","test",".","",",","",""
"null","<div style=""color:white; font-size:60px;"">+</div>","null","html-keyboard-response","39","359953","0.0-6.0-0.14","fixation","","","","",""
"2080.7749999986263","Stimuli/Hangul_M5.bmp","188","image-keyboard-response","40","362035","0.0-6.0-1.14","test",",","",",","",""
"null","<div style=""color:white; font-size:60px;"">+</div>","null","html-keyboard-response","41","363035","0.0-6.0-0.15","fixation","","","","",""
"2179.1950000006473","Stimuli/Hangul_F17.bmp","188","image-keyboard-response","42","365215","0.0-6.0-1.15","test",".","",",","",""
"null","<div style=""color:white; font-size:60px;"">+</div>","null","html-keyboard-response","43","366219","0.0-6.0-0.16","fixation","","","","",""
"1845.1599999988684","Stimuli/Hangul_M3.bmp","188","image-keyboard-response","44","368065","0.0-6.0-1.16","test",",","",",","",""
"null","<div style=""color:white; font-size:60px;"">+</div>","null","html-keyboard-response","45","369067","0.0-6.0-0.17","fixation","","","","",""
"1908.0549999998184","Stimuli/Hangul_F5.bmp","188","image-keyboard-response","46","370975","0.0-6.0-1.17","test",".","",",","",""
"null","<div style=""color:white; font-size:60px;"">+</div>","null","html-keyboard-response","47","371979","0.0-6.0-0.18","fixation","","","","",""
"4806.345000000903","Stimuli/Hangul_M0.bmp","188","image-keyboard-response","48","376786","0.0-6.0-1.18","test",",","",",","",""
"null","<div style=""color:white; font-size:60px;"">+</div>","null","html-keyboard-response","49","377786","0.0-6.0-0.19","fixation","","","","",""
"1664.020000000135","Stimuli/Hangul_M21.bmp","188","image-keyboard-response","50","379451","0.0-6.0-1.19","test",",","",",","",""
"null","<div style=""color:white; font-size:60px;"">+</div>","null","html-keyboard-response","51","380454","0.0-6.0-0.20","fixation","","","","",""
"1996.7699999996694","Stimuli/Hangul_F2.bmp","188","image-keyboard-response","52","382451","0.0-6.0-1.20","test",".","",",","",""
"null","<div style=""color:white; font-size:60px;"">+</div>","null","html-keyboard-response","53","383454","0.0-6.0-0.21","fixation","","","","",""
"3061.2149999997346","Stimuli/Hangul_M18.bmp","188","image-keyboard-response","54","386516","0.0-6.0-1.21","test",",","",",","",""
"null","<div style=""color:white; font-size:60px;"">+</div>","null","html-keyboard-response","55","387518","0.0-6.0-0.22","fixation","","","","",""
"2823.0149999998976","Stimuli/Hangul_M8.bmp","188","image-keyboard-response","56","390342","0.0-6.0-1.22","test",",","",",","",""
"null","<div style=""color:white; font-size:60px;"">+</div>","null","html-keyboard-response","57","391346","0.0-6.0-0.23","fixation","","","","",""
"3239.9249999998137","Stimuli/Hangul_F7.bmp","190","image-keyboard-response","58","394586","0.0-6.0-1.23","test",".","",".","",""
"null","<div style=""color:white; font-size:60px;"">+</div>","null","html-keyboard-response","59","395590","0.0-6.0-0.24","fixation","","","","",""
"1576.3800000004703","Stimuli/Hangul_M17.bmp","188","image-keyboard-response","60","397167","0.0-6.0-1.24","test",",","",",","",""
"null","<div style=""color:white; font-size:60px;"">+</div>","null","html-keyboard-response","61","398168","0.0-6.0-0.25","fixation","","","","",""
"2544.9650000008987","Stimuli/Hangul_M15.bmp","188","image-keyboard-response","62","400714","0.0-6.0-1.25","test",",","",",","",""
"null","<div style=""color:white; font-size:60px;"">+</div>","null","html-keyboard-response","63","401718","0.0-6.0-0.26","fixation","","","","",""
"2203.3649999994086","Stimuli/Hangul_F9.bmp","190","image-keyboard-response","64","403922","0.0-6.0-1.26","test",".","",".","",""
"null","<div style=""color:white; font-size:60px;"">+</div>","null","html-keyboard-response","65","404926","0.0-6.0-0.27","fixation","","","","",""
"3016.8999999986263","Stimuli/Hangul_M2.bmp","188","image-keyboard-response","66","407943","0.0-6.0-1.27","test",",","",",","",""
"null","<div style=""color:white; font-size:60px;"">+</div>","null","html-keyboard-response","67","408945","0.0-6.0-0.28","fixation","","","","",""
"3751.3849999995437","Stimuli/Hangul_F20.bmp","190","image-keyboard-response","68","412698","0.0-6.0-1.28","test",".","",".","",""
"null","<div style=""color:white; font-size:60px;"">+</div>","null","html-keyboard-response","69","413700","0.0-6.0-0.29","fixation","","","","",""
"1796.5100000001257","Stimuli/Hangul_F10.bmp","190","image-keyboard-response","70","415498","0.0-6.0-1.29","test",".","",".","",""
"null","<div style=""color:white; font-size:60px;"">+</div>","null","html-keyboard-response","71","416501","0.0-6.0-0.30","fixation","","","","",""
"2716.465000001248","Stimuli/Hangul_M22.bmp","188","image-keyboard-response","72","419218","0.0-6.0-1.30","test",",","",",","",""
"null","<div style=""color:white; font-size:60px;"">+</div>","null","html-keyboard-response","73","420221","0.0-6.0-0.31","fixation","","","","",""
"2776.6300000002375","Stimuli/Hangul_M24.bmp","188","image-keyboard-response","74","422998","0.0-6.0-1.31","test",",","",",","",""
"null","<div style=""color:white; font-size:60px;"">+</div>","null","html-keyboard-response","75","423999","0.0-6.0-0.32","fixation","","","","",""
"2874.2249999996275","Stimuli/Hangul_F22.bmp","188","image-keyboard-response","76","426874","0.0-6.0-1.32","test",".","",",","",""
"null","<div style=""color:white; font-size:60px;"">+</div>","null","html-keyboard-response","77","427875","0.0-6.0-0.33","fixation","","","","",""
"1878.5700000007637","Stimuli/Hangul_F14.bmp","190","image-keyboard-response","78","429754","0.0-6.0-1.33","test",".","",".","",""
"null","<div style=""color:white; font-size:60px;"">+</div>","null","html-keyboard-response","79","430756","0.0-6.0-0.34","fixation","","","","",""
"1722.0000000015134","Stimuli/Hangul_F23.bmp","188","image-keyboard-response","80","432479","0.0-6.0-1.34","test",".","",",","",""
"null","<div style=""color:white; font-size:60px;"">+</div>","null","html-keyboard-response","81","433480","0.0-6.0-0.35","fixation","","","","",""
"1863.4449999991339","Stimuli/Hangul_M12.bmp","188","image-keyboard-response","82","435344","0.0-6.0-1.35","test",",","",",","",""
"null","<div style=""color:white; font-size:60px;"">+</div>","null","html-keyboard-response","83","436346","0.0-6.0-0.36","fixation","","","","",""
"1892.2099999999627","Stimuli/Hangul_F15.bmp","188","image-keyboard-response","84","438239","0.0-6.0-1.36","test",".","",",","",""
"null","<div style=""color:white; font-size:60px;"">+</div>","null","html-keyboard-response","85","439240","0.0-6.0-0.37","fixation","","","","",""
"2763.6749999984168","Stimuli/Hangul_F0.bmp","190","image-keyboard-response","86","442004","0.0-6.0-1.37","test",".","",".","",""
"null","<div style=""color:white; font-size:60px;"">+</div>","null","html-keyboard-response","87","443005","0.0-6.0-0.38","fixation","","","","",""
"3272.945000000531","Stimuli/Hangul_M9.bmp","188","image-keyboard-response","88","446279","0.0-6.0-1.38","test",",","",",","",""
"null","<div style=""color:white; font-size:60px;"">+</div>","null","html-keyboard-response","89","447284","0.0-6.0-0.39","fixation","","","","",""
"1844.0399999999208","Stimuli/Hangul_M20.bmp","188","image-keyboard-response","90","449129","0.0-6.0-1.39","test",",","",",","",""
"null","<div style=""color:white; font-size:60px;"">+</div>","null","html-keyboard-response","91","450132","0.0-6.0-0.40","fixation","","","","",""
"2117.0849999999627","Stimuli/Hangul_M11.bmp","190","image-keyboard-response","92","452250","0.0-6.0-1.40","test",",","",".","",""
"null","<div style=""color:white; font-size:60px;"">+</div>","null","html-keyboard-response","93","453251","0.0-6.0-0.41","fixation","","","","",""
"2343.360000000801","Stimuli/Hangul_M10.bmp","188","image-keyboard-response","94","455595","0.0-6.0-1.41","test",",","",",","",""
"null","<div style=""color:white; font-size:60px;"">+</div>","null","html-keyboard-response","95","456599","0.0-6.0-0.42","fixation","","","","",""
"2197.3199999992503","Stimuli/Hangul_M1.bmp","188","image-keyboard-response","96","458797","0.0-6.0-1.42","test",",","",",","",""
"null","<div style=""color:white; font-size:60px;"">+</div>","null","html-keyboard-response","97","459799","0.0-6.0-0.43","fixation","","","","",""
"2591.1400000004796","Stimuli/Hangul_M6.bmp","188","image-keyboard-response","98","462390","0.0-6.0-1.43","test",",","",",","",""
"null","<div style=""color:white; font-size:60px;"">+</div>","null","html-keyboard-response","99","463391","0.0-6.0-0.44","fixation","","","","",""
"1877.6650000000373","Stimuli/Hangul_M14.bmp","188","image-keyboard-response","100","465270","0.0-6.0-1.44","test",",","",",","",""
"null","<div style=""color:white; font-size:60px;"">+</div>","null","html-keyboard-response","101","466274","0.0-6.0-0.45","fixation","","","","",""
"3440.695000001113","Stimuli/Hangul_F19.bmp","190","image-keyboard-response","102","469716","0.0-6.0-1.45","test",".","",".","",""
"null","<div style=""color:white; font-size:60px;"">+</div>","null","html-keyboard-response","103","470718","0.0-6.0-0.46","fixation","","","","",""
"2159.6399999998976","Stimuli/Hangul_F16.bmp","188","image-keyboard-response","104","472878","0.0-6.0-1.46","test",".","",",","",""
"null","<div style=""color:white; font-size:60px;"">+</div>","null","html-keyboard-response","105","473879","0.0-6.0-0.47","fixation","","","","",""
"2536.309999999474","Stimuli/Hangul_M23.bmp","190","image-keyboard-response","106","476416","0.0-6.0-1.47","test",",","",".","",""
"null","<div style=""color:white; font-size:60px;"">+</div>","null","html-keyboard-response","107","477416","0.0-6.0-0.48","fixation","","","","",""
"2059.2450000003446","Stimuli/Hangul_M13.bmp","188","image-keyboard-response","108","479476","0.0-6.0-1.48","test",",","",",","",""
"null","<div style=""color:white; font-size:60px;"">+</div>","null","html-keyboard-response","109","480478","0.0-6.0-0.49","fixation","","","","",""
"1547.28000000061","Stimuli/Hangul_F11.bmp","188","image-keyboard-response","110","482027","0.0-6.0-1.49","test",".","",",","",""
"16701.38500000036","<p style=""color:white;"">Good job, block 1 complete! Please take a moment to rest.</p> <p style=""color:white;"">When you are ready to continue with block 2 of 4, press the space bar.</p> ","32","html-keyboard-response","111","498728","0.0-7.0","","","","","",""
"null","<div style=""color:white; font-size:60px;"">+</div>","null","html-keyboard-response","112","501733","0.0-8.0-0.0","fixation","","","","",""
"2433.0799999989104","Stimuli/Hangul_M37.bmp","188","image-keyboard-response","113","504167","0.0-8.0-1.0","test",",","",",","",""
"null","<div style=""color:white; font-size:60px;"">+</div>","null","html-keyboard-response","114","505169","0.0-8.0-0.1","fixation","","","","",""
"3093.4599999999627","Stimuli/Hangul_M49.bmp","188","image-keyboard-response","115","508263","0.0-8.0-1.1","test",",","",",","",""
"null","<div style=""color:white; font-size:60px;"">+</div>","null","html-keyboard-response","116","509265","0.0-8.0-0.2","fixation","","","","",""
"1997.0649999994785","Stimuli/Hangul_M45.bmp","188","image-keyboard-response","117","511263","0.0-8.0-1.2","test",",","",",","",""
"null","<div style=""color:white; font-size:60px;"">+</div>","null","html-keyboard-response","118","512265","0.0-8.0-0.3","fixation","","","","",""
"2027.3400000005495","Stimuli/Hangul_F49.bmp","190","image-keyboard-response","119","514293","0.0-8.0-1.3","test",".","",".","",""
"null","<div style=""color:white; font-size:60px;"">+</div>","null","html-keyboard-response","120","515298","0.0-8.0-0.4","fixation","","","","",""
"1753.6600000002654","Stimuli/Hangul_F32.bmp","190","image-keyboard-response","121","517052","0.0-8.0-1.4","test",".","",".","",""
"null","<div style=""color:white; font-size:60px;"">+</div>","null","html-keyboard-response","122","518054","0.0-8.0-0.5","fixation","","","","",""
"1792.0349999986356","Stimuli/Hangul_F34.bmp","190","image-keyboard-response","123","519847","0.0-8.0-1.5","test",".","",".","",""
"null","<div style=""color:white; font-size:60px;"">+</div>","null","html-keyboard-response","124","520848","0.0-8.0-0.6","fixation","","","","",""
"2639.7399999985937","Stimuli/Hangul_F36.bmp","190","image-keyboard-response","125","523488","0.0-8.0-1.6","test",".","",".","",""
"null","<div style=""color:white; font-size:60px;"">+</div>","null","html-keyboard-response","126","524492","0.0-8.0-0.7","fixation","","","","",""
"1919.4049999987474","Stimuli/Hangul_M27.bmp","188","image-keyboard-response","127","526413","0.0-8.0-1.7","test",",","",",","",""
"null","<div style=""color:white; font-size:60px;"">+</div>","null","html-keyboard-response","128","527416","0.0-8.0-0.8","fixation","","","","",""
"2221.61500000034","Stimuli/Hangul_M39.bmp","188","image-keyboard-response","129","529638","0.0-8.0-1.8","test",",","",",","",""
"null","<div style=""color:white; font-size:60px;"">+</div>","null","html-keyboard-response","130","530640","0.0-8.0-0.9","fixation","","","","",""
"2492.4799999989336","Stimuli/Hangul_M31.bmp","188","image-keyboard-response","131","533133","0.0-8.0-1.9","test",",","",",","",""
"null","<div style=""color:white; font-size:60px;"">+</div>","null","html-keyboard-response","132","534136","0.0-8.0-0.10","fixation","","","","",""
"3363.079999999143","Stimuli/Hangul_M38.bmp","188","image-keyboard-response","133","537500","0.0-8.0-1.10","test",",","",",","",""
"null","<div style=""color:white; font-size:60px;"">+</div>","null","html-keyboard-response","134","538504","0.0-8.0-0.11","fixation","","","","",""
"2268.710000000312","Stimuli/Hangul_M41.bmp","188","image-keyboard-response","135","540773","0.0-8.0-1.11","test",",","",",","",""
"null","<div style=""color:white; font-size:60px;"">+</div>","null","html-keyboard-response","136","541776","0.0-8.0-0.12","fixation","","","","",""
"1983.47999999905","Stimuli/Hangul_M42.bmp","188","image-keyboard-response","137","543760","0.0-8.0-1.12","test",",","",",","",""
"null","<div style=""color:white; font-size:60px;"">+</div>","null","html-keyboard-response","138","544762","0.0-8.0-0.13","fixation","","","","",""
"1855.8899999989662","Stimuli/Hangul_F29.bmp","190","image-keyboard-response","139","546619","0.0-8.0-1.13","test",".","",".","",""
"null","<div style=""color:white; font-size:60px;"">+</div>","null","html-keyboard-response","140","547623","0.0-8.0-0.14","fixation","","","","",""
"1995.9849999995204","Stimuli/Hangul_M25.bmp","190","image-keyboard-response","141","549620","0.0-8.0-1.14","test",",","",".","",""
"null","<div style=""color:white; font-size:60px;"">+</div>","null","html-keyboard-response","142","550622","0.0-8.0-0.15","fixation","","","","",""
"2012.0000000006985","Stimuli/Hangul_F41.bmp","190","image-keyboard-response","143","552634","0.0-8.0-1.15","test",".","",".","",""
"null","<div style=""color:white; font-size:60px;"">+</div>","null","html-keyboard-response","144","553635","0.0-8.0-0.16","fixation","","","","",""
"1863.654999999213","Stimuli/Hangul_F44.bmp","190","image-keyboard-response","145","555500","0.0-8.0-1.16","test",".","",".","",""
"null","<div style=""color:white; font-size:60px;"">+</div>","null","html-keyboard-response","146","556501","0.0-8.0-0.17","fixation","","","","",""
"1653.005000000121","Stimuli/Hangul_M32.bmp","188","image-keyboard-response","147","558155","0.0-8.0-1.17","test",",","",",","",""
"null","<div style=""color:white; font-size:60px;"">+</div>","null","html-keyboard-response","148","559159","0.0-8.0-0.18","fixation","","","","",""
"1996.3550000011455","Stimuli/Hangul_F46.bmp","188","image-keyboard-response","149","561156","0.0-8.0-1.18","test",".","",",","",""
"null","<div style=""color:white; font-size:60px;"">+</div>","null","html-keyboard-response","150","562159","0.0-8.0-0.19","fixation","","","","",""
"2220.569999999483","Stimuli/Hangul_F47.bmp","190","image-keyboard-response","151","564380","0.0-8.0-1.19","test",".","",".","",""
"null","<div style=""color:white; font-size:60px;"">+</div>","null","html-keyboard-response","152","565382","0.0-8.0-0.20","fixation","","","","",""
"2087.349999999744","Stimuli/Hangul_F38.bmp","188","image-keyboard-response","153","567470","0.0-8.0-1.20","test",".","",",","",""
"null","<div style=""color:white; font-size:60px;"">+</div>","null","html-keyboard-response","154","568474","0.0-8.0-0.21","fixation","","","","",""
"2655.5050000005867","Stimuli/Hangul_M34.bmp","190","image-keyboard-response","155","571131","0.0-8.0-1.21","test",",","",".","",""
"null","<div style=""color:white; font-size:60px;"">+</div>","null","html-keyboard-response","156","572135","0.0-8.0-0.22","fixation","","","","",""
"2174.885000000475","Stimuli/Hangul_F35.bmp","190","image-keyboard-response","157","574310","0.0-8.0-1.22","test",".","",".","",""
"null","<div style=""color:white; font-size:60px;"">+</div>","null","html-keyboard-response","158","575312","0.0-8.0-0.23","fixation","","","","",""
"2838.19000000041","Stimuli/Hangul_F30.bmp","190","image-keyboard-response","159","578151","0.0-8.0-1.23","test",".","",".","",""
"null","<div style=""color:white; font-size:60px;"">+</div>","null","html-keyboard-response","160","579153","0.0-8.0-0.24","fixation","","","","",""
"2676.70999999973","Stimuli/Hangul_M30.bmp","188","image-keyboard-response","161","581830","0.0-8.0-1.24","test",",","",",","",""
"null","<div style=""color:white; font-size:60px;"">+</div>","null","html-keyboard-response","162","582834","0.0-8.0-0.25","fixation","","","","",""
"2231.480000000447","Stimuli/Hangul_M47.bmp","188","image-keyboard-response","163","585066","0.0-8.0-1.25","test",",","",",","",""
"null","<div style=""color:white; font-size:60px;"">+</div>","null","html-keyboard-response","164","586070","0.0-8.0-0.26","fixation","","","","",""
"2490.799999999581","Stimuli/Hangul_M28.bmp","190","image-keyboard-response","165","588561","0.0-8.0-1.26","test",",","",".","",""
"null","<div style=""color:white; font-size:60px;"">+</div>","null","html-keyboard-response","166","589566","0.0-8.0-0.27","fixation","","","","",""
"1905.039999999688","Stimuli/Hangul_M44.bmp","188","image-keyboard-response","167","591471","0.0-8.0-1.27","test",",","",",","",""
"null","<div style=""color:white; font-size:60px;"">+</div>","null","html-keyboard-response","168","592473","0.0-8.0-0.28","fixation","","","","",""
"1562.5550000005169","Stimuli/Hangul_M40.bmp","188","image-keyboard-response","169","594037","0.0-8.0-1.28","test",",","",",","",""
"null","<div style=""color:white; font-size:60px;"">+</div>","null","html-keyboard-response","170","595041","0.0-8.0-0.29","fixation","","","","",""
"1639.6299999996554","Stimuli/Hangul_F31.bmp","190","image-keyboard-response","171","596681","0.0-8.0-1.29","test",".","",".","",""
"null","<div style=""color:white; font-size:60px;"">+</div>","null","html-keyboard-response","172","597682","0.0-8.0-0.30","fixation","","","","",""
"2459.884999998496","Stimuli/Hangul_F48.bmp","190","image-keyboard-response","173","600142","0.0-8.0-1.30","test",".","",".","",""
"null","<div style=""color:white; font-size:60px;"">+</div>","null","html-keyboard-response","174","601145","0.0-8.0-0.31","fixation","","","","",""
"3901.1350000000093","Stimuli/Hangul_F25.bmp","190","image-keyboard-response","175","605047","0.0-8.0-1.31","test",".","",".","",""
"null","<div style=""color:white; font-size:60px;"">+</div>","null","html-keyboard-response","176","606049","0.0-8.0-0.32","fixation","","","","",""
"1746.6750000003958","Stimuli/Hangul_M36.bmp","190","image-keyboard-response","177","607797","0.0-8.0-1.32","test",",","",".","",""
"null","<div style=""color:white; font-size:60px;"">+</div>","null","html-keyboard-response","178","608801","0.0-8.0-0.33","fixation","","","","",""
"2231.375000001164","Stimuli/Hangul_F28.bmp","190","image-keyboard-response","179","611033","0.0-8.0-1.33","test",".","",".","",""
"null","<div style=""color:white; font-size:60px;"">+</div>","null","html-keyboard-response","180","612037","0.0-8.0-0.34","fixation","","","","",""
"1470.1299999996554","Stimuli/Hangul_F39.bmp","190","image-keyboard-response","181","613508","0.0-8.0-1.34","test",".","",".","",""
"null","<div style=""color:white; font-size:60px;"">+</div>","null","html-keyboard-response","182","614512","0.0-8.0-0.35","fixation","","","","",""
"2609.1750000014435","Stimuli/Hangul_M29.bmp","190","image-keyboard-response","183","617122","0.0-8.0-1.35","test",",","",".","",""
"null","<div style=""color:white; font-size:60px;"">+</div>","null","html-keyboard-response","184","618124","0.0-8.0-0.36","fixation","","","","",""
"2013.360000000801","Stimuli/Hangul_M46.bmp","188","image-keyboard-response","185","620138","0.0-8.0-1.36","test",",","",",","",""
"null","<div style=""color:white; font-size:60px;"">+</div>","null","html-keyboard-response","186","621140","0.0-8.0-0.37","fixation","","","","",""
"2131.934999999474","Stimuli/Hangul_F40.bmp","188","image-keyboard-response","187","623273","0.0-8.0-1.37","test",".","",",","",""
"null","<div style=""color:white; font-size:60px;"">+</div>","null","html-keyboard-response","188","624274","0.0-8.0-0.38","fixation","","","","",""
"2544.2099999982165","Stimuli/Hangul_F42.bmp","190","image-keyboard-response","189","626819","0.0-8.0-1.38","test",".","",".","",""
"null","<div style=""color:white; font-size:60px;"">+</div>","null","html-keyboard-response","190","627820","0.0-8.0-0.39","fixation","","","","",""
"2083.060000000871","Stimuli/Hangul_F27.bmp","188","image-keyboard-response","191","629903","0.0-8.0-1.39","test",".","",",","",""
"null","<div style=""color:white; font-size:60px;"">+</div>","null","html-keyboard-response","192","630908","0.0-8.0-0.40","fixation","","","","",""
"1919.669999999227","Stimuli/Hangul_M26.bmp","188","image-keyboard-response","193","632829","0.0-8.0-1.40","test",",","",",","",""
"null","<div style=""color:white; font-size:60px;"">+</div>","null","html-keyboard-response","194","633830","0.0-8.0-0.41","fixation","","","","",""
"2614.2500000004657","Stimuli/Hangul_M33.bmp","190","image-keyboard-response","195","636445","0.0-8.0-1.41","test",",","",".","",""
"null","<div style=""color:white; font-size:60px;"">+</div>","null","html-keyboard-response","196","637448","0.0-8.0-0.42","fixation","","","","",""
"1904.8299999994924","Stimuli/Hangul_M43.bmp","188","image-keyboard-response","197","639353","0.0-8.0-1.42","test",",","",",","",""
"null","<div style=""color:white; font-size:60px;"">+</div>","null","html-keyboard-response","198","640355","0.0-8.0-0.43","fixation","","","","",""
"2703.7800000016578","Stimuli/Hangul_F26.bmp","190","image-keyboard-response","199","643060","0.0-8.0-1.43","test",".","",".","",""
"null","<div style=""color:white; font-size:60px;"">+</div>","null","html-keyboard-response","200","644061","0.0-8.0-0.44","fixation","","","","",""
"2477.684999999823","Stimuli/Hangul_M35.bmp","190","image-keyboard-response","201","646539","0.0-8.0-1.44","test",",","",".","",""
"null","<div style=""color:white; font-size:60px;"">+</div>","null","html-keyboard-response","202","647543","0.0-8.0-0.45","fixation","","","","",""
"2120.675000000163","Stimuli/Hangul_F43.bmp","190","image-keyboard-response","203","649664","0.0-8.0-1.45","test",".","",".","",""
"null","<div style=""color:white; font-size:60px;"">+</div>","null","html-keyboard-response","204","650667","0.0-8.0-0.46","fixation","","","","",""
"2117.29999999993","Stimuli/Hangul_F45.bmp","190","image-keyboard-response","205","652785","0.0-8.0-1.46","test",".","",".","",""
"null","<div style=""color:white; font-size:60px;"">+</div>","null","html-keyboard-response","206","653787","0.0-8.0-0.47","fixation","","","","",""
"2117.570000000298","Stimuli/Hangul_M48.bmp","188","image-keyboard-response","207","655905","0.0-8.0-1.47","test",",","",",","",""
"null","<div style=""color:white; font-size:60px;"">+</div>","null","html-keyboard-response","208","656906","0.0-8.0-0.48","fixation","","","","",""
"2502.9999999987194","Stimuli/Hangul_F33.bmp","190","image-keyboard-response","209","659410","0.0-8.0-1.48","test",".","",".","",""
"null","<div style=""color:white; font-size:60px;"">+</div>","null","html-keyboard-response","210","660414","0.0-8.0-0.49","fixation","","","","",""
"1904.6450000006007","Stimuli/Hangul_F37.bmp","190","image-keyboard-response","211","662320","0.0-8.0-1.49","test",".","",".","",""
"14101.415000000969","<p style=""color:white;"">Half way there! Please take a moment to rest.</p> <p style=""color:white;"">When you are ready to continue with block 3 of 4, press the space bar.</p> ","32","html-keyboard-response","212","676421","0.0-9.0","","","","","",""
"null","<div style=""color:white; font-size:60px;"">+</div>","null","html-keyboard-response","213","679430","0.0-10.0-0.0","fixation","","","","",""
"1729.2999999991152","Stimuli/Hangul_M70.bmp","190","image-keyboard-response","214","681160","0.0-10.0-1.0","test",",","",".","",""
"null","<div style=""color:white; font-size:60px;"">+</div>","null","html-keyboard-response","215","682161","0.0-10.0-0.1","fixation","","","","",""
"1674.0799999989104","Stimuli/Hangul_F59.bmp","190","image-keyboard-response","216","683836","0.0-10.0-1.1","test",".","",".","",""
"null","<div style=""color:white; font-size:60px;"">+</div>","null","html-keyboard-response","217","684838","0.0-10.0-0.2","fixation","","","","",""
"1723.5250000011874","Stimuli/Hangul_F60.bmp","190","image-keyboard-response","218","686562","0.0-10.0-1.2","test",".","",".","",""
"null","<div style=""color:white; font-size:60px;"">+</div>","null","html-keyboard-response","219","687566","0.0-10.0-0.3","fixation","","","","",""
"1679.5849999999627","Stimuli/Hangul_M63.bmp","190","image-keyboard-response","220","689246","0.0-10.0-1.3","test",",","",".","",""
"null","<div style=""color:white; font-size:60px;"">+</div>","null","html-keyboard-response","221","690250","0.0-10.0-0.4","fixation","","","","",""
"1876.4200000005076","Stimuli/Hangul_F52.bmp","190","image-keyboard-response","222","692127","0.0-10.0-1.4","test",".","",".","",""
"null","<div style=""color:white; font-size:60px;"">+</div>","null","html-keyboard-response","223","693129","0.0-10.0-0.5","fixation","","","","",""
"1876.965000001248","Stimuli/Hangul_M55.bmp","190","image-keyboard-response","224","695007","0.0-10.0-1.5","test",",","",".","",""
"null","<div style=""color:white; font-size:60px;"">+</div>","null","html-keyboard-response","225","696007","0.0-10.0-0.6","fixation","","","","",""
"1866.1350000002421","Stimuli/Hangul_M53.bmp","190","image-keyboard-response","226","697874","0.0-10.0-1.6","test",",","",".","",""
"null","<div style=""color:white; font-size:60px;"">+</div>","null","html-keyboard-response","227","698877","0.0-10.0-0.7","fixation","","","","",""
"4409.265000000247","Stimuli/Hangul_F74.bmp","190","image-keyboard-response","228","703287","0.0-10.0-1.7","test",".","",".","",""
"null","<div style=""color:white; font-size:60px;"">+</div>","null","html-keyboard-response","229","704289","0.0-10.0-0.8","fixation","","","","",""
"1982.2199999998556","Stimuli/Hangul_F69.bmp","190","image-keyboard-response","230","706272","0.0-10.0-1.8","test",".","",".","",""
"null","<div style=""color:white; font-size:60px;"">+</div>","null","html-keyboard-response","231","707277","0.0-10.0-0.9","fixation","","","","",""
"3000.8450000004377","Stimuli/Hangul_M72.bmp","190","image-keyboard-response","232","710278","0.0-10.0-1.9","test",",","",".","",""
"null","<div style=""color:white; font-size:60px;"">+</div>","null","html-keyboard-response","233","711282","0.0-10.0-0.10","fixation","","","","",""
"2568.9250000014435","Stimuli/Hangul_M58.bmp","188","image-keyboard-response","234","713852","0.0-10.0-1.10","test",",","",",","",""
"null","<div style=""color:white; font-size:60px;"">+</div>","null","html-keyboard-response","235","714853","0.0-10.0-0.11","fixation","","","","",""
"2191.4450000004144","Stimuli/Hangul_M57.bmp","190","image-keyboard-response","236","717045","0.0-10.0-1.11","test",",","",".","",""
"null","<div style=""color:white; font-size:60px;"">+</div>","null","html-keyboard-response","237","718048","0.0-10.0-0.12","fixation","","","","",""
"1895.860000000568","Stimuli/Hangul_F54.bmp","190","image-keyboard-response","238","719945","0.0-10.0-1.12","test",".","",".","",""
"null","<div style=""color:white; font-size:60px;"">+</div>","null","html-keyboard-response","239","720948","0.0-10.0-0.13","fixation","","","","",""
"1739.8600000014994","Stimuli/Hangul_F66.bmp","190","image-keyboard-response","240","722689","0.0-10.0-1.13","test",".","",".","",""
"null","<div style=""color:white; font-size:60px;"">+</div>","null","html-keyboard-response","241","723694","0.0-10.0-0.14","fixation","","","","",""
"2378.994999999064","Stimuli/Hangul_F50.bmp","190","image-keyboard-response","242","726073","0.0-10.0-1.14","test",".","",".","",""
"null","<div style=""color:white; font-size:60px;"">+</div>","null","html-keyboard-response","243","727076","0.0-10.0-0.15","fixation","","","","",""
"1366.814999999362","Stimuli/Hangul_M61.bmp","188","image-keyboard-response","244","728443","0.0-10.0-1.15","test",",","",",","",""
"null","<div style=""color:white; font-size:60px;"">+</div>","null","html-keyboard-response","245","729447","0.0-10.0-0.16","fixation","","","","",""
"2418.004999999539","Stimuli/Hangul_M73.bmp","190","image-keyboard-response","246","731866","0.0-10.0-1.16","test",",","",".","",""
"null","<div style=""color:white; font-size:60px;"">+</div>","null","html-keyboard-response","247","732868","0.0-10.0-0.17","fixation","","","","",""
"1984.6049999996321","Stimuli/Hangul_M67.bmp","188","image-keyboard-response","248","734853","0.0-10.0-1.17","test",",","",",","",""
"null","<div style=""color:white; font-size:60px;"">+</div>","null","html-keyboard-response","249","735855","0.0-10.0-0.18","fixation","","","","",""
"2653.2700000006007","Stimuli/Hangul_F65.bmp","190","image-keyboard-response","250","738509","0.0-10.0-1.18","test",".","",".","",""
"null","<div style=""color:white; font-size:60px;"">+</div>","null","html-keyboard-response","251","739511","0.0-10.0-0.19","fixation","","","","",""
"5224.750000001281","Stimuli/Hangul_F72.bmp","190","image-keyboard-response","252","744737","0.0-10.0-1.19","test",".","",".","",""
"null","<div style=""color:white; font-size:60px;"">+</div>","null","html-keyboard-response","253","745739","0.0-10.0-0.20","fixation","","","","",""
"1710.0499999996973","Stimuli/Hangul_F62.bmp","190","image-keyboard-response","254","747450","0.0-10.0-1.20","test",".","",".","",""
"null","<div style=""color:white; font-size:60px;"">+</div>","null","html-keyboard-response","255","748452","0.0-10.0-0.21","fixation","","","","",""
"3182.4099999994505","Stimuli/Hangul_M50.bmp","188","image-keyboard-response","256","751634","0.0-10.0-1.21","test",",","",",","",""
"null","<div style=""color:white; font-size:60px;"">+</div>","null","html-keyboard-response","257","752636","0.0-10.0-0.22","fixation","","","","",""
"2627.7350000001024","Stimuli/Hangul_F68.bmp","190","image-keyboard-response","258","755265","0.0-10.0-1.22","test",".","",".","",""
"null","<div style=""color:white; font-size:60px;"">+</div>","null","html-keyboard-response","259","756267","0.0-10.0-0.23","fixation","","","","",""
"2777.019999999553","Stimuli/Hangul_M74.bmp","190","image-keyboard-response","260","759045","0.0-10.0-1.23","test",",","",".","",""
"null","<div style=""color:white; font-size:60px;"">+</div>","null","html-keyboard-response","261","760047","0.0-10.0-0.24","fixation","","","","",""
"3727.2999999986496","Stimuli/Hangul_F63.bmp","188","image-keyboard-response","262","763775","0.0-10.0-1.24","test",".","",",","",""
"null","<div style=""color:white; font-size:60px;"">+</div>","null","html-keyboard-response","263","764778","0.0-10.0-0.25","fixation","","","","",""
"6507.299999999348","Stimuli/Hangul_F71.bmp","188","image-keyboard-response","264","771286","0.0-10.0-1.25","test",".","",",","",""
"null","<div style=""color:white; font-size:60px;"">+</div>","null","html-keyboard-response","265","772290","0.0-10.0-0.26","fixation","","","","",""
"1474.6649999998044","Stimuli/Hangul_M51.bmp","190","image-keyboard-response","266","773766","0.0-10.0-1.26","test",",","",".","",""
"null","<div style=""color:white; font-size:60px;"">+</div>","null","html-keyboard-response","267","774767","0.0-10.0-0.27","fixation","","","","",""
"2397.539999999921","Stimuli/Hangul_F70.bmp","190","image-keyboard-response","268","777165","0.0-10.0-1.27","test",".","",".","",""
"null","<div style=""color:white; font-size:60px;"">+</div>","null","html-keyboard-response","269","778169","0.0-10.0-0.28","fixation","","","","",""
"2295.7699999988545","Stimuli/Hangul_M62.bmp","190","image-keyboard-response","270","780466","0.0-10.0-1.28","test",",","",".","",""
"null","<div style=""color:white; font-size:60px;"">+</div>","null","html-keyboard-response","271","781466","0.0-10.0-0.29","fixation","","","","",""
"1969.784999999334","Stimuli/Hangul_F57.bmp","190","image-keyboard-response","272","783437","0.0-10.0-1.29","test",".","",".","",""
"null","<div style=""color:white; font-size:60px;"">+</div>","null","html-keyboard-response","273","784438","0.0-10.0-0.30","fixation","","","","",""
"2410.22500000149","Stimuli/Hangul_F56.bmp","190","image-keyboard-response","274","786849","0.0-10.0-1.30","test",".","",".","",""
"null","<div style=""color:white; font-size:60px;"">+</div>","null","html-keyboard-response","275","787854","0.0-10.0-0.31","fixation","","","","",""
"2151.5349999991013","Stimuli/Hangul_F61.bmp","190","image-keyboard-response","276","790006","0.0-10.0-1.31","test",".","",".","",""
"null","<div style=""color:white; font-size:60px;"">+</div>","null","html-keyboard-response","277","791009","0.0-10.0-0.32","fixation","","","","",""
"1426.5049999994226","Stimuli/Hangul_F67.bmp","188","image-keyboard-response","278","792437","0.0-10.0-1.32","test",".","",",","",""
"null","<div style=""color:white; font-size:60px;"">+</div>","null","html-keyboard-response","279","793442","0.0-10.0-0.33","fixation","","","","",""
"2255.214999999269","Stimuli/Hangul_M69.bmp","190","image-keyboard-response","280","795697","0.0-10.0-1.33","test",",","",".","",""
"null","<div style=""color:white; font-size:60px;"">+</div>","null","html-keyboard-response","281","796701","0.0-10.0-0.34","fixation","","","","",""
"1765.7099999996135","Stimuli/Hangul_M56.bmp","190","image-keyboard-response","282","798467","0.0-10.0-1.34","test",",","",".","",""
"null","<div style=""color:white; font-size:60px;"">+</div>","null","html-keyboard-response","283","799469","0.0-10.0-0.35","fixation","","","","",""
"3692.1449999990873","Stimuli/Hangul_F73.bmp","190","image-keyboard-response","284","803162","0.0-10.0-1.35","test",".","",".","",""
"null","<div style=""color:white; font-size:60px;"">+</div>","null","html-keyboard-response","285","804165","0.0-10.0-0.36","fixation","","","","",""
"3016.669999998994","Stimuli/Hangul_M64.bmp","188","image-keyboard-response","286","807182","0.0-10.0-1.36","test",",","",",","",""
"null","<div style=""color:white; font-size:60px;"">+</div>","null","html-keyboard-response","287","808185","0.0-10.0-0.37","fixation","","","","",""
"1906.6050000002142","Stimuli/Hangul_M59.bmp","188","image-keyboard-response","288","810093","0.0-10.0-1.37","test",",","",",","",""
"null","<div style=""color:white; font-size:60px;"">+</div>","null","html-keyboard-response","289","811095","0.0-10.0-0.38","fixation","","","","",""
"2446.850000000326","Stimuli/Hangul_F53.bmp","188","image-keyboard-response","290","813542","0.0-10.0-1.38","test",".","",",","",""
"null","<div style=""color:white; font-size:60px;"">+</div>","null","html-keyboard-response","291","814544","0.0-10.0-0.39","fixation","","","","",""
"3423.630000001169","Stimuli/Hangul_M65.bmp","190","image-keyboard-response","292","817968","0.0-10.0-1.39","test",",","",".","",""
"null","<div style=""color:white; font-size:60px;"">+</div>","null","html-keyboard-response","293","818969","0.0-10.0-0.40","fixation","","","","",""
"3243.2050000006566","Stimuli/Hangul_M54.bmp","188","image-keyboard-response","294","822213","0.0-10.0-1.40","test",",","",",","",""
"null","<div style=""color:white; font-size:60px;"">+</div>","null","html-keyboard-response","295","823216","0.0-10.0-0.41","fixation","","","","",""
"4081.009999999893","Stimuli/Hangul_M52.bmp","188","image-keyboard-response","296","827298","0.0-10.0-1.41","test",",","",",","",""
"null","<div style=""color:white; font-size:60px;"">+</div>","null","html-keyboard-response","297","828299","0.0-10.0-0.42","fixation","","","","",""
"4713.975000000559","Stimuli/Hangul_F64.bmp","188","image-keyboard-response","298","833014","0.0-10.0-1.42","test",".","",",","",""
"null","<div style=""color:white; font-size:60px;"">+</div>","null","html-keyboard-response","299","834016","0.0-10.0-0.43","fixation","","","","",""
"2662.5600000007544","Stimuli/Hangul_M71.bmp","188","image-keyboard-response","300","836679","0.0-10.0-1.43","test",",","",",","",""
"null","<div style=""color:white; font-size:60px;"">+</div>","null","html-keyboard-response","301","837682","0.0-10.0-0.44","fixation","","","","",""
"1871.1849999999395","Stimuli/Hangul_F58.bmp","190","image-keyboard-response","302","839554","0.0-10.0-1.44","test",".","",".","",""
"null","<div style=""color:white; font-size:60px;"">+</div>","null","html-keyboard-response","303","840556","0.0-10.0-0.45","fixation","","","","",""
"5042.989999999991","Stimuli/Hangul_F55.bmp","188","image-keyboard-response","304","845599","0.0-10.0-1.45","test",".","",",","",""
"null","<div style=""color:white; font-size:60px;"">+</div>","null","html-keyboard-response","305","846603","0.0-10.0-0.46","fixation","","","","",""
"2625.3099999993574","Stimuli/Hangul_F51.bmp","188","image-keyboard-response","306","849229","0.0-10.0-1.46","test",".","",",","",""
"null","<div style=""color:white; font-size:60px;"">+</div>","null","html-keyboard-response","307","850231","0.0-10.0-0.47","fixation","","","","",""
"2513.9749999998603","Stimuli/Hangul_M68.bmp","190","image-keyboard-response","308","852745","0.0-10.0-1.47","test",",","",".","",""
"null","<div style=""color:white; font-size:60px;"">+</div>","null","html-keyboard-response","309","853747","0.0-10.0-0.48","fixation","","","","",""
"1953.059999999823","Stimuli/Hangul_M60.bmp","188","image-keyboard-response","310","855701","0.0-10.0-1.48","test",",","",",","",""
"null","<div style=""color:white; font-size:60px;"">+</div>","null","html-keyboard-response","311","856703","0.0-10.0-0.49","fixation","","","","",""
"2115.599999999162","Stimuli/Hangul_M66.bmp","190","image-keyboard-response","312","858819","0.0-10.0-1.49","test",",","",".","",""
"10166.464999998454","<p style=""color:white;"">One more block to go! Please take a moment to rest.</p> <p style=""color:white;"">When you are ready to continue with block 4 of 4, press the space bar.</p> ","32","html-keyboard-response","313","868986","0.0-11.0","","","","","",""
"null","<div style=""color:white; font-size:60px;"">+</div>","null","html-keyboard-response","314","871990","0.0-12.0-0.0","fixation","","","","",""
"1874.0949999992736","Stimuli/Hangul_M89.bmp","188","image-keyboard-response","315","873865","0.0-12.0-1.0","test",",","",",","",""
"null","<div style=""color:white; font-size:60px;"">+</div>","null","html-keyboard-response","316","874870","0.0-12.0-0.1","fixation","","","","",""
"2940.329999999376","Stimuli/Hangul_F86.bmp","190","image-keyboard-response","317","877811","0.0-12.0-1.1","test",".","",".","",""
"null","<div style=""color:white; font-size:60px;"">+</div>","null","html-keyboard-response","318","878811","0.0-12.0-0.2","fixation","","","","",""
"1879.654999998631","Stimuli/Hangul_F93.bmp","190","image-keyboard-response","319","880692","0.0-12.0-1.2","test",".","",".","",""
"null","<div style=""color:white; font-size:60px;"">+</div>","null","html-keyboard-response","320","881694","0.0-12.0-0.3","fixation","","","","",""
"2057.5399999998044","Stimuli/Hangul_M95.bmp","188","image-keyboard-response","321","883752","0.0-12.0-1.3","test",",","",",","",""
"null","<div style=""color:white; font-size:60px;"">+</div>","null","html-keyboard-response","322","884754","0.0-12.0-0.4","fixation","","","","",""
"3252.200000000652","Stimuli/Hangul_M83.bmp","188","image-keyboard-response","323","888007","0.0-12.0-1.4","test",",","",",","",""
"null","<div style=""color:white; font-size:60px;"">+</div>","null","html-keyboard-response","324","889008","0.0-12.0-0.5","fixation","","","","",""
"2372.470000000205","Stimuli/Hangul_F95.bmp","190","image-keyboard-response","325","891381","0.0-12.0-1.5","test",".","",".","",""
"null","<div style=""color:white; font-size:60px;"">+</div>","null","html-keyboard-response","326","892384","0.0-12.0-0.6","fixation","","","","",""
"2553.3400000003166","Stimuli/Hangul_M87.bmp","190","image-keyboard-response","327","894938","0.0-12.0-1.6","test",",","",".","",""
"null","<div style=""color:white; font-size:60px;"">+</div>","null","html-keyboard-response","328","895941","0.0-12.0-0.7","fixation","","","","",""
"1966.9199999989942","Stimuli/Hangul_M81.bmp","188","image-keyboard-response","329","897909","0.0-12.0-1.7","test",",","",",","",""
"null","<div style=""color:white; font-size:60px;"">+</div>","null","html-keyboard-response","330","898913","0.0-12.0-0.8","fixation","","","","",""
"2278.250000001397","Stimuli/Hangul_M78.bmp","188","image-keyboard-response","331","901192","0.0-12.0-1.8","test",",","",",","",""
"null","<div style=""color:white; font-size:60px;"">+</div>","null","html-keyboard-response","332","902193","0.0-12.0-0.9","fixation","","","","",""
"3242.8899999996647","Stimuli/Hangul_F78.bmp","190","image-keyboard-response","333","905437","0.0-12.0-1.9","test",".","",".","",""
"null","<div style=""color:white; font-size:60px;"">+</div>","null","html-keyboard-response","334","906441","0.0-12.0-0.10","fixation","","","","",""
"6105.279999999795","Stimuli/Hangul_F87.bmp","190","image-keyboard-response","335","912548","0.0-12.0-1.10","test",".","",".","",""
"null","<div style=""color:white; font-size:60px;"">+</div>","null","html-keyboard-response","336","913551","0.0-12.0-0.11","fixation","","","","",""
"1366.350000000326","Stimuli/Hangul_M84.bmp","190","image-keyboard-response","337","914918","0.0-12.0-1.11","test",",","",".","",""
"null","<div style=""color:white; font-size:60px;"">+</div>","null","html-keyboard-response","338","915918","0.0-12.0-0.12","fixation","","","","",""
"2659.020000001183","Stimuli/Hangul_F90.bmp","188","image-keyboard-response","339","918578","0.0-12.0-1.12","test",".","",",","",""
"null","<div style=""color:white; font-size:60px;"">+</div>","null","html-keyboard-response","340","919580","0.0-12.0-0.13","fixation","","","","",""
"2288.4899999990594","Stimuli/Hangul_M97.bmp","188","image-keyboard-response","341","921869","0.0-12.0-1.13","test",",","",",","",""
"null","<div style=""color:white; font-size:60px;"">+</div>","null","html-keyboard-response","342","922871","0.0-12.0-0.14","fixation","","","","",""
"1496.0699999991339","Stimuli/Hangul_M76.bmp","190","image-keyboard-response","343","924368","0.0-12.0-1.14","test",",","",".","",""
"null","<div style=""color:white; font-size:60px;"">+</div>","null","html-keyboard-response","344","925369","0.0-12.0-0.15","fixation","","","","",""
"2914.094999999972","Stimuli/Hangul_M82.bmp","188","image-keyboard-response","345","928284","0.0-12.0-1.15","test",",","",",","",""
"null","<div style=""color:white; font-size:60px;"">+</div>","null","html-keyboard-response","346","929287","0.0-12.0-0.16","fixation","","","","",""
"2881.8100000007544","Stimuli/Hangul_F89.bmp","188","image-keyboard-response","347","932169","0.0-12.0-1.16","test",".","",",","",""
"null","<div style=""color:white; font-size:60px;"">+</div>","null","html-keyboard-response","348","933171","0.0-12.0-0.17","fixation","","","","",""
"2432.154999998631","Stimuli/Hangul_M86.bmp","188","image-keyboard-response","349","935604","0.0-12.0-1.17","test",",","",",","",""
"null","<div style=""color:white; font-size:60px;"">+</div>","null","html-keyboard-response","350","936606","0.0-12.0-0.18","fixation","","","","",""
"3112.2649999996647","Stimuli/Hangul_F91.bmp","190","image-keyboard-response","351","939719","0.0-12.0-1.18","test",".","",".","",""
"null","<div style=""color:white; font-size:60px;"">+</div>","null","html-keyboard-response","352","940719","0.0-12.0-0.19","fixation","","","","",""
"2015.4349999993574","Stimuli/Hangul_M88.bmp","188","image-keyboard-response","353","942736","0.0-12.0-1.19","test",",","",",","",""
"null","<div style=""color:white; font-size:60px;"">+</div>","null","html-keyboard-response","354","943738","0.0-12.0-0.20","fixation","","","","",""
"4885.610000001034","Stimuli/Hangul_F82.bmp","188","image-keyboard-response","355","948624","0.0-12.0-1.20","test",".","",",","",""
"null","<div style=""color:white; font-size:60px;"">+</div>","null","html-keyboard-response","356","949627","0.0-12.0-0.21","fixation","","","","",""
"2806.860000000568","Stimuli/Hangul_F79.bmp","190","image-keyboard-response","357","952435","0.0-12.0-1.21","test",".","",".","",""
"null","<div style=""color:white; font-size:60px;"">+</div>","null","html-keyboard-response","358","953439","0.0-12.0-0.22","fixation","","","","",""
"4606.034999998752","Stimuli/Hangul_F85.bmp","190","image-keyboard-response","359","958045","0.0-12.0-1.22","test",".","",".","",""
"null","<div style=""color:white; font-size:60px;"">+</div>","null","html-keyboard-response","360","959047","0.0-12.0-0.23","fixation","","","","",""
"1717.5200000000186","Stimuli/Hangul_M93.bmp","190","image-keyboard-response","361","960765","0.0-12.0-1.23","test",",","",".","",""
"null","<div style=""color:white; font-size:60px;"">+</div>","null","html-keyboard-response","362","961766","0.0-12.0-0.24","fixation","","","","",""
"2324.109999999637","Stimuli/Hangul_M96.bmp","188","image-keyboard-response","363","964090","0.0-12.0-1.24","test",",","",",","",""
"null","<div style=""color:white; font-size:60px;"">+</div>","null","html-keyboard-response","364","965093","0.0-12.0-0.25","fixation","","","","",""
"1501.4749999991618","Stimuli/Hangul_M85.bmp","188","image-keyboard-response","365","966595","0.0-12.0-1.25","test",",","",",","",""
"null","<div style=""color:white; font-size:60px;"">+</div>","null","html-keyboard-response","366","967598","0.0-12.0-0.26","fixation","","","","",""
"3482.824999999022","Stimuli/Hangul_F92.bmp","190","image-keyboard-response","367","971081","0.0-12.0-1.26","test",".","",".","",""
"null","<div style=""color:white; font-size:60px;"">+</div>","null","html-keyboard-response","368","972082","0.0-12.0-0.27","fixation","","","","",""
"1982.804999999702","Stimuli/Hangul_M94.bmp","188","image-keyboard-response","369","974066","0.0-12.0-1.27","test",",","",",","",""
"null","<div style=""color:white; font-size:60px;"">+</div>","null","html-keyboard-response","370","975069","0.0-12.0-0.28","fixation","","","","",""
"1684.6149999999907","Stimuli/Hangul_M92.bmp","188","image-keyboard-response","371","976754","0.0-12.0-1.28","test",",","",",","",""
"null","<div style=""color:white; font-size:60px;"">+</div>","null","html-keyboard-response","372","977758","0.0-12.0-0.29","fixation","","","","",""
"3132.595000001136","Stimuli/Hangul_F88.bmp","190","image-keyboard-response","373","980891","0.0-12.0-1.29","test",".","",".","",""
"null","<div style=""color:white; font-size:60px;"">+</div>","null","html-keyboard-response","374","981892","0.0-12.0-0.30","fixation","","","","",""
"2642.8900000010617","Stimuli/Hangul_F80.bmp","190","image-keyboard-response","375","984536","0.0-12.0-1.30","test",".","",".","",""
"null","<div style=""color:white; font-size:60px;"">+</div>","null","html-keyboard-response","376","985537","0.0-12.0-0.31","fixation","","","","",""
"1773.0599999995902","Stimuli/Hangul_F76.bmp","190","image-keyboard-response","377","987311","0.0-12.0-1.31","test",".","",".","",""
"null","<div style=""color:white; font-size:60px;"">+</div>","null","html-keyboard-response","378","988316","0.0-12.0-0.32","fixation","","","","",""
"2234.485000000801","Stimuli/Hangul_M91.bmp","188","image-keyboard-response","379","990551","0.0-12.0-1.32","test",",","",",","",""
"null","<div style=""color:white; font-size:60px;"">+</div>","null","html-keyboard-response","380","991553","0.0-12.0-0.33","fixation","","","","",""
"3077.994999999646","Stimuli/Hangul_F98.bmp","188","image-keyboard-response","381","994632","0.0-12.0-1.33","test",".","",",","",""
"null","<div style=""color:white; font-size:60px;"">+</div>","null","html-keyboard-response","382","995636","0.0-12.0-0.34","fixation","","","","",""
"1349.524999999674","Stimuli/Hangul_F99.bmp","188","image-keyboard-response","383","996987","0.0-12.0-1.34","test",".","",",","",""
"null","<div style=""color:white; font-size:60px;"">+</div>","null","html-keyboard-response","384","997989","0.0-12.0-0.35","fixation","","","","",""
"2842.9799999995157","Stimuli/Hangul_M80.bmp","188","image-keyboard-response","385","1000833","0.0-12.0-1.35","test",",","",",","",""
"null","<div style=""color:white; font-size:60px;"">+</div>","null","html-keyboard-response","386","1001834","0.0-12.0-0.36","fixation","","","","",""
"1707.1899999992456","Stimuli/Hangul_M90.bmp","188","image-keyboard-response","387","1003542","0.0-12.0-1.36","test",",","",",","",""
"null","<div style=""color:white; font-size:60px;"">+</div>","null","html-keyboard-response","388","1004543","0.0-12.0-0.37","fixation","","","","",""
"1999.3300000005402","Stimuli/Hangul_F83.bmp","190","image-keyboard-response","389","1006543","0.0-12.0-1.37","test",".","",".","",""
"null","<div style=""color:white; font-size:60px;"">+</div>","null","html-keyboard-response","390","1007544","0.0-12.0-0.38","fixation","","","","",""
"3032.23000000068","Stimuli/Hangul_M98.bmp","190","image-keyboard-response","391","1010577","0.0-12.0-1.38","test",",","",".","",""
"null","<div style=""color:white; font-size:60px;"">+</div>","null","html-keyboard-response","392","1011580","0.0-12.0-0.39","fixation","","","","",""
"1831.47999999905","Stimuli/Hangul_F96.bmp","190","image-keyboard-response","393","1013413","0.0-12.0-1.39","test",".","",".","",""
"null","<div style=""color:white; font-size:60px;"">+</div>","null","html-keyboard-response","394","1014415","0.0-12.0-0.40","fixation","","","","",""
"1862.3700000008103","Stimuli/Hangul_F81.bmp","190","image-keyboard-response","395","1016277","0.0-12.0-1.40","test",".","",".","",""
"null","<div style=""color:white; font-size:60px;"">+</div>","null","html-keyboard-response","396","1017278","0.0-12.0-0.41","fixation","","","","",""
"1699.7849999989849","Stimuli/Hangul_F84.bmp","190","image-keyboard-response","397","1018979","0.0-12.0-1.41","test",".","",".","",""
"null","<div style=""color:white; font-size:60px;"">+</div>","null","html-keyboard-response","398","1019980","0.0-12.0-0.42","fixation","","","","",""
"1908.0599999995902","Stimuli/Hangul_F77.bmp","190","image-keyboard-response","399","1021889","0.0-12.0-1.42","test",".","",".","",""
"null","<div style=""color:white; font-size:60px;"">+</div>","null","html-keyboard-response","400","1022892","0.0-12.0-0.43","fixation","","","","",""
"1220.9549999989104","Stimuli/Hangul_F75.bmp","190","image-keyboard-response","401","1024113","0.0-12.0-1.43","test",".","",".","",""
"null","<div style=""color:white; font-size:60px;"">+</div>","null","html-keyboard-response","402","1025115","0.0-12.0-0.44","fixation","","","","",""
"1741.6699999994598","Stimuli/Hangul_M99.bmp","188","image-keyboard-response","403","1026858","0.0-12.0-1.44","test",",","",",","",""
"null","<div style=""color:white; font-size:60px;"">+</div>","null","html-keyboard-response","404","1027860","0.0-12.0-0.45","fixation","","","","",""
"3313.4649999991525","Stimuli/Hangul_M75.bmp","190","image-keyboard-response","405","1031174","0.0-12.0-1.45","test",",","",".","",""
"null","<div style=""color:white; font-size:60px;"">+</div>","null","html-keyboard-response","406","1032179","0.0-12.0-0.46","fixation","","","","",""
"1798.0399999995716","Stimuli/Hangul_M79.bmp","188","image-keyboard-response","407","1033978","0.0-12.0-1.46","test",",","",",","",""
"null","<div style=""color:white; font-size:60px;"">+</div>","null","html-keyboard-response","408","1034979","0.0-12.0-0.47","fixation","","","","",""
"1444.2699999997858","Stimuli/Hangul_F94.bmp","190","image-keyboard-response","409","1036424","0.0-12.0-1.47","test",".","",".","",""
"null","<div style=""color:white; font-size:60px;"">+</div>","null","html-keyboard-response","410","1037427","0.0-12.0-0.48","fixation","","","","",""
"2010.985000000801","Stimuli/Hangul_F97.bmp","190","image-keyboard-response","411","1039439","0.0-12.0-1.48","test",".","",".","",""
"null","<div style=""color:white; font-size:60px;"">+</div>","null","html-keyboard-response","412","1040443","0.0-12.0-0.49","fixation","","","","",""
"2130.494999999646","Stimuli/Hangul_M77.bmp","188","image-keyboard-response","413","1042574","0.0-12.0-1.49","test",",","",",","",""
"2564.899999999441","<p style=""color:white;"">Phase I of the experiment is complete.</p> <p style=""color:white;"">Press the space bar to proceed to Phase II of the experiment.</p> ","32","html-keyboard-response","414","1045139","0.0-13.0","","","","","",""
"34738.57500000135","<p style=""color:white;"">Now we are interested in how well you can predict patterns in the series of figures. You will be asked to predict whether the next figure in the series is more male-like or female-like. When you see the <q>Next Figure</q> prompt, press the corresponding response keys to indicate your prediction: </p><p style=""color:white;""> Male &#8594 <q>,</q> (comma)</p><p style=""color:white;""> Female &#8594 <q>.</q> (period)</p><p style=""color:white;"">The actual figure will then appear on the screen. After you see the figure, please guess the assigned gender with response keys. </p><p style=""color:white;"">As before, you will receive 2 cents for correctly classifying each figure.</p><p style=""color:white;"">Press either response keys to continue.</p>","190","html-keyboard-response","415","1081881","0.0-14.0","","","","","",""
"11381.40000000014","<p style=""color:white;"">PREDICTION BONUS</p> <p style=""color:white;"">Your prediction accuracy is the total number of correct predictions you make over the 200 trials.</p> <p style=""color:white;"">In addition to the 2 cents per correct figure classification, you have the chance to receive a bonus of 40 dollars IF your accuracy is above average relative to previous participants.</p><p style=""color:white;"">If your accuracy is below average relative to previous participants, then you will not receive the 40 dollar bonus.</p><p style=""color:white;"">Press the space bar to continue.</p>","32","html-keyboard-response","416","1093263","0.0-15.0","","","","","",""
"6618.575000000419","<p style=""color:white;"">Here are some examples.</p> <p style=""color:white;"">For each, predict whether the next figure looks more male-like or female-like. Then, when the figure appears, guess whether it looks more male-like or female-like and indicate your choice.</p> <p style=""color:white;"">Press the space bar to continue.</p>","32","html-keyboard-response","417","1099881","0.0-16.0","","","","","",""
"3122.14499999932","<p style=""color:white;""> Next Figure: Male or Female? </p>","188","html-keyboard-response","418","1105008","0.0-17.0-0.0","prediction_train","","","",",",""
"null","<div style=""color:white; font-size:60px;"">+</div>","null","html-keyboard-response","419","1106009","0.0-17.0-1.0","fixation","","","","",""
"4173.130000001052","Stimuli/Hangul_E2.bmp","188","image-keyboard-response","420","1110183","0.0-17.0-2.0","c2_train",".","","","",","
"2188.8450000004377","<p style=""color:white;""> Next Figure: Male or Female? </p>","190","html-keyboard-response","421","1112372","0.0-17.0-0.1","prediction_train","","","",".",""
"null","<div style=""color:white; font-size:60px;"">+</div>","null","html-keyboard-response","422","1113376","0.0-17.0-1.1","fixation","","","","",""
"1891.5699999995995","Stimuli/Hangul_E0.bmp","188","image-keyboard-response","423","1115268","0.0-17.0-2.1","c2_train",",","","","",","
"2279.1750000014435","<p style=""color:white;""> Next Figure: Male or Female? </p>","188","html-keyboard-response","424","1117548","0.0-17.0-0.2","prediction_train","","","",",",""
"null","<div style=""color:white; font-size:60px;"">+</div>","null","html-keyboard-response","425","1118552","0.0-17.0-1.2","fixation","","","","",""
"2865.3699999994133","Stimuli/Hangul_E1.bmp","190","image-keyboard-response","426","1121418","0.0-17.0-2.2","c2_train",",","","","","."
"3291.2900000012014","<p style=""color:white;"">Let us begin! Press the space bar when you are ready to start block 1 of 4.</p> ","32","html-keyboard-response","427","1124710","0.0-18.0","","","","","",""
"1712.0700000014622","<p style=""color:white;""> Next Figure: Male or Female? </p>","188","html-keyboard-response","428","1128424","0.0-19.0-0.0","prediction","","","",",",""
"null","<div style=""color:white; font-size:60px;"">+</div>","null","html-keyboard-response","429","1129427","0.0-19.0-1.0","fixation","","","","",""
"2212.234999999171","Stimuli/Hangul_F12.bmp","188","image-keyboard-response","430","1131640","0.0-19.0-2.0","c2_test",".","","","",","
"1808.3200000000652","<p style=""color:white;""> Next Figure: Male or Female? </p>","188","html-keyboard-response","431","1133449","0.0-19.0-0.1","prediction","","","",",",""
"null","<div style=""color:white; font-size:60px;"">+</div>","null","html-keyboard-response","432","1134450","0.0-19.0-1.1","fixation","","","","",""
"2423.069999998901","Stimuli/Hangul_M8.bmp","188","image-keyboard-response","433","1136874","0.0-19.0-2.1","c2_test",",","","","",","
"2560.980000000214","<p style=""color:white;""> Next Figure: Male or Female? </p>","190","html-keyboard-response","434","1139435","0.0-19.0-0.2","prediction","","","",".",""
"null","<div style=""color:white; font-size:60px;"">+</div>","null","html-keyboard-response","435","1140438","0.0-19.0-1.2","fixation","","","","",""
"3120.134999999311","Stimuli/Hangul_F1.bmp","190","image-keyboard-response","436","1143559","0.0-19.0-2.2","c2_test",".","","","","."
"2610.0200000000186","<p style=""color:white;""> Next Figure: Male or Female? </p>","188","html-keyboard-response","437","1146169","0.0-19.0-0.3","prediction","","","",",",""
"null","<div style=""color:white; font-size:60px;"">+</div>","null","html-keyboard-response","438","1147171","0.0-19.0-1.3","fixation","","","","",""
"2559.6150000002235","Stimuli/Hangul_F21.bmp","188","image-keyboard-response","439","1149731","0.0-19.0-2.3","c2_test",".","","","",","
"1962.9850000001024","<p style=""color:white;""> Next Figure: Male or Female? </p>","188","html-keyboard-response","440","1151694","0.0-19.0-0.4","prediction","","","",",",""
"null","<div style=""color:white; font-size:60px;"">+</div>","null","html-keyboard-response","441","1152698","0.0-19.0-1.4","fixation","","","","",""
"1996.9149999998044","Stimuli/Hangul_F9.bmp","188","image-keyboard-response","442","1154696","0.0-19.0-2.4","c2_test",".","","","",","
"1193.605000000447","<p style=""color:white;""> Next Figure: Male or Female? </p>","188","html-keyboard-response","443","1155890","0.0-19.0-0.5","prediction","","","",",",""
"null","<div style=""color:white; font-size:60px;"">+</div>","null","html-keyboard-response","444","1156891","0.0-19.0-1.5","fixation","","","","",""
"2033.04000000027","Stimuli/Hangul_M22.bmp","188","image-keyboard-response","445","1158924","0.0-19.0-2.5","c2_test",",","","","",","
"2365.91500000027","<p style=""color:white;""> Next Figure: Male or Female? </p>","190","html-keyboard-response","446","1161291","0.0-19.0-0.6","prediction","","","",".",""
"null","<div style=""color:white; font-size:60px;"">+</div>","null","html-keyboard-response","447","1162294","0.0-19.0-1.6","fixation","","","","",""
"1951.2950000008568","Stimuli/Hangul_M15.bmp","188","image-keyboard-response","448","1164246","0.0-19.0-2.6","c2_test",",","","","",","
"2449.6500000003725","<p style=""color:white;""> Next Figure: Male or Female? </p>","188","html-keyboard-response","449","1166696","0.0-19.0-0.7","prediction","","","",",",""
"null","<div style=""color:white; font-size:60px;"">+</div>","null","html-keyboard-response","450","1167697","0.0-19.0-1.7","fixation","","","","",""
"1842.744999999879","Stimuli/Hangul_F13.bmp","188","image-keyboard-response","451","1169541","0.0-19.0-2.7","c2_test",".","","","",","
"1214.3650000016205","<p style=""color:white;""> Next Figure: Male or Female? </p>","188","html-keyboard-response","452","1170755","0.0-19.0-0.8","prediction","","","",",",""
"null","<div style=""color:white; font-size:60px;"">+</div>","null","html-keyboard-response","453","1171757","0.0-19.0-1.8","fixation","","","","",""
"2183.7099999992643","Stimuli/Hangul_M13.bmp","188","image-keyboard-response","454","1173941","0.0-19.0-2.8","c2_test",",","","","",","
"999.2250000012573","<p style=""color:white;""> Next Figure: Male or Female? </p>","188","html-keyboard-response","455","1174941","0.0-19.0-0.9","prediction","","","",",",""
"null","<div style=""color:white; font-size:60px;"">+</div>","null","html-keyboard-response","456","1175942","0.0-19.0-1.9","fixation","","","","",""
"1998.8350000001956","Stimuli/Hangul_M9.bmp","188","image-keyboard-response","457","1177941","0.0-19.0-2.9","c2_test",",","","","",","
"929.1599999996834","<p style=""color:white;""> Next Figure: Male or Female? </p>","188","html-keyboard-response","458","1178871","0.0-19.0-0.10","prediction","","","",",",""
"null","<div style=""color:white; font-size:60px;"">+</div>","null","html-keyboard-response","459","1179873","0.0-19.0-1.10","fixation","","","","",""
"2387.7350000003353","Stimuli/Hangul_M20.bmp","188","image-keyboard-response","460","1182261","0.0-19.0-2.10","c2_test",",","","","",","
"929.2299999997485","<p style=""color:white;""> Next Figure: Male or Female? </p>","188","html-keyboard-response","461","1183191","0.0-19.0-0.11","prediction","","","",",",""
"null","<div style=""color:white; font-size:60px;"">+</div>","null","html-keyboard-response","462","1184193","0.0-19.0-1.11","fixation","","","","",""
"1598.8550000002142","Stimuli/Hangul_F22.bmp","188","image-keyboard-response","463","1185793","0.0-19.0-2.11","c2_test",".","","","",","
"1313.6499999999069","<p style=""color:white;""> Next Figure: Male or Female? </p>","188","html-keyboard-response","464","1187107","0.0-19.0-0.12","prediction","","","",",",""
"null","<div style=""color:white; font-size:60px;"">+</div>","null","html-keyboard-response","465","1188109","0.0-19.0-1.12","fixation","","","","",""
"2942.4799999997485","Stimuli/Hangul_F0.bmp","190","image-keyboard-response","466","1191052","0.0-19.0-2.12","c2_test",".","","","","."
"3389.9450000007637","<p style=""color:white;""> Next Figure: Male or Female? </p>","190","html-keyboard-response","467","1194442","0.0-19.0-0.13","prediction","","","",".",""
"null","<div style=""color:white; font-size:60px;"">+</div>","null","html-keyboard-response","468","1195444","0.0-19.0-1.13","fixation","","","","",""
"1610.6550000004936","Stimuli/Hangul_M24.bmp","188","image-keyboard-response","469","1197056","0.0-19.0-2.13","c2_test",",","","","",","
"969.8399999996182","<p style=""color:white;""> Next Figure: Male or Female? </p>","188","html-keyboard-response","470","1198027","0.0-19.0-0.14","prediction","","","",",",""
"null","<div style=""color:white; font-size:60px;"">+</div>","null","html-keyboard-response","471","1199029","0.0-19.0-1.14","fixation","","","","",""
"3587.8150000006426","Stimuli/Hangul_M19.bmp","190","image-keyboard-response","472","1202617","0.0-19.0-2.14","c2_test",",","","","","."
"2114.9500000008848","<p style=""color:white;""> Next Figure: Male or Female? </p>","190","html-keyboard-response","473","1204732","0.0-19.0-0.15","prediction","","","",".",""
"null","<div style=""color:white; font-size:60px;"">+</div>","null","html-keyboard-response","474","1205737","0.0-19.0-1.15","fixation","","","","",""
"2220.704999999609","Stimuli/Hangul_F18.bmp","190","image-keyboard-response","475","1207958","0.0-19.0-2.15","c2_test",".","","","","."
"1648.8449999997392","<p style=""color:white;""> Next Figure: Male or Female? </p>","190","html-keyboard-response","476","1209607","0.0-19.0-0.16","prediction","","","",".",""
"null","<div style=""color:white; font-size:60px;"">+</div>","null","html-keyboard-response","477","1210612","0.0-19.0-1.16","fixation","","","","",""
"2550.105000000447","Stimuli/Hangul_M2.bmp","188","image-keyboard-response","478","1213163","0.0-19.0-2.16","c2_test",",","","","",","
"1003.7849999989849","<p style=""color:white;""> Next Figure: Male or Female? </p>","188","html-keyboard-response","479","1214168","0.0-19.0-0.17","prediction","","","",",",""
"null","<div style=""color:white; font-size:60px;"">+</div>","null","html-keyboard-response","480","1215168","0.0-19.0-1.17","fixation","","","","",""
"1838.6950000005309","Stimuli/Hangul_F2.bmp","188","image-keyboard-response","481","1217008","0.0-19.0-2.17","c2_test",".","","","",","
"985.8100000002887","<p style=""color:white;""> Next Figure: Male or Female? </p>","188","html-keyboard-response","482","1217994","0.0-19.0-0.18","prediction","","","",",",""
"null","<div style=""color:white; font-size:60px;"">+</div>","null","html-keyboard-response","483","1218996","0.0-19.0-1.18","fixation","","","","",""
"1762.4249999988824","Stimuli/Hangul_F11.bmp","188","image-keyboard-response","484","1220759","0.0-19.0-2.18","c2_test",".","","","",","
"713.5600000000559","<p style=""color:white;""> Next Figure: Male or Female? </p>","188","html-keyboard-response","485","1221473","0.0-19.0-0.19","prediction","","","",",",""
"null","<div style=""color:white; font-size:60px;"">+</div>","null","html-keyboard-response","486","1222477","0.0-19.0-1.19","fixation","","","","",""
"1920.7050000003073","Stimuli/Hangul_F15.bmp","188","image-keyboard-response","487","1224398","0.0-19.0-2.19","c2_test",".","","","",","
"674.8850000002421","<p style=""color:white;""> Next Figure: Male or Female? </p>","188","html-keyboard-response","488","1225074","0.0-19.0-0.20","prediction","","","",",",""
"null","<div style=""color:white; font-size:60px;"">+</div>","null","html-keyboard-response","489","1226075","0.0-19.0-1.20","fixation","","","","",""
"3378.5549999992363","Stimuli/Hangul_F20.bmp","188","image-keyboard-response","490","1229454","0.0-19.0-2.20","c2_test",".","","","",","
"853.9150000014342","<p style=""color:white;""> Next Figure: Male or Female? </p>","188","html-keyboard-response","491","1230309","0.0-19.0-0.21","prediction","","","",",",""
"null","<div style=""color:white; font-size:60px;"">+</div>","null","html-keyboard-response","492","1231311","0.0-19.0-1.21","fixation","","","","",""
"3977.554999999469","Stimuli/Hangul_F7.bmp","188","image-keyboard-response","493","1235289","0.0-19.0-2.21","c2_test",".","","","",","
"793.9149999984074","<p style=""color:white;""> Next Figure: Male or Female? </p>","188","html-keyboard-response","494","1236084","0.0-19.0-0.22","prediction","","","",",",""
"null","<div style=""color:white; font-size:60px;"">+</div>","null","html-keyboard-response","495","1237085","0.0-19.0-1.22","fixation","","","","",""
"1642.6599999994505","Stimuli/Hangul_M6.bmp","188","image-keyboard-response","496","1238728","0.0-19.0-2.22","c2_test",",","","","",","
"925.8150000004098","<p style=""color:white;""> Next Figure: Male or Female? </p>","188","html-keyboard-response","497","1239654","0.0-19.0-0.23","prediction","","","",",",""
"null","<div style=""color:white; font-size:60px;"">+</div>","null","html-keyboard-response","498","1240658","0.0-19.0-1.23","fixation","","","","",""
"1936.4800000002142","Stimuli/Hangul_F3.bmp","190","image-keyboard-response","499","1242594","0.0-19.0-2.23","c2_test",".","","","","."
"1709.7149999989197","<p style=""color:white;""> Next Figure: Male or Female? </p>","190","html-keyboard-response","500","1244305","0.0-19.0-0.24","prediction","","","",".",""
"null","<div style=""color:white; font-size:60px;"">+</div>","null","html-keyboard-response","501","1245306","0.0-19.0-1.24","fixation","","","","",""
"1922.3449999990407","Stimuli/Hangul_M1.bmp","188","image-keyboard-response","502","1247229","0.0-19.0-2.24","c2_test",",","","","",","
"734.309999999823","<p style=""color:white;""> Next Figure: Male or Female? </p>","188","html-keyboard-response","503","1247964","0.0-19.0-0.25","prediction","","","",",",""
"null","<div style=""color:white; font-size:60px;"">+</div>","null","html-keyboard-response","504","1248966","0.0-19.0-1.25","fixation","","","","",""
"1578.4800000002142","Stimuli/Hangul_M18.bmp","188","image-keyboard-response","505","1250545","0.0-19.0-2.25","c2_test",",","","","",","
"778.920000000624","<p style=""color:white;""> Next Figure: Male or Female? </p>","188","html-keyboard-response","506","1251324","0.0-19.0-0.26","prediction","","","",",",""
"null","<div style=""color:white; font-size:60px;"">+</div>","null","html-keyboard-response","507","1252326","0.0-19.0-1.26","fixation","","","","",""
"1420.5800000000745","Stimuli/Hangul_M14.bmp","188","image-keyboard-response","508","1253747","0.0-19.0-2.26","c2_test",",","","","",","
"757.7099999997299","<p style=""color:white;""> Next Figure: Male or Female? </p>","188","html-keyboard-response","509","1254505","0.0-19.0-0.27","prediction","","","",",",""
"null","<div style=""color:white; font-size:60px;"">+</div>","null","html-keyboard-response","510","1255506","0.0-19.0-1.27","fixation","","","","",""
"1416.405000000028","Stimuli/Hangul_M17.bmp","188","image-keyboard-response","511","1256923","0.0-19.0-2.27","c2_test",",","","","",","
"746.4650000000838","<p style=""color:white;""> Next Figure: Male or Female? </p>","188","html-keyboard-response","512","1257670","0.0-19.0-0.28","prediction","","","",",",""
"null","<div style=""color:white; font-size:60px;"">+</div>","null","html-keyboard-response","513","1258674","0.0-19.0-1.28","fixation","","","","",""
"2476.199999999255","Stimuli/Hangul_F4.bmp","188","image-keyboard-response","514","1261151","0.0-19.0-2.28","c2_test",".","","","",","
"943.6850000002887","<p style=""color:white;""> Next Figure: Male or Female? </p>","188","html-keyboard-response","515","1262095","0.0-19.0-0.29","prediction","","","",",",""
"null","<div style=""color:white; font-size:60px;"">+</div>","null","html-keyboard-response","516","1263098","0.0-19.0-1.29","fixation","","","","",""
"1673.8000000005122","Stimuli/Hangul_F17.bmp","188","image-keyboard-response","517","1264773","0.0-19.0-2.29","c2_test",".","","","",","
"952.0200000007171","<p style=""color:white;""> Next Figure: Male or Female? </p>","188","html-keyboard-response","518","1265725","0.0-19.0-0.30","prediction","","","",",",""
"null","<div style=""color:white; font-size:60px;"">+</div>","null","html-keyboard-response","519","1266728","0.0-19.0-1.30","fixation","","","","",""
"1816.4899999992922","Stimuli/Hangul_F19.bmp","188","image-keyboard-response","520","1268546","0.0-19.0-2.30","c2_test",".","","","",","
"1094.8900000003632","<p style=""color:white;""> Next Figure: Male or Female? </p>","188","html-keyboard-response","521","1269641","0.0-19.0-0.31","prediction","","","",",",""
"null","<div style=""color:white; font-size:60px;"">+</div>","null","html-keyboard-response","522","1270646","0.0-19.0-1.31","fixation","","","","",""
"1949.5450000010896","Stimuli/Hangul_M12.bmp","188","image-keyboard-response","523","1272596","0.0-19.0-2.31","c2_test",",","","","",","
"1488.8199999986682","<p style=""color:white;""> Next Figure: Male or Female? </p>","190","html-keyboard-response","524","1274086","0.0-19.0-0.32","prediction","","","",".",""
"null","<div style=""color:white; font-size:60px;"">+</div>","null","html-keyboard-response","525","1275086","0.0-19.0-1.32","fixation","","","","",""
"2083.9599999999627","Stimuli/Hangul_F23.bmp","188","image-keyboard-response","526","1277171","0.0-19.0-2.32","c2_test",".","","","",","
"1005.1100000001024","<p style=""color:white;""> Next Figure: Male or Female? </p>","188","html-keyboard-response","527","1278176","0.0-19.0-0.33","prediction","","","",",",""
"null","<div style=""color:white; font-size:60px;"">+</div>","null","html-keyboard-response","528","1279177","0.0-19.0-1.33","fixation","","","","",""
"2058.6249999995343","Stimuli/Hangul_M11.bmp","188","image-keyboard-response","529","1281236","0.0-19.0-2.33","c2_test",",","","","",","
"779.3999999994412","<p style=""color:white;""> Next Figure: Male or Female? </p>","188","html-keyboard-response","530","1282016","0.0-19.0-0.34","prediction","","","",",",""
"null","<div style=""color:white; font-size:60px;"">+</div>","null","html-keyboard-response","531","1283019","0.0-19.0-1.34","fixation","","","","",""
"1822.2550000010524","Stimuli/Hangul_M3.bmp","188","image-keyboard-response","532","1284842","0.0-19.0-2.34","c2_test",",","","","",","
"818.605000000447","<p style=""color:white;""> Next Figure: Male or Female? </p>","188","html-keyboard-response","533","1285661","0.0-19.0-0.35","prediction","","","",",",""
"null","<div style=""color:white; font-size:60px;"">+</div>","null","html-keyboard-response","534","1286664","0.0-19.0-1.35","fixation","","","","",""
"2806.679999999702","Stimuli/Hangul_F14.bmp","188","image-keyboard-response","535","1289471","0.0-19.0-2.35","c2_test",".","","","",","
"824.4450000000652","<p style=""color:white;""> Next Figure: Male or Female? </p>","188","html-keyboard-response","536","1290296","0.0-19.0-0.36","prediction","","","",",",""
"null","<div style=""color:white; font-size:60px;"">+</div>","null","html-keyboard-response","537","1291297","0.0-19.0-1.36","fixation","","","","",""
"1659.539999998873","Stimuli/Hangul_M10.bmp","188","image-keyboard-response","538","1292957","0.0-19.0-2.36","c2_test",",","","","",","
"654.0849999999627","<p style=""color:white;""> Next Figure: Male or Female? </p>","188","html-keyboard-response","539","1293612","0.0-19.0-0.37","prediction","","","",",",""
"null","<div style=""color:white; font-size:60px;"">+</div>","null","html-keyboard-response","540","1294613","0.0-19.0-1.37","fixation","","","","",""
"1938.844999998808","Stimuli/Hangul_M4.bmp","188","image-keyboard-response","541","1296552","0.0-19.0-2.37","c2_test",",","","","",","
"824.7399999999907","<p style=""color:white;""> Next Figure: Male or Female? </p>","188","html-keyboard-response","542","1297377","0.0-19.0-0.38","prediction","","","",",",""
"null","<div style=""color:white; font-size:60px;"">+</div>","null","html-keyboard-response","543","1298378","0.0-19.0-1.38","fixation","","","","",""
"1863.8649999992922","Stimuli/Hangul_F5.bmp","188","image-keyboard-response","544","1300243","0.0-19.0-2.38","c2_test",".","","","",","
"644.0350000010803","<p style=""color:white;""> Next Figure: Male or Female? </p>","188","html-keyboard-response","545","1300887","0.0-19.0-0.39","prediction","","","",",",""
"null","<div style=""color:white; font-size:60px;"">+</div>","null","html-keyboard-response","546","1301889","0.0-19.0-1.39","fixation","","","","",""
"1442.8600000010338","Stimuli/Hangul_M7.bmp","188","image-keyboard-response","547","1303332","0.0-19.0-2.39","c2_test",",","","","",","
"644.4399999999441","<p style=""color:white;""> Next Figure: Male or Female? </p>","188","html-keyboard-response","548","1303977","0.0-19.0-0.40","prediction","","","",",",""
"null","<div style=""color:white; font-size:60px;"">+</div>","null","html-keyboard-response","549","1304980","0.0-19.0-1.40","fixation","","","","",""
"2147.91999999946","Stimuli/Hangul_F6.bmp","190","image-keyboard-response","550","1307128","0.0-19.0-2.40","c2_test",".","","","","."
"3059.4349999991246","<p style=""color:white;""> Next Figure: Male or Female? </p>","190","html-keyboard-response","551","1310188","0.0-19.0-0.41","prediction","","","",".",""
"null","<div style=""color:white; font-size:60px;"">+</div>","null","html-keyboard-response","552","1311192","0.0-19.0-1.41","fixation","","","","",""
"1489.8949999988545","Stimuli/Hangul_M16.bmp","188","image-keyboard-response","553","1312683","0.0-19.0-2.41","c2_test",",","","","",","
"774.9400000011083","<p style=""color:white;""> Next Figure: Male or Female? </p>","188","html-keyboard-response","554","1313458","0.0-19.0-0.42","prediction","","","",",",""
"null","<div style=""color:white; font-size:60px;"">+</div>","null","html-keyboard-response","555","1314460","0.0-19.0-1.42","fixation","","","","",""
"5301.959999999031","Stimuli/Hangul_F24.bmp","188","image-keyboard-response","556","1319762","0.0-19.0-2.42","c2_test",".","","","",","
"1030.3450000011362","<p style=""color:white;""> Next Figure: Male or Female? </p>","188","html-keyboard-response","557","1320793","0.0-19.0-0.43","prediction","","","",",",""
"null","<div style=""color:white; font-size:60px;"">+</div>","null","html-keyboard-response","558","1321796","0.0-19.0-1.43","fixation","","","","",""
"2716.6049999995157","Stimuli/Hangul_M21.bmp","188","image-keyboard-response","559","1324513","0.0-19.0-2.43","c2_test",",","","","",","
"719.9550000005402","<p style=""color:white;""> Next Figure: Male or Female? </p>","188","html-keyboard-response","560","1325233","0.0-19.0-0.44","prediction","","","",",",""
"null","<div style=""color:white; font-size:60px;"">+</div>","null","html-keyboard-response","561","1326235","0.0-19.0-1.44","fixation","","","","",""
"4818.40000000014","Stimuli/Hangul_F16.bmp","190","image-keyboard-response","562","1331055","0.0-19.0-2.44","c2_test",".","","","","."
"1229.0800000010058","<p style=""color:white;""> Next Figure: Male or Female? </p>","190","html-keyboard-response","563","1332284","0.0-19.0-0.45","prediction","","","",".",""
"null","<div style=""color:white; font-size:60px;"">+</div>","null","html-keyboard-response","564","1333288","0.0-19.0-1.45","fixation","","","","",""
"3870.489999999292","Stimuli/Hangul_M0.bmp","190","image-keyboard-response","565","1337159","0.0-19.0-2.45","c2_test",",","","","","."
"1670.2699999986216","<p style=""color:white;""> Next Figure: Male or Female? </p>","188","html-keyboard-response","566","1338830","0.0-19.0-0.46","prediction","","","",",",""
"null","<div style=""color:white; font-size:60px;"">+</div>","null","html-keyboard-response","567","1339831","0.0-19.0-1.46","fixation","","","","",""
"1633.4599999990314","Stimuli/Hangul_F8.bmp","190","image-keyboard-response","568","1341465","0.0-19.0-2.46","c2_test",".","","","","."
"1213.7499999990687","<p style=""color:white;""> Next Figure: Male or Female? </p>","190","html-keyboard-response","569","1342679","0.0-19.0-0.47","prediction","","","",".",""
"null","<div style=""color:white; font-size:60px;"">+</div>","null","html-keyboard-response","570","1343682","0.0-19.0-1.47","fixation","","","","",""
"1906.7050000012387","Stimuli/Hangul_M5.bmp","190","image-keyboard-response","571","1345590","0.0-19.0-2.47","c2_test",",","","","","."
"1139.5200000007171","<p style=""color:white;""> Next Figure: Male or Female? </p>","190","html-keyboard-response","572","1346730","0.0-19.0-0.48","prediction","","","",".",""
"null","<div style=""color:white; font-size:60px;"">+</div>","null","html-keyboard-response","573","1347735","0.0-19.0-1.48","fixation","","","","",""
"2294.595000001136","Stimuli/Hangul_M23.bmp","190","image-keyboard-response","574","1350030","0.0-19.0-2.48","c2_test",",","","","","."
"1184.3699999991804","<p style=""color:white;""> Next Figure: Male or Female? </p>","190","html-keyboard-response","575","1351215","0.0-19.0-0.49","prediction","","","",".",""
"null","<div style=""color:white; font-size:60px;"">+</div>","null","html-keyboard-response","576","1352216","0.0-19.0-1.49","fixation","","","","",""
"2268.6450000002515","Stimuli/Hangul_F10.bmp","190","image-keyboard-response","577","1354486","0.0-19.0-2.49","c2_test",".","","","","."
"4367.820000001462","<p style=""color:white;"">Good job, block 1 complete! Please take a moment to rest.</p> <p style=""color:white;"">When you are ready to continue with block 2 of 4, press the space bar.</p> ","32","html-keyboard-response","578","1358854","0.0-20.0","","","","","",""
"2044.4900000002235","<p style=""color:white;""> Next Figure: Male or Female? </p>","188","html-keyboard-response","579","1362901","0.0-21.0-0.0","prediction","","","",",",""
"null","<div style=""color:white; font-size:60px;"">+</div>","null","html-keyboard-response","580","1363902","0.0-21.0-1.0","fixation","","","","",""
"3483.985000000801","Stimuli/Hangul_F26.bmp","190","image-keyboard-response","581","1367386","0.0-21.0-2.0","c2_test",".","","","","."
"1814.1699999996927","<p style=""color:white;""> Next Figure: Male or Female? </p>","190","html-keyboard-response","582","1369201","0.0-21.0-0.1","prediction","","","",".",""
"null","<div style=""color:white; font-size:60px;"">+</div>","null","html-keyboard-response","583","1370206","0.0-21.0-1.1","fixation","","","","",""
"2084.484999999404","Stimuli/Hangul_M46.bmp","188","image-keyboard-response","584","1372291","0.0-21.0-2.1","c2_test",",","","","",","
"883.6850000007544","<p style=""color:white;""> Next Figure: Male or Female? </p>","188","html-keyboard-response","585","1373175","0.0-21.0-0.2","prediction","","","",",",""
"null","<div style=""color:white; font-size:60px;"">+</div>","null","html-keyboard-response","586","1374177","0.0-21.0-1.2","fixation","","","","",""
"2706.4100000006147","Stimuli/Hangul_F38.bmp","188","image-keyboard-response","587","1376884","0.0-21.0-2.2","c2_test",".","","","",","
"1136.6500000003725","<p style=""color:white;""> Next Figure: Male or Female? </p>","188","html-keyboard-response","588","1378022","0.0-21.0-0.3","prediction","","","",",",""
"null","<div style=""color:white; font-size:60px;"">+</div>","null","html-keyboard-response","589","1379025","0.0-21.0-1.3","fixation","","","","",""
"3465.855000000447","Stimuli/Hangul_F48.bmp","190","image-keyboard-response","590","1382491","0.0-21.0-2.3","c2_test",".","","","","."
"989.8300000003073","<p style=""color:white;""> Next Figure: Male or Female? </p>","190","html-keyboard-response","591","1383481","0.0-21.0-0.4","prediction","","","",".",""
"null","<div style=""color:white; font-size:60px;"">+</div>","null","html-keyboard-response","592","1384483","0.0-21.0-1.4","fixation","","","","",""
"1923.9049999995623","Stimuli/Hangul_M49.bmp","188","image-keyboard-response","593","1386408","0.0-21.0-2.4","c2_test",",","","","",","
"838.8350000004284","<p style=""color:white;""> Next Figure: Male or Female? </p>","188","html-keyboard-response","594","1387247","0.0-21.0-0.5","prediction","","","",",",""
"null","<div style=""color:white; font-size:60px;"">+</div>","null","html-keyboard-response","595","1388249","0.0-21.0-1.5","fixation","","","","",""
"5588.755000000587","Stimuli/Hangul_F29.bmp","188","image-keyboard-response","596","1393838","0.0-21.0-2.5","c2_test",".","","","",","
"1343.3249999999534","<p style=""color:white;""> Next Figure: Male or Female? </p>","188","html-keyboard-response","597","1395183","0.0-21.0-0.6","prediction","","","",",",""
"null","<div style=""color:white; font-size:60px;"">+</div>","null","html-keyboard-response","598","1396184","0.0-21.0-1.6","fixation","","","","",""
"2072.679999999469","Stimuli/Hangul_F34.bmp","190","image-keyboard-response","599","1398257","0.0-21.0-2.6","c2_test",".","","","","."
"1625.7100000001956","<p style=""color:white;""> Next Figure: Male or Female? </p>","190","html-keyboard-response","600","1399884","0.0-21.0-0.7","prediction","","","",".",""
"null","<div style=""color:white; font-size:60px;"">+</div>","null","html-keyboard-response","601","1400888","0.0-21.0-1.7","fixation","","","","",""
"4554.889999999432","Stimuli/Hangul_F41.bmp","188","image-keyboard-response","602","1405443","0.0-21.0-2.7","c2_test",".","","","",","
"808.6450000011828","<p style=""color:white;""> Next Figure: Male or Female? </p>","188","html-keyboard-response","603","1406252","0.0-21.0-0.8","prediction","","","",",",""
"null","<div style=""color:white; font-size:60px;"">+</div>","null","html-keyboard-response","604","1407256","0.0-21.0-1.8","fixation","","","","",""
"4741.315000001108","Stimuli/Hangul_F27.bmp","188","image-keyboard-response","605","1411998","0.0-21.0-2.8","c2_test",".","","","",","
"899.5300000004936","<p style=""color:white;""> Next Figure: Male or Female? </p>","188","html-keyboard-response","606","1412898","0.0-21.0-0.9","prediction","","","",",",""
"null","<div style=""color:white; font-size:60px;"">+</div>","null","html-keyboard-response","607","1413900","0.0-21.0-1.9","fixation","","","","",""
"2033.8500000014901","Stimuli/Hangul_F45.bmp","190","image-keyboard-response","608","1415934","0.0-21.0-2.9","c2_test",".","","","","."
"1944.0450000003912","<p style=""color:white;""> Next Figure: Male or Female? </p>","188","html-keyboard-response","609","1417879","0.0-21.0-0.10","prediction","","","",",",""
"null","<div style=""color:white; font-size:60px;"">+</div>","null","html-keyboard-response","610","1418880","0.0-21.0-1.10","fixation","","","","",""
"6243.324999999488","Stimuli/Hangul_F33.bmp","190","image-keyboard-response","611","1425124","0.0-21.0-2.10","c2_test",".","","","","."
"1229.7700000000186","<p style=""color:white;""> Next Figure: Male or Female? </p>","188","html-keyboard-response","612","1426354","0.0-21.0-0.11","prediction","","","",",",""
"null","<div style=""color:white; font-size:60px;"">+</div>","null","html-keyboard-response","613","1427355","0.0-21.0-1.11","fixation","","","","",""
"1653.6200000008103","Stimuli/Hangul_F30.bmp","190","image-keyboard-response","614","1429009","0.0-21.0-2.11","c2_test",".","","","","."
"1154.0150000001304","<p style=""color:white;""> Next Figure: Male or Female? </p>","190","html-keyboard-response","615","1430164","0.0-21.0-0.12","prediction","","","",".",""
"null","<div style=""color:white; font-size:60px;"">+</div>","null","html-keyboard-response","616","1431167","0.0-21.0-1.12","fixation","","","","",""
"2881.5500000000466","Stimuli/Hangul_M31.bmp","188","image-keyboard-response","617","1434049","0.0-21.0-2.12","c2_test",",","","","",","
"1728.4749999998603","<p style=""color:white;""> Next Figure: Male or Female? </p>","190","html-keyboard-response","618","1435778","0.0-21.0-0.13","prediction","","","",".",""
"null","<div style=""color:white; font-size:60px;"">+</div>","null","html-keyboard-response","619","1436779","0.0-21.0-1.13","fixation","","","","",""
"3524.7950000010896","Stimuli/Hangul_F49.bmp","190","image-keyboard-response","620","1440305","0.0-21.0-2.13","c2_test",".","","","","."
"1503.7599999995437","<p style=""color:white;""> Next Figure: Male or Female? </p>","190","html-keyboard-response","621","1441809","0.0-21.0-0.14","prediction","","","",".",""
"null","<div style=""color:white; font-size:60px;"">+</div>","null","html-keyboard-response","622","1442810","0.0-21.0-1.14","fixation","","","","",""
"2429.20500000054","Stimuli/Hangul_M35.bmp","190","image-keyboard-response","623","1445240","0.0-21.0-2.14","c2_test",",","","","","."
"1429.2949999999255","<p style=""color:white;""> Next Figure: Male or Female? </p>","190","html-keyboard-response","624","1446670","0.0-21.0-0.15","prediction","","","",".",""
"null","<div style=""color:white; font-size:60px;"">+</div>","null","html-keyboard-response","625","1447672","0.0-21.0-1.15","fixation","","","","",""
"2072.329999999143","Stimuli/Hangul_M25.bmp","190","image-keyboard-response","626","1449745","0.0-21.0-2.15","c2_test",",","","","","."
"1226.9749999996275","<p style=""color:white;""> Next Figure: Male or Female? </p>","190","html-keyboard-response","627","1450973","0.0-21.0-0.16","prediction","","","",".",""
"null","<div style=""color:white; font-size:60px;"">+</div>","null","html-keyboard-response","628","1451974","0.0-21.0-1.16","fixation","","","","",""
"1670.6050000011455","Stimuli/Hangul_M40.bmp","188","image-keyboard-response","629","1453645","0.0-21.0-2.16","c2_test",",","","","",","
"998.9850000003353","<p style=""color:white;""> Next Figure: Male or Female? </p>","188","html-keyboard-response","630","1454645","0.0-21.0-0.17","prediction","","","",",",""
"null","<div style=""color:white; font-size:60px;"">+</div>","null","html-keyboard-response","631","1455646","0.0-21.0-1.17","fixation","","","","",""
"3363.8699999991804","Stimuli/Hangul_F40.bmp","188","image-keyboard-response","632","1459011","0.0-21.0-2.17","c2_test",".","","","",","
"1229.1800000001676","<p style=""color:white;""> Next Figure: Male or Female? </p>","188","html-keyboard-response","633","1460240","0.0-21.0-0.18","prediction","","","",",",""
"null","<div style=""color:white; font-size:60px;"">+</div>","null","html-keyboard-response","634","1461242","0.0-21.0-1.18","fixation","","","","",""
"1433.9949999994133","Stimuli/Hangul_M43.bmp","188","image-keyboard-response","635","1462676","0.0-21.0-2.18","c2_test",",","","","",","
"938.8249999992549","<p style=""color:white;""> Next Figure: Male or Female? </p>","188","html-keyboard-response","636","1463616","0.0-21.0-0.19","prediction","","","",",",""
"null","<div style=""color:white; font-size:60px;"">+</div>","null","html-keyboard-response","637","1464618","0.0-21.0-1.19","fixation","","","","",""
"2300.6750000005122","Stimuli/Hangul_F28.bmp","190","image-keyboard-response","638","1466919","0.0-21.0-2.19","c2_test",".","","","","."
"851.4850000010338","<p style=""color:white;""> Next Figure: Male or Female? </p>","190","html-keyboard-response","639","1467771","0.0-21.0-0.20","prediction","","","",".",""
"null","<div style=""color:white; font-size:60px;"">+</div>","null","html-keyboard-response","640","1468773","0.0-21.0-1.20","fixation","","","","",""
"1712.3549999995157","Stimuli/Hangul_M48.bmp","188","image-keyboard-response","641","1470486","0.0-21.0-2.20","c2_test",",","","","",","
"1109.3450000009034","<p style=""color:white;""> Next Figure: Male or Female? </p>","188","html-keyboard-response","642","1471596","0.0-21.0-0.21","prediction","","","",",",""
"null","<div style=""color:white; font-size:60px;"">+</div>","null","html-keyboard-response","643","1472597","0.0-21.0-1.21","fixation","","","","",""
"2257.6200000003446","Stimuli/Hangul_M38.bmp","188","image-keyboard-response","644","1474855","0.0-21.0-2.21","c2_test",",","","","",","
"790.224999998929","<p style=""color:white;""> Next Figure: Male or Female? </p>","188","html-keyboard-response","645","1475646","0.0-21.0-0.22","prediction","","","",",",""
"null","<div style=""color:white; font-size:60px;"">+</div>","null","html-keyboard-response","646","1476649","0.0-21.0-1.22","fixation","","","","",""
"1891.1799999987707","Stimuli/Hangul_F44.bmp","190","image-keyboard-response","647","1478541","0.0-21.0-2.22","c2_test",".","","","","."
"1620.3900000001304","<p style=""color:white;""> Next Figure: Male or Female? </p>","188","html-keyboard-response","648","1480162","0.0-21.0-0.23","prediction","","","",",",""
"null","<div style=""color:white; font-size:60px;"">+</div>","null","html-keyboard-response","649","1481165","0.0-21.0-1.23","fixation","","","","",""
"1489.7950000013225","Stimuli/Hangul_M42.bmp","188","image-keyboard-response","650","1482656","0.0-21.0-2.23","c2_test",",","","","",","
"1225.9350000002887","<p style=""color:white;""> Next Figure: Male or Female? </p>","188","html-keyboard-response","651","1483882","0.0-21.0-0.24","prediction","","","",",",""
"null","<div style=""color:white; font-size:60px;"">+</div>","null","html-keyboard-response","652","1484885","0.0-21.0-1.24","fixation","","","","",""
"1805.155000000028","Stimuli/Hangul_M47.bmp","188","image-keyboard-response","653","1486691","0.0-21.0-2.24","c2_test",",","","","",","
"655.1199999994133","<p style=""color:white;""> Next Figure: Male or Female? </p>","188","html-keyboard-response","654","1487347","0.0-21.0-0.25","prediction","","","",",",""
"null","<div style=""color:white; font-size:60px;"">+</div>","null","html-keyboard-response","655","1488348","0.0-21.0-1.25","fixation","","","","",""
