"rt","stimulus","key_press","trial_type","trial_index","time_elapsed","internal_node_id","test_part","correct_response","C1_train","C1","A","C2"
"8111.120000015944","<p style=""color:white;"">Welcome to the experiment! Press any key to begin.</p>","32","html-keyboard-response","0","8116","0.0-0.0","","","","","",""
"22793.809999944642","<p style=""color:white;"">You will see a series of abstract figures. They are adaptations of signs in the Korean alphabet, but that is not important for this study. </p><p style=""color:white;"">Abstract figures sometimes have a more masculine or feminine shape. Here, each figure has already been assigned a gender as <q>Male</q> or <q>Female</q> by a panel of respondents in a pilot study. The respondents were not given specific instructions on how to do this, but were only told to use their intuition and to take into account the entire configuration of the stimulus. </p><p style=""color:white;"">Your task now is to guess the assigned gender of each figure. Please press the corresponding response keys to indicate your choice: </p><p style=""color:white;""> Male &#8594 <q>,</q> (comma)</p><p style=""color:white;""> Female &#8594 <q>.</q> (period)</p><p style=""color:white;"">Press either response keys to continue.</p>","188","html-keyboard-response","1","30911","0.0-1.0","","","","","",""
"11120.520000113174","<p style=""color:white;"">Your choice is correct if it matches the gender assigned by the majority of respondents in the pilot study.</p> <p style=""color:white;"">For each correct choice you will receive 2 cents. There will be 200 trials divided into 4 blocks of 50 trials. You will be able to take a break after every 50 trials.</p> <p style=""color:white;"">Press the space bar to continue.</p>","32","html-keyboard-response","2","42032","0.0-2.0","","","","","",""
"4125.89000002481","<p style=""color:white;"">Here are some examples.</p> <p style=""color:white;"">For each, guess whether the assigned figure is male-like or female-like and indicate your choice by pressing either response keys.</p> <p style=""color:white;"">Press the space bar to continue.</p>","32","html-keyboard-response","3","46158","0.0-3.0","","","","","",""
"null","<div style=""color:white; font-size:60px;"">+</div>","null","html-keyboard-response","4","49161","0.0-4.0-0.0","fixation","","","","",""
"1802.3149999789894","Stimuli/Hangul_E2.bmp","188","image-keyboard-response","5","50965","0.0-4.0-1.0","c1_train",".",",","","",""
"null","<div style=""color:white; font-size:60px;"">+</div>","null","html-keyboard-response","6","51967","0.0-4.0-0.1","fixation","","","","",""
"1976.0549999773502","Stimuli/Hangul_E0.bmp","188","image-keyboard-response","7","53943","0.0-4.0-1.1","c1_train",",",",","","",""
"null","<div style=""color:white; font-size:60px;"">+</div>","null","html-keyboard-response","8","54944","0.0-4.0-0.2","fixation","","","","",""
"2182.5449999887496","Stimuli/Hangul_E1.bmp","190","image-keyboard-response","9","57128","0.0-4.0-1.2","c1_train",",",".","","",""
"84380.58499991894","<p style=""color:white;"">Let us begin! Press the space bar when you are ready to start block 1 of 4.</p> ","32","html-keyboard-response","10","141509","0.0-5.0","","","","","",""
"null","<div style=""color:white; font-size:60px;"">+</div>","null","html-keyboard-response","11","144511","0.0-6.0-0.0","fixation","","","","",""
"2111.490000039339","Stimuli/Hangul_M19.bmp","188","image-keyboard-response","12","146624","0.0-6.0-1.0","test",",","",",","",""
"null","<div style=""color:white; font-size:60px;"">+</div>","null","html-keyboard-response","13","147625","0.0-6.0-0.1","fixation","","","","",""
"2800.4799999762326","Stimuli/Hangul_M4.bmp","188","image-keyboard-response","14","150426","0.0-6.0-1.1","test",",","",",","",""
"null","<div style=""color:white; font-size:60px;"">+</div>","null","html-keyboard-response","15","151428","0.0-6.0-0.2","fixation","","","","",""
"2398.5500000417233","Stimuli/Hangul_F6.bmp","190","image-keyboard-response","16","153827","0.0-6.0-1.2","test",".","",".","",""
"null","<div style=""color:white; font-size:60px;"">+</div>","null","html-keyboard-response","17","154829","0.0-6.0-0.3","fixation","","","","",""
"2987.5399998854846","Stimuli/Hangul_M24.bmp","190","image-keyboard-response","18","157817","0.0-6.0-1.3","test",",","",".","",""
"null","<div style=""color:white; font-size:60px;"">+</div>","null","html-keyboard-response","19","158818","0.0-6.0-0.4","fixation","","","","",""
"1961.1500001046807","Stimuli/Hangul_M2.bmp","190","image-keyboard-response","20","160780","0.0-6.0-1.4","test",",","",".","",""
"null","<div style=""color:white; font-size:60px;"">+</div>","null","html-keyboard-response","21","161781","0.0-6.0-0.5","fixation","","","","",""
"3621.3199999183416","Stimuli/Hangul_M14.bmp","188","image-keyboard-response","22","165403","0.0-6.0-1.5","test",",","",",","",""
"null","<div style=""color:white; font-size:60px;"">+</div>","null","html-keyboard-response","23","166404","0.0-6.0-0.6","fixation","","","","",""
"3011.790000135079","Stimuli/Hangul_F5.bmp","188","image-keyboard-response","24","169417","0.0-6.0-1.6","test",".","",",","",""
"null","<div style=""color:white; font-size:60px;"">+</div>","null","html-keyboard-response","25","170422","0.0-6.0-0.7","fixation","","","","",""
"1898.2750000432134","Stimuli/Hangul_F24.bmp","190","image-keyboard-response","26","172321","0.0-6.0-1.7","test",".","",".","",""
"null","<div style=""color:white; font-size:60px;"">+</div>","null","html-keyboard-response","27","173322","0.0-6.0-0.8","fixation","","","","",""
"1828.5499999765307","Stimuli/Hangul_F4.bmp","190","image-keyboard-response","28","175152","0.0-6.0-1.8","test",".","",".","",""
"null","<div style=""color:white; font-size:60px;"">+</div>","null","html-keyboard-response","29","176153","0.0-6.0-0.9","fixation","","","","",""
"2210.8350000344217","Stimuli/Hangul_M6.bmp","188","image-keyboard-response","30","178364","0.0-6.0-1.9","test",",","",",","",""
"null","<div style=""color:white; font-size:60px;"">+</div>","null","html-keyboard-response","31","179365","0.0-6.0-0.10","fixation","","","","",""
"2792.399999918416","Stimuli/Hangul_F13.bmp","188","image-keyboard-response","32","182159","0.0-6.0-1.10","test",".","",",","",""
"null","<div style=""color:white; font-size:60px;"">+</div>","null","html-keyboard-response","33","183161","0.0-6.0-0.11","fixation","","","","",""
"2007.5000000651926","Stimuli/Hangul_M1.bmp","190","image-keyboard-response","34","185169","0.0-6.0-1.11","test",",","",".","",""
"null","<div style=""color:white; font-size:60px;"">+</div>","null","html-keyboard-response","35","186170","0.0-6.0-0.12","fixation","","","","",""
"5129.4599999673665","Stimuli/Hangul_F15.bmp","190","image-keyboard-response","36","191300","0.0-6.0-1.12","test",".","",".","",""
"null","<div style=""color:white; font-size:60px;"">+</div>","null","html-keyboard-response","37","192302","0.0-6.0-0.13","fixation","","","","",""
"1365.7150000799447","Stimuli/Hangul_M18.bmp","188","image-keyboard-response","38","193668","0.0-6.0-1.13","test",",","",",","",""
"null","<div style=""color:white; font-size:60px;"">+</div>","null","html-keyboard-response","39","194669","0.0-6.0-0.14","fixation","","","","",""
"1189.005000051111","Stimuli/Hangul_M13.bmp","190","image-keyboard-response","40","195858","0.0-6.0-1.14","test",",","",".","",""
"null","<div style=""color:white; font-size:60px;"">+</div>","null","html-keyboard-response","41","196860","0.0-6.0-0.15","fixation","","","","",""
"1966.095000039786","Stimuli/Hangul_F12.bmp","190","image-keyboard-response","42","198827","0.0-6.0-1.15","test",".","",".","",""
"null","<div style=""color:white; font-size:60px;"">+</div>","null","html-keyboard-response","43","199828","0.0-6.0-0.16","fixation","","","","",""
"1192.2649999614805","Stimuli/Hangul_F0.bmp","188","image-keyboard-response","44","201021","0.0-6.0-1.16","test",".","",",","",""
"null","<div style=""color:white; font-size:60px;"">+</div>","null","html-keyboard-response","45","202023","0.0-6.0-0.17","fixation","","","","",""
"1682.8099999111146","Stimuli/Hangul_F2.bmp","190","image-keyboard-response","46","203706","0.0-6.0-1.17","test",".","",".","",""
"null","<div style=""color:white; font-size:60px;"">+</div>","null","html-keyboard-response","47","204708","0.0-6.0-0.18","fixation","","","","",""
"2923.234999878332","Stimuli/Hangul_M21.bmp","188","image-keyboard-response","48","207632","0.0-6.0-1.18","test",",","",",","",""
"null","<div style=""color:white; font-size:60px;"">+</div>","null","html-keyboard-response","49","208634","0.0-6.0-0.19","fixation","","","","",""
"5680.769999977201","Stimuli/Hangul_M7.bmp","190","image-keyboard-response","50","214315","0.0-6.0-1.19","test",",","",".","",""
"null","<div style=""color:white; font-size:60px;"">+</div>","null","html-keyboard-response","51","215317","0.0-6.0-0.20","fixation","","","","",""
"2644.005000125617","Stimuli/Hangul_M11.bmp","190","image-keyboard-response","52","217962","0.0-6.0-1.20","test",",","",".","",""
"null","<div style=""color:white; font-size:60px;"">+</div>","null","html-keyboard-response","53","218963","0.0-6.0-0.21","fixation","","","","",""
"1824.094999814406","Stimuli/Hangul_M17.bmp","188","image-keyboard-response","54","220788","0.0-6.0-1.21","test",",","",",","",""
"null","<div style=""color:white; font-size:60px;"">+</div>","null","html-keyboard-response","55","221789","0.0-6.0-0.22","fixation","","","","",""
"3293.3100000955164","Stimuli/Hangul_M23.bmp","190","image-keyboard-response","56","225083","0.0-6.0-1.22","test",",","",".","",""
"null","<div style=""color:white; font-size:60px;"">+</div>","null","html-keyboard-response","57","226083","0.0-6.0-0.23","fixation","","","","",""
"1175.095000071451","Stimuli/Hangul_F8.bmp","190","image-keyboard-response","58","227259","0.0-6.0-1.23","test",".","",".","",""
"null","<div style=""color:white; font-size:60px;"">+</div>","null","html-keyboard-response","59","228261","0.0-6.0-0.24","fixation","","","","",""
"9682.959999889135","Stimuli/Hangul_M9.bmp","190","image-keyboard-response","60","237945","0.0-6.0-1.24","test",",","",".","",""
"null","<div style=""color:white; font-size:60px;"">+</div>","null","html-keyboard-response","61","238946","0.0-6.0-0.25","fixation","","","","",""
"1655.7150001171976","Stimuli/Hangul_F10.bmp","190","image-keyboard-response","62","240603","0.0-6.0-1.25","test",".","",".","",""
"null","<div style=""color:white; font-size:60px;"">+</div>","null","html-keyboard-response","63","241604","0.0-6.0-0.26","fixation","","","","",""
"1782.4200000613928","Stimuli/Hangul_M20.bmp","190","image-keyboard-response","64","243387","0.0-6.0-1.26","test",",","",".","",""
"null","<div style=""color:white; font-size:60px;"">+</div>","null","html-keyboard-response","65","244388","0.0-6.0-0.27","fixation","","","","",""
"1696.9399999361485","Stimuli/Hangul_M10.bmp","188","image-keyboard-response","66","246085","0.0-6.0-1.27","test",",","",",","",""
"null","<div style=""color:white; font-size:60px;"">+</div>","null","html-keyboard-response","67","247088","0.0-6.0-0.28","fixation","","","","",""
"1653.059999924153","Stimuli/Hangul_M22.bmp","190","image-keyboard-response","68","248742","0.0-6.0-1.28","test",",","",".","",""
"null","<div style=""color:white; font-size:60px;"">+</div>","null","html-keyboard-response","69","249744","0.0-6.0-0.29","fixation","","","","",""
"1683.8750001043081","Stimuli/Hangul_F23.bmp","190","image-keyboard-response","70","251428","0.0-6.0-1.29","test",".","",".","",""
"null","<div style=""color:white; font-size:60px;"">+</div>","null","html-keyboard-response","71","252429","0.0-6.0-0.30","fixation","","","","",""
"1671.1500000674278","Stimuli/Hangul_M3.bmp","190","image-keyboard-response","72","254100","0.0-6.0-1.30","test",",","",".","",""
"null","<div style=""color:white; font-size:60px;"">+</div>","null","html-keyboard-response","73","255102","0.0-6.0-0.31","fixation","","","","",""
"3744.7549998760223","Stimuli/Hangul_F1.bmp","190","image-keyboard-response","74","258847","0.0-6.0-1.31","test",".","",".","",""
"null","<div style=""color:white; font-size:60px;"">+</div>","null","html-keyboard-response","75","259848","0.0-6.0-0.32","fixation","","","","",""
"3164.6550002042204","Stimuli/Hangul_F14.bmp","190","image-keyboard-response","76","263013","0.0-6.0-1.32","test",".","",".","",""
"null","<div style=""color:white; font-size:60px;"">+</div>","null","html-keyboard-response","77","264014","0.0-6.0-0.33","fixation","","","","",""
"5333.325000014156","Stimuli/Hangul_M8.bmp","190","image-keyboard-response","78","269348","0.0-6.0-1.33","test",",","",".","",""
"null","<div style=""color:white; font-size:60px;"">+</div>","null","html-keyboard-response","79","270350","0.0-6.0-0.34","fixation","","","","",""
"5774.459999985993","Stimuli/Hangul_M5.bmp","188","image-keyboard-response","80","276125","0.0-6.0-1.34","test",",","",",","",""
"null","<div style=""color:white; font-size:60px;"">+</div>","null","html-keyboard-response","81","277127","0.0-6.0-0.35","fixation","","","","",""
"1921.5799998492002","Stimuli/Hangul_F22.bmp","188","image-keyboard-response","82","279049","0.0-6.0-1.35","test",".","",",","",""
"null","<div style=""color:white; font-size:60px;"">+</div>","null","html-keyboard-response","83","280050","0.0-6.0-0.36","fixation","","","","",""
"5073.48999986425","Stimuli/Hangul_F9.bmp","188","image-keyboard-response","84","285124","0.0-6.0-1.36","test",".","",",","",""
"null","<div style=""color:white; font-size:60px;"">+</div>","null","html-keyboard-response","85","286125","0.0-6.0-0.37","fixation","","","","",""
"1520.604999968782","Stimuli/Hangul_F18.bmp","190","image-keyboard-response","86","287647","0.0-6.0-1.37","test",".","",".","",""
"null","<div style=""color:white; font-size:60px;"">+</div>","null","html-keyboard-response","87","288649","0.0-6.0-0.38","fixation","","","","",""
"2193.3399999979883","Stimuli/Hangul_F11.bmp","188","image-keyboard-response","88","290843","0.0-6.0-1.38","test",".","",",","",""
"null","<div style=""color:white; font-size:60px;"">+</div>","null","html-keyboard-response","89","291844","0.0-6.0-0.39","fixation","","","","",""
"2153.1499999109656","Stimuli/Hangul_F7.bmp","190","image-keyboard-response","90","293997","0.0-6.0-1.39","test",".","",".","",""
"null","<div style=""color:white; font-size:60px;"">+</div>","null","html-keyboard-response","91","294999","0.0-6.0-0.40","fixation","","","","",""
"1588.8400000985712","Stimuli/Hangul_M16.bmp","188","image-keyboard-response","92","296588","0.0-6.0-1.40","test",",","",",","",""
"null","<div style=""color:white; font-size:60px;"">+</div>","null","html-keyboard-response","93","297590","0.0-6.0-0.41","fixation","","","","",""
"3640.1049999985844","Stimuli/Hangul_F20.bmp","190","image-keyboard-response","94","301230","0.0-6.0-1.41","test",".","",".","",""
"null","<div style=""color:white; font-size:60px;"">+</div>","null","html-keyboard-response","95","302232","0.0-6.0-0.42","fixation","","","","",""
"1930.3999999538064","Stimuli/Hangul_F19.bmp","190","image-keyboard-response","96","304163","0.0-6.0-1.42","test",".","",".","",""
"null","<div style=""color:white; font-size:60px;"">+</div>","null","html-keyboard-response","97","305164","0.0-6.0-0.43","fixation","","","","",""
"2041.0150000825524","Stimuli/Hangul_M15.bmp","188","image-keyboard-response","98","307205","0.0-6.0-1.43","test",",","",",","",""
"null","<div style=""color:white; font-size:60px;"">+</div>","null","html-keyboard-response","99","308206","0.0-6.0-0.44","fixation","","","","",""
"4021.2100001517683","Stimuli/Hangul_M12.bmp","188","image-keyboard-response","100","312228","0.0-6.0-1.44","test",",","",",","",""
"null","<div style=""color:white; font-size:60px;"">+</div>","null","html-keyboard-response","101","313229","0.0-6.0-0.45","fixation","","","","",""
"2102.0900001749396","Stimuli/Hangul_F3.bmp","190","image-keyboard-response","102","315332","0.0-6.0-1.45","test",".","",".","",""
"null","<div style=""color:white; font-size:60px;"">+</div>","null","html-keyboard-response","103","316334","0.0-6.0-0.46","fixation","","","","",""
"2596.5650000143796","Stimuli/Hangul_M0.bmp","190","image-keyboard-response","104","318931","0.0-6.0-1.46","test",",","",".","",""
"null","<div style=""color:white; font-size:60px;"">+</div>","null","html-keyboard-response","105","319933","0.0-6.0-0.47","fixation","","","","",""
"1499.4599998462945","Stimuli/Hangul_F21.bmp","190","image-keyboard-response","106","321433","0.0-6.0-1.47","test",".","",".","",""
"null","<div style=""color:white; font-size:60px;"">+</div>","null","html-keyboard-response","107","322435","0.0-6.0-0.48","fixation","","","","",""
"3202.3449998814613","Stimuli/Hangul_F16.bmp","190","image-keyboard-response","108","325638","0.0-6.0-1.48","test",".","",".","",""
"null","<div style=""color:white; font-size:60px;"">+</div>","null","html-keyboard-response","109","326639","0.0-6.0-0.49","fixation","","","","",""
"2376.4800000935793","Stimuli/Hangul_F17.bmp","190","image-keyboard-response","110","329016","0.0-6.0-1.49","test",".","",".","",""
"37478.224999969825","<p style=""color:white;"">Good job, block 1 complete! Please take a moment to rest.</p> <p style=""color:white;"">When you are ready to continue with block 2 of 4, press the space bar.</p> ","32","html-keyboard-response","111","366495","0.0-7.0","","","","","",""
"null","<div style=""color:white; font-size:60px;"">+</div>","null","html-keyboard-response","112","369497","0.0-8.0-0.0","fixation","","","","",""
"3017.72000011988","Stimuli/Hangul_M33.bmp","190","image-keyboard-response","113","372516","0.0-8.0-1.0","test",",","",".","",""
"null","<div style=""color:white; font-size:60px;"">+</div>","null","html-keyboard-response","114","373517","0.0-8.0-0.1","fixation","","","","",""
"1210.274999961257","Stimuli/Hangul_F43.bmp","188","image-keyboard-response","115","374728","0.0-8.0-1.1","test",".","",",","",""
"null","<div style=""color:white; font-size:60px;"">+</div>","null","html-keyboard-response","116","375730","0.0-8.0-0.2","fixation","","","","",""
"1928.0250000301749","Stimuli/Hangul_M31.bmp","188","image-keyboard-response","117","377659","0.0-8.0-1.2","test",",","",",","",""
"null","<div style=""color:white; font-size:60px;"">+</div>","null","html-keyboard-response","118","378661","0.0-8.0-0.3","fixation","","","","",""
"1361.595000140369","Stimuli/Hangul_M49.bmp","190","image-keyboard-response","119","380023","0.0-8.0-1.3","test",",","",".","",""
"null","<div style=""color:white; font-size:60px;"">+</div>","null","html-keyboard-response","120","381024","0.0-8.0-0.4","fixation","","","","",""
"1949.284999864176","Stimuli/Hangul_F38.bmp","188","image-keyboard-response","121","382976","0.0-8.0-1.4","test",".","",",","",""
"null","<div style=""color:white; font-size:60px;"">+</div>","null","html-keyboard-response","122","383977","0.0-8.0-0.5","fixation","","","","",""
"1207.3849998414516","Stimuli/Hangul_F29.bmp","190","image-keyboard-response","123","385186","0.0-8.0-1.5","test",".","",".","",""
"null","<div style=""color:white; font-size:60px;"">+</div>","null","html-keyboard-response","124","386188","0.0-8.0-0.6","fixation","","","","",""
"3604.6750000678003","Stimuli/Hangul_F41.bmp","190","image-keyboard-response","125","389793","0.0-8.0-1.6","test",".","",".","",""
"null","<div style=""color:white; font-size:60px;"">+</div>","null","html-keyboard-response","126","390794","0.0-8.0-0.7","fixation","","","","",""
"2560.014999937266","Stimuli/Hangul_F28.bmp","188","image-keyboard-response","127","393355","0.0-8.0-1.7","test",".","",",","",""
"null","<div style=""color:white; font-size:60px;"">+</div>","null","html-keyboard-response","128","394356","0.0-8.0-0.8","fixation","","","","",""
"1538.2899998221546","Stimuli/Hangul_M40.bmp","190","image-keyboard-response","129","395895","0.0-8.0-1.8","test",",","",".","",""
"null","<div style=""color:white; font-size:60px;"">+</div>","null","html-keyboard-response","130","396897","0.0-8.0-0.9","fixation","","","","",""
"2299.9249999411404","Stimuli/Hangul_F37.bmp","190","image-keyboard-response","131","399198","0.0-8.0-1.9","test",".","",".","",""
"null","<div style=""color:white; font-size:60px;"">+</div>","null","html-keyboard-response","132","400199","0.0-8.0-0.10","fixation","","","","",""
"4617.349999956787","Stimuli/Hangul_M30.bmp","188","image-keyboard-response","133","404817","0.0-8.0-1.10","test",",","",",","",""
"null","<div style=""color:white; font-size:60px;"">+</div>","null","html-keyboard-response","134","405818","0.0-8.0-0.11","fixation","","","","",""
"1629.634999902919","Stimuli/Hangul_M46.bmp","188","image-keyboard-response","135","407449","0.0-8.0-1.11","test",",","",",","",""
"null","<div style=""color:white; font-size:60px;"">+</div>","null","html-keyboard-response","136","408450","0.0-8.0-0.12","fixation","","","","",""
"4358.985000057146","Stimuli/Hangul_M45.bmp","188","image-keyboard-response","137","412810","0.0-8.0-1.12","test",",","",",","",""
"null","<div style=""color:white; font-size:60px;"">+</div>","null","html-keyboard-response","138","413812","0.0-8.0-0.13","fixation","","","","",""
"1321.6049999464303","Stimuli/Hangul_M41.bmp","190","image-keyboard-response","139","415134","0.0-8.0-1.13","test",",","",".","",""
"null","<div style=""color:white; font-size:60px;"">+</div>","null","html-keyboard-response","140","416135","0.0-8.0-0.14","fixation","","","","",""
"2472.4300000816584","Stimuli/Hangul_M39.bmp","190","image-keyboard-response","141","418608","0.0-8.0-1.14","test",",","",".","",""
"null","<div style=""color:white; font-size:60px;"">+</div>","null","html-keyboard-response","142","419610","0.0-8.0-0.15","fixation","","","","",""
"2489.79500005953","Stimuli/Hangul_F42.bmp","190","image-keyboard-response","143","422101","0.0-8.0-1.15","test",".","",".","",""
"null","<div style=""color:white; font-size:60px;"">+</div>","null","html-keyboard-response","144","423102","0.0-8.0-0.16","fixation","","","","",""
"4361.4449999295175","Stimuli/Hangul_M42.bmp","188","image-keyboard-response","145","427464","0.0-8.0-1.16","test",",","",",","",""
"null","<div style=""color:white; font-size:60px;"">+</div>","null","html-keyboard-response","146","428465","0.0-8.0-0.17","fixation","","","","",""
"2327.9849998652935","Stimuli/Hangul_F31.bmp","190","image-keyboard-response","147","430794","0.0-8.0-1.17","test",".","",".","",""
"null","<div style=""color:white; font-size:60px;"">+</div>","null","html-keyboard-response","148","431796","0.0-8.0-0.18","fixation","","","","",""
"2716.084999963641","Stimuli/Hangul_M26.bmp","190","image-keyboard-response","149","434512","0.0-8.0-1.18","test",",","",".","",""
"null","<div style=""color:white; font-size:60px;"">+</div>","null","html-keyboard-response","150","435513","0.0-8.0-0.19","fixation","","","","",""
"1478.6049998365343","Stimuli/Hangul_M44.bmp","188","image-keyboard-response","151","436993","0.0-8.0-1.19","test",",","",",","",""
"null","<div style=""color:white; font-size:60px;"">+</div>","null","html-keyboard-response","152","437994","0.0-8.0-0.20","fixation","","","","",""
"3364.9699999950826","Stimuli/Hangul_M48.bmp","190","image-keyboard-response","153","441360","0.0-8.0-1.20","test",",","",".","",""
"null","<div style=""color:white; font-size:60px;"">+</div>","null","html-keyboard-response","154","442361","0.0-8.0-0.21","fixation","","","","",""
"1419.6699999738485","Stimuli/Hangul_M37.bmp","188","image-keyboard-response","155","443781","0.0-8.0-1.21","test",",","",",","",""
"null","<div style=""color:white; font-size:60px;"">+</div>","null","html-keyboard-response","156","444783","0.0-8.0-0.22","fixation","","","","",""
"1970.0549999251962","Stimuli/Hangul_F36.bmp","188","image-keyboard-response","157","446754","0.0-8.0-1.22","test",".","",",","",""
"null","<div style=""color:white; font-size:60px;"">+</div>","null","html-keyboard-response","158","447756","0.0-8.0-0.23","fixation","","","","",""
"1371.324999956414","Stimuli/Hangul_F47.bmp","190","image-keyboard-response","159","449128","0.0-8.0-1.23","test",".","",".","",""
"null","<div style=""color:white; font-size:60px;"">+</div>","null","html-keyboard-response","160","450129","0.0-8.0-0.24","fixation","","","","",""
"2923.454999923706","Stimuli/Hangul_M35.bmp","188","image-keyboard-response","161","453053","0.0-8.0-1.24","test",",","",",","",""
"null","<div style=""color:white; font-size:60px;"">+</div>","null","html-keyboard-response","162","454054","0.0-8.0-0.25","fixation","","","","",""
"1252.3950000759214","Stimuli/Hangul_F34.bmp","190","image-keyboard-response","163","455307","0.0-8.0-1.25","test",".","",".","",""
"null","<div style=""color:white; font-size:60px;"">+</div>","null","html-keyboard-response","164","456308","0.0-8.0-0.26","fixation","","","","",""
"4773.515000008047","Stimuli/Hangul_M36.bmp","190","image-keyboard-response","165","461082","0.0-8.0-1.26","test",",","",".","",""
"null","<div style=""color:white; font-size:60px;"">+</div>","null","html-keyboard-response","166","462083","0.0-8.0-0.27","fixation","","","","",""
"3328.514999942854","Stimuli/Hangul_F30.bmp","190","image-keyboard-response","167","465413","0.0-8.0-1.27","test",".","",".","",""
"null","<div style=""color:white; font-size:60px;"">+</div>","null","html-keyboard-response","168","466413","0.0-8.0-0.28","fixation","","","","",""
"3332.7099999878556","Stimuli/Hangul_M32.bmp","190","image-keyboard-response","169","469747","0.0-8.0-1.28","test",",","",".","",""
"null","<div style=""color:white; font-size:60px;"">+</div>","null","html-keyboard-response","170","470749","0.0-8.0-0.29","fixation","","","","",""
"2189.894999843091","Stimuli/Hangul_F44.bmp","190","image-keyboard-response","171","472939","0.0-8.0-1.29","test",".","",".","",""
"null","<div style=""color:white; font-size:60px;"">+</div>","null","html-keyboard-response","172","473941","0.0-8.0-0.30","fixation","","","","",""
"3336.1750000622123","Stimuli/Hangul_F33.bmp","190","image-keyboard-response","173","477278","0.0-8.0-1.30","test",".","",".","",""
"null","<div style=""color:white; font-size:60px;"">+</div>","null","html-keyboard-response","174","478280","0.0-8.0-0.31","fixation","","","","",""
"4439.865000080317","Stimuli/Hangul_F26.bmp","188","image-keyboard-response","175","482720","0.0-8.0-1.31","test",".","",",","",""
"null","<div style=""color:white; font-size:60px;"">+</div>","null","html-keyboard-response","176","483722","0.0-8.0-0.32","fixation","","","","",""
"3945.1150000095367","Stimuli/Hangul_F27.bmp","188","image-keyboard-response","177","487668","0.0-8.0-1.32","test",".","",",","",""
"null","<div style=""color:white; font-size:60px;"">+</div>","null","html-keyboard-response","178","488668","0.0-8.0-0.33","fixation","","","","",""
"4828.909999923781","Stimuli/Hangul_F40.bmp","190","image-keyboard-response","179","493498","0.0-8.0-1.33","test",".","",".","",""
"null","<div style=""color:white; font-size:60px;"">+</div>","null","html-keyboard-response","180","494499","0.0-8.0-0.34","fixation","","","","",""
"1444.6000000461936","Stimuli/Hangul_M34.bmp","188","image-keyboard-response","181","495944","0.0-8.0-1.34","test",",","",",","",""
"null","<div style=""color:white; font-size:60px;"">+</div>","null","html-keyboard-response","182","496946","0.0-8.0-0.35","fixation","","","","",""
"2338.105000089854","Stimuli/Hangul_M47.bmp","188","image-keyboard-response","183","499285","0.0-8.0-1.35","test",",","",",","",""
"null","<div style=""color:white; font-size:60px;"">+</div>","null","html-keyboard-response","184","500286","0.0-8.0-0.36","fixation","","","","",""
"1624.4850000366569","Stimuli/Hangul_M25.bmp","190","image-keyboard-response","185","501911","0.0-8.0-1.36","test",",","",".","",""
"null","<div style=""color:white; font-size:60px;"">+</div>","null","html-keyboard-response","186","502912","0.0-8.0-0.37","fixation","","","","",""
"2936.669999966398","Stimuli/Hangul_M43.bmp","188","image-keyboard-response","187","505850","0.0-8.0-1.37","test",",","",",","",""
"null","<div style=""color:white; font-size:60px;"">+</div>","null","html-keyboard-response","188","506852","0.0-8.0-0.38","fixation","","","","",""
"2611.6649999748915","Stimuli/Hangul_F49.bmp","190","image-keyboard-response","189","509465","0.0-8.0-1.38","test",".","",".","",""
"null","<div style=""color:white; font-size:60px;"">+</div>","null","html-keyboard-response","190","510467","0.0-8.0-0.39","fixation","","","","",""
"2689.8149999324232","Stimuli/Hangul_F46.bmp","190","image-keyboard-response","191","513157","0.0-8.0-1.39","test",".","",".","",""
"null","<div style=""color:white; font-size:60px;"">+</div>","null","html-keyboard-response","192","514158","0.0-8.0-0.40","fixation","","","","",""
"3616.6149999480695","Stimuli/Hangul_F25.bmp","190","image-keyboard-response","193","517776","0.0-8.0-1.40","test",".","",".","",""
"null","<div style=""color:white; font-size:60px;"">+</div>","null","html-keyboard-response","194","518777","0.0-8.0-0.41","fixation","","","","",""
"1672.275000018999","Stimuli/Hangul_M27.bmp","188","image-keyboard-response","195","520450","0.0-8.0-1.41","test",",","",",","",""
"null","<div style=""color:white; font-size:60px;"">+</div>","null","html-keyboard-response","196","521451","0.0-8.0-0.42","fixation","","","","",""
"1986.4950000774115","Stimuli/Hangul_F32.bmp","190","image-keyboard-response","197","523438","0.0-8.0-1.42","test",".","",".","",""
"null","<div style=""color:white; font-size:60px;"">+</div>","null","html-keyboard-response","198","524439","0.0-8.0-0.43","fixation","","","","",""
"14862.7400000114","Stimuli/Hangul_M38.bmp","190","image-keyboard-response","199","539303","0.0-8.0-1.43","test",",","",".","",""
"null","<div style=""color:white; font-size:60px;"">+</div>","null","html-keyboard-response","200","540304","0.0-8.0-0.44","fixation","","","","",""
"2088.1750001572073","Stimuli/Hangul_M29.bmp","188","image-keyboard-response","201","542393","0.0-8.0-1.44","test",",","",",","",""
"null","<div style=""color:white; font-size:60px;"">+</div>","null","html-keyboard-response","202","543394","0.0-8.0-0.45","fixation","","","","",""
"1696.460000006482","Stimuli/Hangul_F45.bmp","188","image-keyboard-response","203","545091","0.0-8.0-1.45","test",".","",",","",""
"null","<div style=""color:white; font-size:60px;"">+</div>","null","html-keyboard-response","204","546093","0.0-8.0-0.46","fixation","","","","",""
"1337.9700002260506","Stimuli/Hangul_F48.bmp","190","image-keyboard-response","205","547432","0.0-8.0-1.46","test",".","",".","",""
"null","<div style=""color:white; font-size:60px;"">+</div>","null","html-keyboard-response","206","548434","0.0-8.0-0.47","fixation","","","","",""
"1451.3300000689924","Stimuli/Hangul_F39.bmp","190","image-keyboard-response","207","549886","0.0-8.0-1.47","test",".","",".","",""
"null","<div style=""color:white; font-size:60px;"">+</div>","null","html-keyboard-response","208","550887","0.0-8.0-0.48","fixation","","","","",""
"1794.5349998772144","Stimuli/Hangul_F35.bmp","190","image-keyboard-response","209","552682","0.0-8.0-1.48","test",".","",".","",""
"null","<div style=""color:white; font-size:60px;"">+</div>","null","html-keyboard-response","210","553684","0.0-8.0-0.49","fixation","","","","",""
"2620.1299999374896","Stimuli/Hangul_M28.bmp","188","image-keyboard-response","211","556305","0.0-8.0-1.49","test",",","",",","",""
"24880.91000006534","<p style=""color:white;"">Half way there! Please take a moment to rest.</p> <p style=""color:white;"">When you are ready to continue with block 3 of 4, press the space bar.</p> ","32","html-keyboard-response","212","581186","0.0-9.0","","","","","",""
"null","<div style=""color:white; font-size:60px;"">+</div>","null","html-keyboard-response","213","584189","0.0-10.0-0.0","fixation","","","","",""
"3067.134999902919","Stimuli/Hangul_F50.bmp","190","image-keyboard-response","214","587257","0.0-10.0-1.0","test",".","",".","",""
"null","<div style=""color:white; font-size:60px;"">+</div>","null","html-keyboard-response","215","588258","0.0-10.0-0.1","fixation","","","","",""
"1198.629999998957","Stimuli/Hangul_M51.bmp","188","image-keyboard-response","216","589457","0.0-10.0-1.1","test",",","",",","",""
"null","<div style=""color:white; font-size:60px;"">+</div>","null","html-keyboard-response","217","590459","0.0-10.0-0.2","fixation","","","","",""
"1144.425000064075","Stimuli/Hangul_M62.bmp","188","image-keyboard-response","218","591604","0.0-10.0-1.2","test",",","",",","",""
"null","<div style=""color:white; font-size:60px;"">+</div>","null","html-keyboard-response","219","592606","0.0-10.0-0.3","fixation","","","","",""
"3067.765000043437","Stimuli/Hangul_F71.bmp","190","image-keyboard-response","220","595674","0.0-10.0-1.3","test",".","",".","",""
"null","<div style=""color:white; font-size:60px;"">+</div>","null","html-keyboard-response","221","596675","0.0-10.0-0.4","fixation","","","","",""
"1442.3299999907613","Stimuli/Hangul_F58.bmp","188","image-keyboard-response","222","598118","0.0-10.0-1.4","test",".","",",","",""
"null","<div style=""color:white; font-size:60px;"">+</div>","null","html-keyboard-response","223","599119","0.0-10.0-0.5","fixation","","","","",""
"1440.8299999777228","Stimuli/Hangul_F63.bmp","190","image-keyboard-response","224","600560","0.0-10.0-1.5","test",".","",".","",""
"null","<div style=""color:white; font-size:60px;"">+</div>","null","html-keyboard-response","225","601563","0.0-10.0-0.6","fixation","","","","",""
"1897.164999973029","Stimuli/Hangul_F64.bmp","190","image-keyboard-response","226","603461","0.0-10.0-1.6","test",".","",".","",""
"null","<div style=""color:white; font-size:60px;"">+</div>","null","html-keyboard-response","227","604463","0.0-10.0-0.7","fixation","","","","",""
"2627.555000130087","Stimuli/Hangul_M74.bmp","188","image-keyboard-response","228","607091","0.0-10.0-1.7","test",",","",",","",""
"null","<div style=""color:white; font-size:60px;"">+</div>","null","html-keyboard-response","229","608092","0.0-10.0-0.8","fixation","","","","",""
"3137.2849999461323","Stimuli/Hangul_F69.bmp","188","image-keyboard-response","230","611230","0.0-10.0-1.8","test",".","",",","",""
"null","<div style=""color:white; font-size:60px;"">+</div>","null","html-keyboard-response","231","612231","0.0-10.0-0.9","fixation","","","","",""
"7937.404999975115","Stimuli/Hangul_M50.bmp","190","image-keyboard-response","232","620169","0.0-10.0-1.9","test",",","",".","",""
"null","<div style=""color:white; font-size:60px;"">+</div>","null","html-keyboard-response","233","621171","0.0-10.0-0.10","fixation","","","","",""
"3696.364999981597","Stimuli/Hangul_F51.bmp","190","image-keyboard-response","234","624868","0.0-10.0-1.10","test",".","",".","",""
"null","<div style=""color:white; font-size:60px;"">+</div>","null","html-keyboard-response","235","625869","0.0-10.0-0.11","fixation","","","","",""
"1467.8449998609722","Stimuli/Hangul_M65.bmp","188","image-keyboard-response","236","627338","0.0-10.0-1.11","test",",","",",","",""
"null","<div style=""color:white; font-size:60px;"">+</div>","null","html-keyboard-response","237","628339","0.0-10.0-0.12","fixation","","","","",""
"4473.81000011228","Stimuli/Hangul_F65.bmp","190","image-keyboard-response","238","632813","0.0-10.0-1.12","test",".","",".","",""
"null","<div style=""color:white; font-size:60px;"">+</div>","null","html-keyboard-response","239","633814","0.0-10.0-0.13","fixation","","","","",""
"5188.265000004321","Stimuli/Hangul_F56.bmp","190","image-keyboard-response","240","639003","0.0-10.0-1.13","test",".","",".","",""
"null","<div style=""color:white; font-size:60px;"">+</div>","null","html-keyboard-response","241","640006","0.0-10.0-0.14","fixation","","","","",""
"4823.550000088289","Stimuli/Hangul_M67.bmp","188","image-keyboard-response","242","644830","0.0-10.0-1.14","test",",","",",","",""
"null","<div style=""color:white; font-size:60px;"">+</div>","null","html-keyboard-response","243","645831","0.0-10.0-0.15","fixation","","","","",""
"1328.2349999062717","Stimuli/Hangul_M60.bmp","188","image-keyboard-response","244","647160","0.0-10.0-1.15","test",",","",",","",""
"null","<div style=""color:white; font-size:60px;"">+</div>","null","html-keyboard-response","245","648161","0.0-10.0-0.16","fixation","","","","",""
"1670.7200000528246","Stimuli/Hangul_M64.bmp","188","image-keyboard-response","246","649833","0.0-10.0-1.16","test",",","",",","",""
"null","<div style=""color:white; font-size:60px;"">+</div>","null","html-keyboard-response","247","650835","0.0-10.0-0.17","fixation","","","","",""
"1395.734999794513","Stimuli/Hangul_M63.bmp","188","image-keyboard-response","248","652231","0.0-10.0-1.17","test",",","",",","",""
"null","<div style=""color:white; font-size:60px;"">+</div>","null","html-keyboard-response","249","653233","0.0-10.0-0.18","fixation","","","","",""
"4140.580000123009","Stimuli/Hangul_F68.bmp","190","image-keyboard-response","250","657374","0.0-10.0-1.18","test",".","",".","",""
"null","<div style=""color:white; font-size:60px;"">+</div>","null","html-keyboard-response","251","658375","0.0-10.0-0.19","fixation","","","","",""
"1289.6650000475347","Stimuli/Hangul_F54.bmp","190","image-keyboard-response","252","659666","0.0-10.0-1.19","test",".","",".","",""
"null","<div style=""color:white; font-size:60px;"">+</div>","null","html-keyboard-response","253","660667","0.0-10.0-0.20","fixation","","","","",""
"3501.0899999178946","Stimuli/Hangul_M66.bmp","188","image-keyboard-response","254","664169","0.0-10.0-1.20","test",",","",",","",""
"null","<div style=""color:white; font-size:60px;"">+</div>","null","html-keyboard-response","255","665170","0.0-10.0-0.21","fixation","","","","",""
"4180.6600000709295","Stimuli/Hangul_F66.bmp","188","image-keyboard-response","256","669352","0.0-10.0-1.21","test",".","",",","",""
"null","<div style=""color:white; font-size:60px;"">+</div>","null","html-keyboard-response","257","670353","0.0-10.0-0.22","fixation","","","","",""
"14109.919999958947","Stimuli/Hangul_F67.bmp","188","image-keyboard-response","258","684464","0.0-10.0-1.22","test",".","",",","",""
"null","<div style=""color:white; font-size:60px;"">+</div>","null","html-keyboard-response","259","685465","0.0-10.0-0.23","fixation","","","","",""
"2971.855000127107","Stimuli/Hangul_F73.bmp","190","image-keyboard-response","260","688438","0.0-10.0-1.23","test",".","",".","",""
"null","<div style=""color:white; font-size:60px;"">+</div>","null","html-keyboard-response","261","689440","0.0-10.0-0.24","fixation","","","","",""
"2687.30999995023","Stimuli/Hangul_M68.bmp","188","image-keyboard-response","262","692128","0.0-10.0-1.24","test",",","",",","",""
"null","<div style=""color:white; font-size:60px;"">+</div>","null","html-keyboard-response","263","693131","0.0-10.0-0.25","fixation","","","","",""
"4435.80500013195","Stimuli/Hangul_M56.bmp","190","image-keyboard-response","264","697567","0.0-10.0-1.25","test",",","",".","",""
"null","<div style=""color:white; font-size:60px;"">+</div>","null","html-keyboard-response","265","698568","0.0-10.0-0.26","fixation","","","","",""
"1434.059999883175","Stimuli/Hangul_F61.bmp","188","image-keyboard-response","266","700003","0.0-10.0-1.26","test",".","",",","",""
"null","<div style=""color:white; font-size:60px;"">+</div>","null","html-keyboard-response","267","701005","0.0-10.0-0.27","fixation","","","","",""
"1604.6949999872595","Stimuli/Hangul_M73.bmp","188","image-keyboard-response","268","702610","0.0-10.0-1.27","test",",","",",","",""
"null","<div style=""color:white; font-size:60px;"">+</div>","null","html-keyboard-response","269","703610","0.0-10.0-0.28","fixation","","","","",""
"1455.1399999763817","Stimuli/Hangul_M61.bmp","190","image-keyboard-response","270","705066","0.0-10.0-1.28","test",",","",".","",""
"null","<div style=""color:white; font-size:60px;"">+</div>","null","html-keyboard-response","271","706068","0.0-10.0-0.29","fixation","","","","",""
"1564.46999986656","Stimuli/Hangul_M70.bmp","188","image-keyboard-response","272","707633","0.0-10.0-1.29","test",",","",",","",""
"null","<div style=""color:white; font-size:60px;"">+</div>","null","html-keyboard-response","273","708634","0.0-10.0-0.30","fixation","","","","",""
"3384.390000021085","Stimuli/Hangul_F52.bmp","190","image-keyboard-response","274","712019","0.0-10.0-1.30","test",".","",".","",""
"null","<div style=""color:white; font-size:60px;"">+</div>","null","html-keyboard-response","275","713021","0.0-10.0-0.31","fixation","","","","",""
"6457.079999847338","Stimuli/Hangul_F62.bmp","188","image-keyboard-response","276","719479","0.0-10.0-1.31","test",".","",",","",""
"null","<div style=""color:white; font-size:60px;"">+</div>","null","html-keyboard-response","277","720481","0.0-10.0-0.32","fixation","","","","",""
"6003.700000001118","Stimuli/Hangul_M55.bmp","188","image-keyboard-response","278","726485","0.0-10.0-1.32","test",",","",",","",""
"null","<div style=""color:white; font-size:60px;"">+</div>","null","html-keyboard-response","279","727487","0.0-10.0-0.33","fixation","","","","",""
"6455.58000006713","Stimuli/Hangul_M53.bmp","188","image-keyboard-response","280","733943","0.0-10.0-1.33","test",",","",",","",""
"null","<div style=""color:white; font-size:60px;"">+</div>","null","html-keyboard-response","281","734944","0.0-10.0-0.34","fixation","","","","",""
"4820.365000050515","Stimuli/Hangul_M59.bmp","190","image-keyboard-response","282","739765","0.0-10.0-1.34","test",",","",".","",""
"null","<div style=""color:white; font-size:60px;"">+</div>","null","html-keyboard-response","283","740766","0.0-10.0-0.35","fixation","","","","",""
"3040.6599999405444","Stimuli/Hangul_M72.bmp","188","image-keyboard-response","284","743808","0.0-10.0-1.35","test",",","",",","",""
"null","<div style=""color:white; font-size:60px;"">+</div>","null","html-keyboard-response","285","744808","0.0-10.0-0.36","fixation","","","","",""
"1955.0950000993907","Stimuli/Hangul_F55.bmp","188","image-keyboard-response","286","746764","0.0-10.0-1.36","test",".","",",","",""
"null","<div style=""color:white; font-size:60px;"">+</div>","null","html-keyboard-response","287","747765","0.0-10.0-0.37","fixation","","","","",""
"7875.309999799356","Stimuli/Hangul_M58.bmp","188","image-keyboard-response","288","755641","0.0-10.0-1.37","test",",","",",","",""
"null","<div style=""color:white; font-size:60px;"">+</div>","null","html-keyboard-response","289","756643","0.0-10.0-0.38","fixation","","","","",""
"2968.285000184551","Stimuli/Hangul_F74.bmp","190","image-keyboard-response","290","759612","0.0-10.0-1.38","test",".","",".","",""
"null","<div style=""color:white; font-size:60px;"">+</div>","null","html-keyboard-response","291","760614","0.0-10.0-0.39","fixation","","","","",""
"2011.0100000165403","Stimuli/Hangul_F60.bmp","190","image-keyboard-response","292","762626","0.0-10.0-1.39","test",".","",".","",""
"null","<div style=""color:white; font-size:60px;"">+</div>","null","html-keyboard-response","293","763628","0.0-10.0-0.40","fixation","","","","",""
"2789.790000068024","Stimuli/Hangul_M71.bmp","188","image-keyboard-response","294","766419","0.0-10.0-1.40","test",",","",",","",""
"null","<div style=""color:white; font-size:60px;"">+</div>","null","html-keyboard-response","295","767421","0.0-10.0-0.41","fixation","","","","",""
"3124.6599999722093","Stimuli/Hangul_M54.bmp","190","image-keyboard-response","296","770546","0.0-10.0-1.41","test",",","",".","",""
"null","<div style=""color:white; font-size:60px;"">+</div>","null","html-keyboard-response","297","771547","0.0-10.0-0.42","fixation","","","","",""
"1291.8499999213964","Stimuli/Hangul_M57.bmp","188","image-keyboard-response","298","772840","0.0-10.0-1.42","test",",","",",","",""
"null","<div style=""color:white; font-size:60px;"">+</div>","null","html-keyboard-response","299","773841","0.0-10.0-0.43","fixation","","","","",""
"1910.4700000025332","Stimuli/Hangul_M52.bmp","188","image-keyboard-response","300","775752","0.0-10.0-1.43","test",",","",",","",""
"null","<div style=""color:white; font-size:60px;"">+</div>","null","html-keyboard-response","301","776753","0.0-10.0-0.44","fixation","","","","",""
"1524.5900000445545","Stimuli/Hangul_M69.bmp","188","image-keyboard-response","302","778279","0.0-10.0-1.44","test",",","",",","",""
"null","<div style=""color:white; font-size:60px;"">+</div>","null","html-keyboard-response","303","779280","0.0-10.0-0.45","fixation","","","","",""
"1722.4600000772625","Stimuli/Hangul_F72.bmp","188","image-keyboard-response","304","781003","0.0-10.0-1.45","test",".","",",","",""
"null","<div style=""color:white; font-size:60px;"">+</div>","null","html-keyboard-response","305","782005","0.0-10.0-0.46","fixation","","","","",""
"1488.0099999718368","Stimuli/Hangul_F57.bmp","190","image-keyboard-response","306","783493","0.0-10.0-1.46","test",".","",".","",""
"null","<div style=""color:white; font-size:60px;"">+</div>","null","html-keyboard-response","307","784495","0.0-10.0-0.47","fixation","","","","",""
"1574.4549999944866","Stimuli/Hangul_F59.bmp","190","image-keyboard-response","308","786070","0.0-10.0-1.47","test",".","",".","",""
"null","<div style=""color:white; font-size:60px;"">+</div>","null","html-keyboard-response","309","787071","0.0-10.0-0.48","fixation","","","","",""
"1768.2500001974404","Stimuli/Hangul_F53.bmp","190","image-keyboard-response","310","788840","0.0-10.0-1.48","test",".","",".","",""
"null","<div style=""color:white; font-size:60px;"">+</div>","null","html-keyboard-response","311","789842","0.0-10.0-0.49","fixation","","","","",""
"1798.3600001316518","Stimuli/Hangul_F70.bmp","188","image-keyboard-response","312","791641","0.0-10.0-1.49","test",".","",",","",""
"9344.500000122935","<p style=""color:white;"">One more block to go! Please take a moment to rest.</p> <p style=""color:white;"">When you are ready to continue with block 4 of 4, press the space bar.</p> ","32","html-keyboard-response","313","800986","0.0-11.0","","","","","",""
"null","<div style=""color:white; font-size:60px;"">+</div>","null","html-keyboard-response","314","803988","0.0-12.0-0.0","fixation","","","","",""
"1387.6200001686811","Stimuli/Hangul_F99.bmp","188","image-keyboard-response","315","805377","0.0-12.0-1.0","test",".","",",","",""
"null","<div style=""color:white; font-size:60px;"">+</div>","null","html-keyboard-response","316","806377","0.0-12.0-0.1","fixation","","","","",""
"1626.7500000540167","Stimuli/Hangul_M90.bmp","188","image-keyboard-response","317","808005","0.0-12.0-1.1","test",",","",",","",""
"null","<div style=""color:white; font-size:60px;"">+</div>","null","html-keyboard-response","318","809006","0.0-12.0-0.2","fixation","","","","",""
"1468.044999986887","Stimuli/Hangul_F75.bmp","190","image-keyboard-response","319","810475","0.0-12.0-1.2","test",".","",".","",""
"null","<div style=""color:white; font-size:60px;"">+</div>","null","html-keyboard-response","320","811476","0.0-12.0-0.3","fixation","","","","",""
"1471.1349999997765","Stimuli/Hangul_F92.bmp","190","image-keyboard-response","321","812947","0.0-12.0-1.3","test",".","",".","",""
"null","<div style=""color:white; font-size:60px;"">+</div>","null","html-keyboard-response","322","813949","0.0-12.0-0.4","fixation","","","","",""
"1724.1450001019984","Stimuli/Hangul_F94.bmp","190","image-keyboard-response","323","815674","0.0-12.0-1.4","test",".","",".","",""
"null","<div style=""color:white; font-size:60px;"">+</div>","null","html-keyboard-response","324","816676","0.0-12.0-0.5","fixation","","","","",""
"2307.879999978468","Stimuli/Hangul_M82.bmp","190","image-keyboard-response","325","818984","0.0-12.0-1.5","test",",","",".","",""
"null","<div style=""color:white; font-size:60px;"">+</div>","null","html-keyboard-response","326","819985","0.0-12.0-0.6","fixation","","","","",""
"1274.9649998731911","Stimuli/Hangul_F81.bmp","190","image-keyboard-response","327","821260","0.0-12.0-1.6","test",".","",".","",""
"null","<div style=""color:white; font-size:60px;"">+</div>","null","html-keyboard-response","328","822262","0.0-12.0-0.7","fixation","","","","",""
"1544.4799999240786","Stimuli/Hangul_F97.bmp","190","image-keyboard-response","329","823807","0.0-12.0-1.7","test",".","",".","",""
"null","<div style=""color:white; font-size:60px;"">+</div>","null","html-keyboard-response","330","824809","0.0-12.0-0.8","fixation","","","","",""
"1858.2649999298155","Stimuli/Hangul_M78.bmp","188","image-keyboard-response","331","826667","0.0-12.0-1.8","test",",","",",","",""
"null","<div style=""color:white; font-size:60px;"">+</div>","null","html-keyboard-response","332","827668","0.0-12.0-0.9","fixation","","","","",""
"3283.3600000012666","Stimuli/Hangul_F83.bmp","190","image-keyboard-response","333","830953","0.0-12.0-1.9","test",".","",".","",""
"null","<div style=""color:white; font-size:60px;"">+</div>","null","html-keyboard-response","334","831954","0.0-12.0-0.10","fixation","","","","",""
"2276.4200000092387","Stimuli/Hangul_M76.bmp","190","image-keyboard-response","335","834231","0.0-12.0-1.10","test",",","",".","",""
"null","<div style=""color:white; font-size:60px;"">+</div>","null","html-keyboard-response","336","835234","0.0-12.0-0.11","fixation","","","","",""
"1673.5450001433492","Stimuli/Hangul_M92.bmp","188","image-keyboard-response","337","836908","0.0-12.0-1.11","test",",","",",","",""
"null","<div style=""color:white; font-size:60px;"">+</div>","null","html-keyboard-response","338","837911","0.0-12.0-0.12","fixation","","","","",""
"1234.6550000365824","Stimuli/Hangul_F85.bmp","190","image-keyboard-response","339","839146","0.0-12.0-1.12","test",".","",".","",""
"null","<div style=""color:white; font-size:60px;"">+</div>","null","html-keyboard-response","340","840148","0.0-12.0-0.13","fixation","","","","",""
"1841.9250000733882","Stimuli/Hangul_M99.bmp","190","image-keyboard-response","341","841990","0.0-12.0-1.13","test",",","",".","",""
"null","<div style=""color:white; font-size:60px;"">+</div>","null","html-keyboard-response","342","842992","0.0-12.0-0.14","fixation","","","","",""
"1292.009999975562","Stimuli/Hangul_M89.bmp","188","image-keyboard-response","343","844284","0.0-12.0-1.14","test",",","",",","",""
"null","<div style=""color:white; font-size:60px;"">+</div>","null","html-keyboard-response","344","845286","0.0-12.0-0.15","fixation","","","","",""
"2862.5399998854846","Stimuli/Hangul_F82.bmp","190","image-keyboard-response","345","848149","0.0-12.0-1.15","test",".","",".","",""
"null","<div style=""color:white; font-size:60px;"">+</div>","null","html-keyboard-response","346","849150","0.0-12.0-0.16","fixation","","","","",""
"3044.5199999958277","Stimuli/Hangul_F89.bmp","190","image-keyboard-response","347","852196","0.0-12.0-1.16","test",".","",".","",""
"null","<div style=""color:white; font-size:60px;"">+</div>","null","html-keyboard-response","348","853196","0.0-12.0-0.17","fixation","","","","",""
"2697.010000003502","Stimuli/Hangul_M96.bmp","188","image-keyboard-response","349","855894","0.0-12.0-1.17","test",",","",",","",""
"null","<div style=""color:white; font-size:60px;"">+</div>","null","html-keyboard-response","350","856896","0.0-12.0-0.18","fixation","","","","",""
"2528.510000091046","Stimuli/Hangul_F77.bmp","190","image-keyboard-response","351","859425","0.0-12.0-1.18","test",".","",".","",""
"null","<div style=""color:white; font-size:60px;"">+</div>","null","html-keyboard-response","352","860426","0.0-12.0-0.19","fixation","","","","",""
"5533.04999996908","Stimuli/Hangul_F86.bmp","188","image-keyboard-response","353","865960","0.0-12.0-1.19","test",".","",",","",""
"null","<div style=""color:white; font-size:60px;"">+</div>","null","html-keyboard-response","354","866960","0.0-12.0-0.20","fixation","","","","",""
"1778.690000064671","Stimuli/Hangul_M98.bmp","188","image-keyboard-response","355","868740","0.0-12.0-1.20","test",",","",",","",""
"null","<div style=""color:white; font-size:60px;"">+</div>","null","html-keyboard-response","356","869741","0.0-12.0-0.21","fixation","","","","",""
"4137.295000022277","Stimuli/Hangul_M91.bmp","188","image-keyboard-response","357","873879","0.0-12.0-1.21","test",",","",",","",""
"null","<div style=""color:white; font-size:60px;"">+</div>","null","html-keyboard-response","358","874881","0.0-12.0-0.22","fixation","","","","",""
"6077.620000112802","Stimuli/Hangul_F88.bmp","188","image-keyboard-response","359","880959","0.0-12.0-1.22","test",".","",",","",""
"null","<div style=""color:white; font-size:60px;"">+</div>","null","html-keyboard-response","360","881961","0.0-12.0-0.23","fixation","","","","",""
"2217.8499998990446","Stimuli/Hangul_F79.bmp","190","image-keyboard-response","361","884180","0.0-12.0-1.23","test",".","",".","",""
"null","<div style=""color:white; font-size:60px;"">+</div>","null","html-keyboard-response","362","885181","0.0-12.0-0.24","fixation","","","","",""
"3216.8799999635667","Stimuli/Hangul_M85.bmp","190","image-keyboard-response","363","888399","0.0-12.0-1.24","test",",","",".","",""
"null","<div style=""color:white; font-size:60px;"">+</div>","null","html-keyboard-response","364","889401","0.0-12.0-0.25","fixation","","","","",""
"1151.9700000062585","Stimuli/Hangul_M77.bmp","190","image-keyboard-response","365","890553","0.0-12.0-1.25","test",",","",".","",""
"null","<div style=""color:white; font-size:60px;"">+</div>","null","html-keyboard-response","366","891554","0.0-12.0-0.26","fixation","","","","",""
"1726.8000000622123","Stimuli/Hangul_F91.bmp","188","image-keyboard-response","367","893282","0.0-12.0-1.26","test",".","",",","",""
"null","<div style=""color:white; font-size:60px;"">+</div>","null","html-keyboard-response","368","894283","0.0-12.0-0.27","fixation","","","","",""
"4249.214999843389","Stimuli/Hangul_F98.bmp","190","image-keyboard-response","369","898533","0.0-12.0-1.27","test",".","",".","",""
"null","<div style=""color:white; font-size:60px;"">+</div>","null","html-keyboard-response","370","899534","0.0-12.0-0.28","fixation","","","","",""
"1324.1400001570582","Stimuli/Hangul_F95.bmp","190","image-keyboard-response","371","900859","0.0-12.0-1.28","test",".","",".","",""
"null","<div style=""color:white; font-size:60px;"">+</div>","null","html-keyboard-response","372","901861","0.0-12.0-0.29","fixation","","","","",""
"1702.0749999210238","Stimuli/Hangul_M95.bmp","188","image-keyboard-response","373","903563","0.0-12.0-1.29","test",",","",",","",""
"null","<div style=""color:white; font-size:60px;"">+</div>","null","html-keyboard-response","374","904565","0.0-12.0-0.30","fixation","","","","",""
"5710.800000000745","Stimuli/Hangul_M83.bmp","188","image-keyboard-response","375","910276","0.0-12.0-1.30","test",",","",",","",""
"null","<div style=""color:white; font-size:60px;"">+</div>","null","html-keyboard-response","376","911279","0.0-12.0-0.31","fixation","","","","",""
"4507.354999892414","Stimuli/Hangul_F78.bmp","190","image-keyboard-response","377","915787","0.0-12.0-1.31","test",".","",".","",""
"null","<div style=""color:white; font-size:60px;"">+</div>","null","html-keyboard-response","378","916788","0.0-12.0-0.32","fixation","","","","",""
"2706.2349999323487","Stimuli/Hangul_F87.bmp","190","image-keyboard-response","379","919495","0.0-12.0-1.32","test",".","",".","",""
"null","<div style=""color:white; font-size:60px;"">+</div>","null","html-keyboard-response","380","920497","0.0-12.0-0.33","fixation","","","","",""
"3064.4199999514967","Stimuli/Hangul_M79.bmp","188","image-keyboard-response","381","923562","0.0-12.0-1.33","test",",","",",","",""
"null","<div style=""color:white; font-size:60px;"">+</div>","null","html-keyboard-response","382","924563","0.0-12.0-0.34","fixation","","","","",""
"8434.975000098348","Stimuli/Hangul_F80.bmp","188","image-keyboard-response","383","932999","0.0-12.0-1.34","test",".","",",","",""
"null","<div style=""color:white; font-size:60px;"">+</div>","null","html-keyboard-response","384","934001","0.0-12.0-0.35","fixation","","","","",""
"1612.4299999792129","Stimuli/Hangul_M94.bmp","188","image-keyboard-response","385","935614","0.0-12.0-1.35","test",",","",",","",""
"null","<div style=""color:white; font-size:60px;"">+</div>","null","html-keyboard-response","386","936615","0.0-12.0-0.36","fixation","","","","",""
"3704.4499998446554","Stimuli/Hangul_M81.bmp","188","image-keyboard-response","387","940320","0.0-12.0-1.36","test",",","",",","",""
"null","<div style=""color:white; font-size:60px;"">+</div>","null","html-keyboard-response","388","941321","0.0-12.0-0.37","fixation","","","","",""
"2522.439999971539","Stimuli/Hangul_M86.bmp","188","image-keyboard-response","389","943844","0.0-12.0-1.37","test",",","",",","",""
"null","<div style=""color:white; font-size:60px;"">+</div>","null","html-keyboard-response","390","944847","0.0-12.0-0.38","fixation","","","","",""
"2035.7749999966472","Stimuli/Hangul_M87.bmp","190","image-keyboard-response","391","946883","0.0-12.0-1.38","test",",","",".","",""
"null","<div style=""color:white; font-size:60px;"">+</div>","null","html-keyboard-response","392","947885","0.0-12.0-0.39","fixation","","","","",""
"1621.5500000398606","Stimuli/Hangul_M80.bmp","188","image-keyboard-response","393","949507","0.0-12.0-1.39","test",",","",",","",""
"null","<div style=""color:white; font-size:60px;"">+</div>","null","html-keyboard-response","394","950509","0.0-12.0-0.40","fixation","","","","",""
"1947.42999994196","Stimuli/Hangul_F96.bmp","190","image-keyboard-response","395","952457","0.0-12.0-1.40","test",".","",".","",""
"null","<div style=""color:white; font-size:60px;"">+</div>","null","html-keyboard-response","396","953459","0.0-12.0-0.41","fixation","","","","",""
"1590.3849999886006","Stimuli/Hangul_M97.bmp","188","image-keyboard-response","397","955050","0.0-12.0-1.41","test",",","",",","",""
"null","<div style=""color:white; font-size:60px;"">+</div>","null","html-keyboard-response","398","956052","0.0-12.0-0.42","fixation","","","","",""
"2776.0100001469254","Stimuli/Hangul_M93.bmp","188","image-keyboard-response","399","958829","0.0-12.0-1.42","test",",","",",","",""
"null","<div style=""color:white; font-size:60px;"">+</div>","null","html-keyboard-response","400","959830","0.0-12.0-0.43","fixation","","","","",""
"1215.929999947548","Stimuli/Hangul_M88.bmp","188","image-keyboard-response","401","961047","0.0-12.0-1.43","test",",","",",","",""
"null","<div style=""color:white; font-size:60px;"">+</div>","null","html-keyboard-response","402","962048","0.0-12.0-0.44","fixation","","","","",""
"1458.4599998779595","Stimuli/Hangul_F93.bmp","190","image-keyboard-response","403","963507","0.0-12.0-1.44","test",".","",".","",""
"null","<div style=""color:white; font-size:60px;"">+</div>","null","html-keyboard-response","404","964508","0.0-12.0-0.45","fixation","","","","",""
"2129.1950000450015","Stimuli/Hangul_F90.bmp","188","image-keyboard-response","405","966637","0.0-12.0-1.45","test",".","",",","",""
"null","<div style=""color:white; font-size:60px;"">+</div>","null","html-keyboard-response","406","967639","0.0-12.0-0.46","fixation","","","","",""
"1470.5650000832975","Stimuli/Hangul_M75.bmp","188","image-keyboard-response","407","969110","0.0-12.0-1.46","test",",","",",","",""
"null","<div style=""color:white; font-size:60px;"">+</div>","null","html-keyboard-response","408","970111","0.0-12.0-0.47","fixation","","","","",""
"1928.749999962747","Stimuli/Hangul_M84.bmp","190","image-keyboard-response","409","972040","0.0-12.0-1.47","test",",","",".","",""
"null","<div style=""color:white; font-size:60px;"">+</div>","null","html-keyboard-response","410","973041","0.0-12.0-0.48","fixation","","","","",""
"2688.805000158027","Stimuli/Hangul_F84.bmp","188","image-keyboard-response","411","975731","0.0-12.0-1.48","test",".","",",","",""
"null","<div style=""color:white; font-size:60px;"">+</div>","null","html-keyboard-response","412","976732","0.0-12.0-0.49","fixation","","","","",""
"1662.2450000140816","Stimuli/Hangul_F76.bmp","190","image-keyboard-response","413","978395","0.0-12.0-1.49","test",".","",".","",""
"2801.820000167936","<p style=""color:white;"">Phase I of the experiment is complete.</p> <p style=""color:white;"">Press the space bar to proceed to Phase II of the experiment.</p> ","32","html-keyboard-response","414","981198","0.0-13.0","","","","","",""
"40167.37999999896","<p style=""color:white;"">Now we are interested in how well you can predict patterns in the series of figures. You will be asked to predict whether the next figure in the series is more male-like or female-like. When you see the <q>Next Figure</q> prompt, press the corresponding response keys to indicate your prediction: </p><p style=""color:white;""> Male &#8594 <q>,</q> (comma)</p><p style=""color:white;""> Female &#8594 <q>.</q> (period)</p><p style=""color:white;"">The actual figure will then appear on the screen. After you see the figure, please guess the assigned gender with response keys. </p><p style=""color:white;"">As before, you will receive 2 cents for correctly classifying each figure.</p><p style=""color:white;"">Press either response keys to continue.</p>","188","html-keyboard-response","415","1023367","0.0-14.0","","","","","",""
"12805.149999912828","<p style=""color:white;"">PREDICTION BONUS</p> <p style=""color:white;"">Your prediction accuracy is the total number of correct predictions you make over the 200 trials.</p> <p style=""color:white;"">In addition to the 2 cents per correct figure classification, you have the chance to receive a bonus of 40 dollars IF your accuracy is above average relative to previous participants.</p><p style=""color:white;"">If your accuracy is below average relative to previous participants, then you will not receive the 40 dollar bonus.</p><p style=""color:white;"">Press the space bar to continue.</p>","32","html-keyboard-response","416","1036173","0.0-15.0","","","","","",""
"8580.469999928027","<p style=""color:white;"">Here are some examples.</p> <p style=""color:white;"">For each, predict whether the next figure looks more male-like or female-like. Then, when the figure appears, guess whether it looks more male-like or female-like and indicate your choice.</p> <p style=""color:white;"">Press the space bar to continue.</p>","32","html-keyboard-response","417","1044754","0.0-16.0","","","","","",""
"2812.9450001288205","<p style=""color:white;""> Next Figure: Male or Female? </p>","188","html-keyboard-response","418","1049568","0.0-17.0-0.0","prediction_train","","","",",",""
"null","<div style=""color:white; font-size:60px;"">+</div>","null","html-keyboard-response","419","1050570","0.0-17.0-1.0","fixation","","","","",""
"1580.0600000657141","Stimuli/Hangul_E0.bmp","188","image-keyboard-response","420","1052151","0.0-17.0-2.0","c2_train",",","","","",","
"2247.6500000339","<p style=""color:white;""> Next Figure: Male or Female? </p>","188","html-keyboard-response","421","1054399","0.0-17.0-0.1","prediction_train","","","",",",""
"null","<div style=""color:white; font-size:60px;"">+</div>","null","html-keyboard-response","422","1055400","0.0-17.0-1.1","fixation","","","","",""
"10212.064999854192","Stimuli/Hangul_E2.bmp","190","image-keyboard-response","423","1065613","0.0-17.0-2.1","c2_train",".","","","","."
"3681.7750001791865","<p style=""color:white;""> Next Figure: Male or Female? </p>","188","html-keyboard-response","424","1069295","0.0-17.0-0.2","prediction_train","","","",",",""
"null","<div style=""color:white; font-size:60px;"">+</div>","null","html-keyboard-response","425","1070297","0.0-17.0-1.2","fixation","","","","",""
"2559.249999932945","Stimuli/Hangul_E1.bmp","188","image-keyboard-response","426","1072857","0.0-17.0-2.2","c2_train",",","","","",","
"1725.709999911487","<p style=""color:white;"">Let us begin! Press the space bar when you are ready to start block 1 of 4.</p> ","32","html-keyboard-response","427","1074584","0.0-18.0","","","","","",""
"963.1150001659989","<p style=""color:white;""> Next Figure: Male or Female? </p>","188","html-keyboard-response","428","1077548","0.0-19.0-0.0","prediction","","","",",",""
"null","<div style=""color:white; font-size:60px;"">+</div>","null","html-keyboard-response","429","1078549","0.0-19.0-1.0","fixation","","","","",""
"1734.0450000483543","Stimuli/Hangul_M20.bmp","190","image-keyboard-response","430","1080284","0.0-19.0-2.0","c2_test",",","","","","."
"1862.0200001168996","<p style=""color:white;""> Next Figure: Male or Female? </p>","188","html-keyboard-response","431","1082147","0.0-19.0-0.1","prediction","","","",",",""
"null","<div style=""color:white; font-size:60px;"">+</div>","null","html-keyboard-response","432","1083148","0.0-19.0-1.1","fixation","","","","",""
"3254.295000107959","Stimuli/Hangul_M5.bmp","188","image-keyboard-response","433","1086403","0.0-19.0-2.1","c2_test",",","","","",","
"1093.5750000644475","<p style=""color:white;""> Next Figure: Male or Female? </p>","190","html-keyboard-response","434","1087498","0.0-19.0-0.2","prediction","","","",".",""
"null","<div style=""color:white; font-size:60px;"">+</div>","null","html-keyboard-response","435","1088499","0.0-19.0-1.2","fixation","","","","",""
"3338.854999979958","Stimuli/Hangul_F0.bmp","190","image-keyboard-response","436","1091838","0.0-19.0-2.2","c2_test",".","","","","."
"1297.3400000482798","<p style=""color:white;""> Next Figure: Male or Female? </p>","190","html-keyboard-response","437","1093136","0.0-19.0-0.3","prediction","","","",".",""
"null","<div style=""color:white; font-size:60px;"">+</div>","null","html-keyboard-response","438","1094137","0.0-19.0-1.3","fixation","","","","",""
"3697.0249998848885","Stimuli/Hangul_M21.bmp","188","image-keyboard-response","439","1097835","0.0-19.0-2.3","c2_test",",","","","",","
"1475.584999890998","<p style=""color:white;""> Next Figure: Male or Female? </p>","188","html-keyboard-response","440","1099311","0.0-19.0-0.4","prediction","","","",",",""
"null","<div style=""color:white; font-size:60px;"">+</div>","null","html-keyboard-response","441","1100312","0.0-19.0-1.4","fixation","","","","",""
"1166.6500000283122","Stimuli/Hangul_F1.bmp","190","image-keyboard-response","442","1101479","0.0-19.0-2.4","c2_test",".","","","","."
"989.9100000038743","<p style=""color:white;""> Next Figure: Male or Female? </p>","188","html-keyboard-response","443","1102470","0.0-19.0-0.5","prediction","","","",",",""
"null","<div style=""color:white; font-size:60px;"">+</div>","null","html-keyboard-response","444","1103470","0.0-19.0-1.5","fixation","","","","",""
"3383.0800000578165","Stimuli/Hangul_F6.bmp","188","image-keyboard-response","445","1106854","0.0-19.0-2.5","c2_test",".","","","",","
"901.480000000447","<p style=""color:white;""> Next Figure: Male or Female? </p>","190","html-keyboard-response","446","1107756","0.0-19.0-0.6","prediction","","","",".",""
"null","<div style=""color:white; font-size:60px;"">+</div>","null","html-keyboard-response","447","1108758","0.0-19.0-1.6","fixation","","","","",""
"1194.1250001545995","Stimuli/Hangul_M1.bmp","190","image-keyboard-response","448","1109953","0.0-19.0-2.6","c2_test",",","","","","."
"1995.7200000062585","<p style=""color:white;""> Next Figure: Male or Female? </p>","190","html-keyboard-response","449","1111949","0.0-19.0-0.7","prediction","","","",".",""
"null","<div style=""color:white; font-size:60px;"">+</div>","null","html-keyboard-response","450","1112951","0.0-19.0-1.7","fixation","","","","",""
"2327.470000134781","Stimuli/Hangul_F7.bmp","190","image-keyboard-response","451","1115279","0.0-19.0-2.7","c2_test",".","","","","."
"1275.3500000108033","<p style=""color:white;""> Next Figure: Male or Female? </p>","190","html-keyboard-response","452","1116555","0.0-19.0-0.8","prediction","","","",".",""
"null","<div style=""color:white; font-size:60px;"">+</div>","null","html-keyboard-response","453","1117557","0.0-19.0-1.8","fixation","","","","",""
"1020.2550000976771","Stimuli/Hangul_M12.bmp","188","image-keyboard-response","454","1118577","0.0-19.0-2.8","c2_test",",","","","",","
"939.6900001447648","<p style=""color:white;""> Next Figure: Male or Female? </p>","190","html-keyboard-response","455","1119518","0.0-19.0-0.9","prediction","","","",".",""
"null","<div style=""color:white; font-size:60px;"">+</div>","null","html-keyboard-response","456","1120518","0.0-19.0-1.9","fixation","","","","",""
"1375.400000018999","Stimuli/Hangul_F23.bmp","190","image-keyboard-response","457","1121894","0.0-19.0-2.9","c2_test",".","","","","."
"985.4150000028312","<p style=""color:white;""> Next Figure: Male or Female? </p>","188","html-keyboard-response","458","1122880","0.0-19.0-0.10","prediction","","","",",",""
"null","<div style=""color:white; font-size:60px;"">+</div>","null","html-keyboard-response","459","1123881","0.0-19.0-1.10","fixation","","","","",""
"963.0050000268966","Stimuli/Hangul_F14.bmp","190","image-keyboard-response","460","1124844","0.0-19.0-2.10","c2_test",".","","","","."
"2239.979999838397","<p style=""color:white;""> Next Figure: Male or Female? </p>","188","html-keyboard-response","461","1127085","0.0-19.0-0.11","prediction","","","",",",""
"null","<div style=""color:white; font-size:60px;"">+</div>","null","html-keyboard-response","462","1128087","0.0-19.0-1.11","fixation","","","","",""
"4878.335000015795","Stimuli/Hangul_M0.bmp","188","image-keyboard-response","463","1132966","0.0-19.0-2.11","c2_test",",","","","",","
"1167.5100000575185","<p style=""color:white;""> Next Figure: Male or Female? </p>","188","html-keyboard-response","464","1134134","0.0-19.0-0.12","prediction","","","",",",""
"null","<div style=""color:white; font-size:60px;"">+</div>","null","html-keyboard-response","465","1135135","0.0-19.0-1.12","fixation","","","","",""
"1614.4350001122802","Stimuli/Hangul_F11.bmp","188","image-keyboard-response","466","1136750","0.0-19.0-2.12","c2_test",".","","","",","
"871.8399999197572","<p style=""color:white;""> Next Figure: Male or Female? </p>","188","html-keyboard-response","467","1137622","0.0-19.0-0.13","prediction","","","",",",""
"null","<div style=""color:white; font-size:60px;"">+</div>","null","html-keyboard-response","468","1138624","0.0-19.0-1.13","fixation","","","","",""
"1456.0100000817329","Stimuli/Hangul_F5.bmp","188","image-keyboard-response","469","1140080","0.0-19.0-2.13","c2_test",".","","","",","
"731.1650000046939","<p style=""color:white;""> Next Figure: Male or Female? </p>","188","html-keyboard-response","470","1140813","0.0-19.0-0.14","prediction","","","",",",""
"null","<div style=""color:white; font-size:60px;"">+</div>","null","html-keyboard-response","471","1141814","0.0-19.0-1.14","fixation","","","","",""
"1376.2799999676645","Stimuli/Hangul_F20.bmp","190","image-keyboard-response","472","1143191","0.0-19.0-2.14","c2_test",".","","","","."
"1379.810000071302","<p style=""color:white;""> Next Figure: Male or Female? </p>","188","html-keyboard-response","473","1144571","0.0-19.0-0.15","prediction","","","",",",""
"null","<div style=""color:white; font-size:60px;"">+</div>","null","html-keyboard-response","474","1145572","0.0-19.0-1.15","fixation","","","","",""
"2520.8100001327693","Stimuli/Hangul_M6.bmp","188","image-keyboard-response","475","1148094","0.0-19.0-2.15","c2_test",",","","","",","
"1535.2749999146909","<p style=""color:white;""> Next Figure: Male or Female? </p>","188","html-keyboard-response","476","1149630","0.0-19.0-0.16","prediction","","","",",",""
"null","<div style=""color:white; font-size:60px;"">+</div>","null","html-keyboard-response","477","1150632","0.0-19.0-1.16","fixation","","","","",""
"3788.759999908507","Stimuli/Hangul_F3.bmp","190","image-keyboard-response","478","1154421","0.0-19.0-2.16","c2_test",".","","","","."
"1439.479999942705","<p style=""color:white;""> Next Figure: Male or Female? </p>","190","html-keyboard-response","479","1155861","0.0-19.0-0.17","prediction","","","",".",""
"null","<div style=""color:white; font-size:60px;"">+</div>","null","html-keyboard-response","480","1156863","0.0-19.0-1.17","fixation","","","","",""
"2396.0549999028444","Stimuli/Hangul_F13.bmp","188","image-keyboard-response","481","1159260","0.0-19.0-2.17","c2_test",".","","","",","
"903.4049999900162","<p style=""color:white;""> Next Figure: Male or Female? </p>","190","html-keyboard-response","482","1160164","0.0-19.0-0.18","prediction","","","",".",""
"null","<div style=""color:white; font-size:60px;"">+</div>","null","html-keyboard-response","483","1161165","0.0-19.0-1.18","fixation","","","","",""
"1142.2850000672042","Stimuli/Hangul_M8.bmp","190","image-keyboard-response","484","1162308","0.0-19.0-2.18","c2_test",",","","","","."
"1157.4999999720603","<p style=""color:white;""> Next Figure: Male or Female? </p>","190","html-keyboard-response","485","1163466","0.0-19.0-0.19","prediction","","","",".",""
"null","<div style=""color:white; font-size:60px;"">+</div>","null","html-keyboard-response","486","1164468","0.0-19.0-1.19","fixation","","","","",""
"1134.3100001104176","Stimuli/Hangul_F22.bmp","188","image-keyboard-response","487","1165602","0.0-19.0-2.19","c2_test",".","","","",","
"855.8000000193715","<p style=""color:white;""> Next Figure: Male or Female? </p>","190","html-keyboard-response","488","1166459","0.0-19.0-0.20","prediction","","","",".",""
"null","<div style=""color:white; font-size:60px;"">+</div>","null","html-keyboard-response","489","1167460","0.0-19.0-1.20","fixation","","","","",""
"1276.7099998891354","Stimuli/Hangul_F16.bmp","190","image-keyboard-response","490","1168737","0.0-19.0-2.20","c2_test",".","","","","."
"827.8950001113117","<p style=""color:white;""> Next Figure: Male or Female? </p>","190","html-keyboard-response","491","1169565","0.0-19.0-0.21","prediction","","","",".",""
"null","<div style=""color:white; font-size:60px;"">+</div>","null","html-keyboard-response","492","1170566","0.0-19.0-1.21","fixation","","","","",""
"4172.920000040904","Stimuli/Hangul_M22.bmp","190","image-keyboard-response","493","1174740","0.0-19.0-2.21","c2_test",",","","","","."
"1019.5700000040233","<p style=""color:white;""> Next Figure: Male or Female? </p>","188","html-keyboard-response","494","1175760","0.0-19.0-0.22","prediction","","","",",",""
"null","<div style=""color:white; font-size:60px;"">+</div>","null","html-keyboard-response","495","1176761","0.0-19.0-1.22","fixation","","","","",""
"926.6900001093745","Stimuli/Hangul_F21.bmp","190","image-keyboard-response","496","1177688","0.0-19.0-2.22","c2_test",".","","","","."
"837.3950000386685","<p style=""color:white;""> Next Figure: Male or Female? </p>","188","html-keyboard-response","497","1178526","0.0-19.0-0.23","prediction","","","",",",""
"null","<div style=""color:white; font-size:60px;"">+</div>","null","html-keyboard-response","498","1179529","0.0-19.0-1.23","fixation","","","","",""
"2741.6049998719245","Stimuli/Hangul_M17.bmp","188","image-keyboard-response","499","1182271","0.0-19.0-2.23","c2_test",",","","","",","
"775.5199999082834","<p style=""color:white;""> Next Figure: Male or Female? </p>","188","html-keyboard-response","500","1183047","0.0-19.0-0.24","prediction","","","",",",""
"null","<div style=""color:white; font-size:60px;"">+</div>","null","html-keyboard-response","501","1184049","0.0-19.0-1.24","fixation","","","","",""
"3303.970000008121","Stimuli/Hangul_F9.bmp","190","image-keyboard-response","502","1187353","0.0-19.0-2.24","c2_test",".","","","","."
"819.3749999627471","<p style=""color:white;""> Next Figure: Male or Female? </p>","188","html-keyboard-response","503","1188173","0.0-19.0-0.25","prediction","","","",",",""
"null","<div style=""color:white; font-size:60px;"">+</div>","null","html-keyboard-response","504","1189176","0.0-19.0-1.25","fixation","","","","",""
"1579.5950000174344","Stimuli/Hangul_M15.bmp","188","image-keyboard-response","505","1190756","0.0-19.0-2.25","c2_test",",","","","",","
"715.3049998451024","<p style=""color:white;""> Next Figure: Male or Female? </p>","188","html-keyboard-response","506","1191472","0.0-19.0-0.26","prediction","","","",",",""
"null","<div style=""color:white; font-size:60px;"">+</div>","null","html-keyboard-response","507","1192474","0.0-19.0-1.26","fixation","","","","",""
"862.2650001198053","Stimuli/Hangul_F18.bmp","190","image-keyboard-response","508","1193336","0.0-19.0-2.26","c2_test",".","","","","."
"705.3400001022965","<p style=""color:white;""> Next Figure: Male or Female? </p>","188","html-keyboard-response","509","1194042","0.0-19.0-0.27","prediction","","","",",",""
"null","<div style=""color:white; font-size:60px;"">+</div>","null","html-keyboard-response","510","1195044","0.0-19.0-1.27","fixation","","","","",""
"1046.3099998887628","Stimuli/Hangul_M23.bmp","188","image-keyboard-response","511","1196091","0.0-19.0-2.27","c2_test",",","","","",","
"891.6050000116229","<p style=""color:white;""> Next Figure: Male or Female? </p>","188","html-keyboard-response","512","1196983","0.0-19.0-0.28","prediction","","","",",",""
"null","<div style=""color:white; font-size:60px;"">+</div>","null","html-keyboard-response","513","1197984","0.0-19.0-1.28","fixation","","","","",""
"1092.0499998610467","Stimuli/Hangul_F2.bmp","188","image-keyboard-response","514","1199077","0.0-19.0-2.28","c2_test",".","","","",","
"855.659999884665","<p style=""color:white;""> Next Figure: Male or Female? </p>","188","html-keyboard-response","515","1199933","0.0-19.0-0.29","prediction","","","",",",""
"null","<div style=""color:white; font-size:60px;"">+</div>","null","html-keyboard-response","516","1200934","0.0-19.0-1.29","fixation","","","","",""
"930.3749999962747","Stimuli/Hangul_F8.bmp","190","image-keyboard-response","517","1201865","0.0-19.0-2.29","c2_test",".","","","","."
"815.500000026077","<p style=""color:white;""> Next Figure: Male or Female? </p>","188","html-keyboard-response","518","1202682","0.0-19.0-0.30","prediction","","","",",",""
"null","<div style=""color:white; font-size:60px;"">+</div>","null","html-keyboard-response","519","1203683","0.0-19.0-1.30","fixation","","","","",""
"764.8999998345971","Stimuli/Hangul_M10.bmp","188","image-keyboard-response","520","1204448","0.0-19.0-2.30","c2_test",",","","","",","
"835.0299999583513","<p style=""color:white;""> Next Figure: Male or Female? </p>","190","html-keyboard-response","521","1205284","0.0-19.0-0.31","prediction","","","",".",""
"null","<div style=""color:white; font-size:60px;"">+</div>","null","html-keyboard-response","522","1206285","0.0-19.0-1.31","fixation","","","","",""
"898.1699999421835","Stimuli/Hangul_M18.bmp","188","image-keyboard-response","523","1207184","0.0-19.0-2.31","c2_test",",","","","",","
"775.7049999199808","<p style=""color:white;""> Next Figure: Male or Female? </p>","190","html-keyboard-response","524","1207960","0.0-19.0-0.32","prediction","","","",".",""
"null","<div style=""color:white; font-size:60px;"">+</div>","null","html-keyboard-response","525","1208961","0.0-19.0-1.32","fixation","","","","",""
"900.4049999639392","Stimuli/Hangul_M16.bmp","188","image-keyboard-response","526","1209862","0.0-19.0-2.32","c2_test",",","","","",","
"643.4349999763072","<p style=""color:white;""> Next Figure: Male or Female? </p>","190","html-keyboard-response","527","1210506","0.0-19.0-0.33","prediction","","","",".",""
"null","<div style=""color:white; font-size:60px;"">+</div>","null","html-keyboard-response","528","1211507","0.0-19.0-1.33","fixation","","","","",""
"1258.5350000299513","Stimuli/Hangul_M24.bmp","190","image-keyboard-response","529","1212767","0.0-19.0-2.33","c2_test",",","","","","."
"671.2149998638779","<p style=""color:white;""> Next Figure: Male or Female? </p>","190","html-keyboard-response","530","1213439","0.0-19.0-0.34","prediction","","","",".",""
"null","<div style=""color:white; font-size:60px;"">+</div>","null","html-keyboard-response","531","1214440","0.0-19.0-1.34","fixation","","","","",""
"1200.9300000499934","Stimuli/Hangul_M4.bmp","190","image-keyboard-response","532","1215641","0.0-19.0-2.34","c2_test",",","","","","."
"635.1199999917299","<p style=""color:white;""> Next Figure: Male or Female? </p>","190","html-keyboard-response","533","1216277","0.0-19.0-0.35","prediction","","","",".",""
"null","<div style=""color:white; font-size:60px;"">+</div>","null","html-keyboard-response","534","1217280","0.0-19.0-1.35","fixation","","","","",""
"3307.1800000034273","Stimuli/Hangul_M9.bmp","188","image-keyboard-response","535","1220588","0.0-19.0-2.35","c2_test",",","","","",","
"667.72500006482","<p style=""color:white;""> Next Figure: Male or Female? </p>","190","html-keyboard-response","536","1221256","0.0-19.0-0.36","prediction","","","",".",""
"null","<div style=""color:white; font-size:60px;"">+</div>","null","html-keyboard-response","537","1222257","0.0-19.0-1.36","fixation","","","","",""
"1058.2100001629442","Stimuli/Hangul_M3.bmp","190","image-keyboard-response","538","1223316","0.0-19.0-2.36","c2_test",",","","","","."
"1045.6350001040846","<p style=""color:white;""> Next Figure: Male or Female? </p>","190","html-keyboard-response","539","1224362","0.0-19.0-0.37","prediction","","","",".",""
"null","<div style=""color:white; font-size:60px;"">+</div>","null","html-keyboard-response","540","1225363","0.0-19.0-1.37","fixation","","","","",""
"5001.88499991782","Stimuli/Hangul_M2.bmp","190","image-keyboard-response","541","1230366","0.0-19.0-2.37","c2_test",",","","","","."
"562.7850000746548","<p style=""color:white;""> Next Figure: Male or Female? </p>","190","html-keyboard-response","542","1230929","0.0-19.0-0.38","prediction","","","",".",""
"null","<div style=""color:white; font-size:60px;"">+</div>","null","html-keyboard-response","543","1231931","0.0-19.0-1.38","fixation","","","","",""
"3627.8350001666695","Stimuli/Hangul_F19.bmp","190","image-keyboard-response","544","1235560","0.0-19.0-2.38","c2_test",".","","","","."
"595.4599999822676","<p style=""color:white;""> Next Figure: Male or Female? </p>","190","html-keyboard-response","545","1236156","0.0-19.0-0.39","prediction","","","",".",""
"null","<div style=""color:white; font-size:60px;"">+</div>","null","html-keyboard-response","546","1237157","0.0-19.0-1.39","fixation","","","","",""
"4172.915000002831","Stimuli/Hangul_F12.bmp","188","image-keyboard-response","547","1241331","0.0-19.0-2.39","c2_test",".","","","",","
"727.5600000284612","<p style=""color:white;""> Next Figure: Male or Female? </p>","190","html-keyboard-response","548","1242059","0.0-19.0-0.40","prediction","","","",".",""
"null","<div style=""color:white; font-size:60px;"">+</div>","null","html-keyboard-response","549","1243061","0.0-19.0-1.40","fixation","","","","",""
"2735.355000011623","Stimuli/Hangul_F24.bmp","190","image-keyboard-response","550","1245797","0.0-19.0-2.40","c2_test",".","","","","."
"1219.7950000409037","<p style=""color:white;""> Next Figure: Male or Female? </p>","190","html-keyboard-response","551","1247017","0.0-19.0-0.41","prediction","","","",".",""
"null","<div style=""color:white; font-size:60px;"">+</div>","null","html-keyboard-response","552","1248019","0.0-19.0-1.41","fixation","","","","",""
"1157.6350000686944","Stimuli/Hangul_F17.bmp","190","image-keyboard-response","553","1249178","0.0-19.0-2.41","c2_test",".","","","","."
"797.4500001873821","<p style=""color:white;""> Next Figure: Male or Female? </p>","188","html-keyboard-response","554","1249976","0.0-19.0-0.42","prediction","","","",",",""
"null","<div style=""color:white; font-size:60px;"">+</div>","null","html-keyboard-response","555","1250977","0.0-19.0-1.42","fixation","","","","",""
"1090.6899999827147","Stimuli/Hangul_M11.bmp","188","image-keyboard-response","556","1252068","0.0-19.0-2.42","c2_test",",","","","",","
"1211.5199998952448","<p style=""color:white;""> Next Figure: Male or Female? </p>","188","html-keyboard-response","557","1253280","0.0-19.0-0.43","prediction","","","",",",""
"null","<div style=""color:white; font-size:60px;"">+</div>","null","html-keyboard-response","558","1254283","0.0-19.0-1.43","fixation","","","","",""
"2539.1200000885874","Stimuli/Hangul_M13.bmp","188","image-keyboard-response","559","1256822","0.0-19.0-2.43","c2_test",",","","","",","
"675.675000064075","<p style=""color:white;""> Next Figure: Male or Female? </p>","188","html-keyboard-response","560","1257499","0.0-19.0-0.44","prediction","","","",",",""
"null","<div style=""color:white; font-size:60px;"">+</div>","null","html-keyboard-response","561","1258499","0.0-19.0-1.44","fixation","","","","",""
"878.8699998985976","Stimuli/Hangul_F10.bmp","190","image-keyboard-response","562","1259379","0.0-19.0-2.44","c2_test",".","","","","."
"693.6500000301749","<p style=""color:white;""> Next Figure: Male or Female? </p>","188","html-keyboard-response","563","1260073","0.0-19.0-0.45","prediction","","","",",",""
"null","<div style=""color:white; font-size:60px;"">+</div>","null","html-keyboard-response","564","1261074","0.0-19.0-1.45","fixation","","","","",""
"1506.9399999920279","Stimuli/Hangul_M19.bmp","188","image-keyboard-response","565","1262582","0.0-19.0-2.45","c2_test",",","","","",","
"655.3299999795854","<p style=""color:white;""> Next Figure: Male or Female? </p>","188","html-keyboard-response","566","1263238","0.0-19.0-0.46","prediction","","","",",",""
"null","<div style=""color:white; font-size:60px;"">+</div>","null","html-keyboard-response","567","1264239","0.0-19.0-1.46","fixation","","","","",""
"1316.3049998693168","Stimuli/Hangul_F15.bmp","188","image-keyboard-response","568","1265556","0.0-19.0-2.46","c2_test",".","","","",","
"615.2449999935925","<p style=""color:white;""> Next Figure: Male or Female? </p>","188","html-keyboard-response","569","1266172","0.0-19.0-0.47","prediction","","","",",",""
"null","<div style=""color:white; font-size:60px;"">+</div>","null","html-keyboard-response","570","1267173","0.0-19.0-1.47","fixation","","","","",""
"1070.1099999714643","Stimuli/Hangul_F4.bmp","190","image-keyboard-response","571","1268244","0.0-19.0-2.47","c2_test",".","","","","."
"775.4399999976158","<p style=""color:white;""> Next Figure: Male or Female? </p>","188","html-keyboard-response","572","1269020","0.0-19.0-0.48","prediction","","","",",",""
"null","<div style=""color:white; font-size:60px;"">+</div>","null","html-keyboard-response","573","1270021","0.0-19.0-1.48","fixation","","","","",""
"1240.43000000529","Stimuli/Hangul_M7.bmp","190","image-keyboard-response","574","1271262","0.0-19.0-2.48","c2_test",",","","","","."
"783.4950000979006","<p style=""color:white;""> Next Figure: Male or Female? </p>","188","html-keyboard-response","575","1272046","0.0-19.0-0.49","prediction","","","",",",""
"null","<div style=""color:white; font-size:60px;"">+</div>","null","html-keyboard-response","576","1273047","0.0-19.0-1.49","fixation","","","","",""
"2348.7249999307096","Stimuli/Hangul_M14.bmp","188","image-keyboard-response","577","1275397","0.0-19.0-2.49","c2_test",",","","","",","
"9222.615000093356","<p style=""color:white;"">Good job, block 1 complete! Please take a moment to rest.</p> <p style=""color:white;"">When you are ready to continue with block 2 of 4, press the space bar.</p> ","32","html-keyboard-response","578","1284620","0.0-20.0","","","","","",""
"2229.670000029728","<p style=""color:white;""> Next Figure: Male or Female? </p>","188","html-keyboard-response","579","1288851","0.0-21.0-0.0","prediction","","","",",",""
"null","<div style=""color:white; font-size:60px;"">+</div>","null","html-keyboard-response","580","1289853","0.0-21.0-1.0","fixation","","","","",""
"1079.765000147745","Stimuli/Hangul_M29.bmp","188","image-keyboard-response","581","1290933","0.0-21.0-2.0","c2_test",",","","","",","
"770.9349999204278","<p style=""color:white;""> Next Figure: Male or Female? </p>","188","html-keyboard-response","582","1291705","0.0-21.0-0.1","prediction","","","",",",""
"null","<div style=""color:white; font-size:60px;"">+</div>","null","html-keyboard-response","583","1292706","0.0-21.0-1.1","fixation","","","","",""
"3416.8249999638647","Stimuli/Hangul_M49.bmp","188","image-keyboard-response","584","1296123","0.0-21.0-2.1","c2_test",",","","","",","
"715.3450001496822","<p style=""color:white;""> Next Figure: Male or Female? </p>","188","html-keyboard-response","585","1296839","0.0-21.0-0.2","prediction","","","",",",""
"null","<div style=""color:white; font-size:60px;"">+</div>","null","html-keyboard-response","586","1297841","0.0-21.0-1.2","fixation","","","","",""
"1270.8150001708418","Stimuli/Hangul_M33.bmp","188","image-keyboard-response","587","1299112","0.0-21.0-2.2","c2_test",",","","","",","
"927.3049999028444","<p style=""color:white;""> Next Figure: Male or Female? </p>","188","html-keyboard-response","588","1300040","0.0-21.0-0.3","prediction","","","",",",""
"null","<div style=""color:white; font-size:60px;"">+</div>","null","html-keyboard-response","589","1301041","0.0-21.0-1.3","fixation","","","","",""
"956.5449999645352","Stimuli/Hangul_F41.bmp","188","image-keyboard-response","590","1301998","0.0-21.0-2.3","c2_test",".","","","",","
"911.3400001078844","<p style=""color:white;""> Next Figure: Male or Female? </p>","188","html-keyboard-response","591","1302910","0.0-21.0-0.4","prediction","","","",",",""
"null","<div style=""color:white; font-size:60px;"">+</div>","null","html-keyboard-response","592","1303912","0.0-21.0-1.4","fixation","","","","",""
"1170.410000020638","Stimuli/Hangul_M47.bmp","188","image-keyboard-response","593","1305083","0.0-21.0-2.4","c2_test",",","","","",","
"893.6650000978261","<p style=""color:white;""> Next Figure: Male or Female? </p>","188","html-keyboard-response","594","1305977","0.0-21.0-0.5","prediction","","","",",",""
"null","<div style=""color:white; font-size:60px;"">+</div>","null","html-keyboard-response","595","1306978","0.0-21.0-1.5","fixation","","","","",""
"685.740000102669","Stimuli/Hangul_F29.bmp","190","image-keyboard-response","596","1307665","0.0-21.0-2.5","c2_test",".","","","","."
"791.5550000034273","<p style=""color:white;""> Next Figure: Male or Female? </p>","190","html-keyboard-response","597","1308457","0.0-21.0-0.6","prediction","","","",".",""
"null","<div style=""color:white; font-size:60px;"">+</div>","null","html-keyboard-response","598","1309458","0.0-21.0-1.6","fixation","","","","",""
"783.144999993965","Stimuli/Hangul_F34.bmp","190","image-keyboard-response","599","1310242","0.0-21.0-2.6","c2_test",".","","","","."
"973.3199998736382","<p style=""color:white;""> Next Figure: Male or Female? </p>","190","html-keyboard-response","600","1311216","0.0-21.0-0.7","prediction","","","",".",""
"null","<div style=""color:white; font-size:60px;"">+</div>","null","html-keyboard-response","601","1312217","0.0-21.0-1.7","fixation","","","","",""
"3616.8150000739843","Stimuli/Hangul_F33.bmp","190","image-keyboard-response","602","1315834","0.0-21.0-2.7","c2_test",".","","","","."
"675.2049999777228","<p style=""color:white;""> Next Figure: Male or Female? </p>","190","html-keyboard-response","603","1316510","0.0-21.0-0.8","prediction","","","",".",""
"null","<div style=""color:white; font-size:60px;"">+</div>","null","html-keyboard-response","604","1317512","0.0-21.0-1.8","fixation","","","","",""
"1305.9349998366088","Stimuli/Hangul_F30.bmp","190","image-keyboard-response","605","1318818","0.0-21.0-2.8","c2_test",".","","","","."
"787.650000071153","<p style=""color:white;""> Next Figure: Male or Female? </p>","190","html-keyboard-response","606","1319607","0.0-21.0-0.9","prediction","","","",".",""
"null","<div style=""color:white; font-size:60px;"">+</div>","null","html-keyboard-response","607","1320608","0.0-21.0-1.9","fixation","","","","",""
"848.4849999658763","Stimuli/Hangul_F45.bmp","188","image-keyboard-response","608","1321457","0.0-21.0-2.9","c2_test",".","","","",","
"623.0699999723583","<p style=""color:white;""> Next Figure: Male or Female? </p>","190","html-keyboard-response","609","1322081","0.0-21.0-0.10","prediction","","","",".",""
"null","<div style=""color:white; font-size:60px;"">+</div>","null","html-keyboard-response","610","1323082","0.0-21.0-1.10","fixation","","","","",""
"2050.9150000289083","Stimuli/Hangul_F35.bmp","190","image-keyboard-response","611","1325133","0.0-21.0-2.10","c2_test",".","","","","."
"877.5550001300871","<p style=""color:white;""> Next Figure: Male or Female? </p>","190","html-keyboard-response","612","1326012","0.0-21.0-0.11","prediction","","","",".",""
"null","<div style=""color:white; font-size:60px;"">+</div>","null","html-keyboard-response","613","1327013","0.0-21.0-1.11","fixation","","","","",""
"2186.3850001245737","Stimuli/Hangul_M25.bmp","190","image-keyboard-response","614","1329200","0.0-21.0-2.11","c2_test",",","","","","."
"575.0150000676513","<p style=""color:white;""> Next Figure: Male or Female? </p>","190","html-keyboard-response","615","1329776","0.0-21.0-0.12","prediction","","","",".",""
"null","<div style=""color:white; font-size:60px;"">+</div>","null","html-keyboard-response","616","1330777","0.0-21.0-1.12","fixation","","","","",""
"964.2399998847395","Stimuli/Hangul_M38.bmp","188","image-keyboard-response","617","1331742","0.0-21.0-2.12","c2_test",",","","","",","
"827.555000083521","<p style=""color:white;""> Next Figure: Male or Female? </p>","188","html-keyboard-response","618","1332570","0.0-21.0-0.13","prediction","","","",",",""
"null","<div style=""color:white; font-size:60px;"">+</div>","null","html-keyboard-response","619","1333572","0.0-21.0-1.13","fixation","","","","",""
"1082.4599999468774","Stimuli/Hangul_F38.bmp","188","image-keyboard-response","620","1334655","0.0-21.0-2.13","c2_test",".","","","",","
"675.5849998444319","<p style=""color:white;""> Next Figure: Male or Female? </p>","188","html-keyboard-response","621","1335331","0.0-21.0-0.14","prediction","","","",",",""
"null","<div style=""color:white; font-size:60px;"">+</div>","null","html-keyboard-response","622","1336332","0.0-21.0-1.14","fixation","","","","",""
"1848.509999923408","Stimuli/Hangul_F27.bmp","188","image-keyboard-response","623","1338181","0.0-21.0-2.14","c2_test",".","","","",","
"659.5600000582635","<p style=""color:white;""> Next Figure: Male or Female? </p>","188","html-keyboard-response","624","1338841","0.0-21.0-0.15","prediction","","","",",",""
"null","<div style=""color:white; font-size:60px;"">+</div>","null","html-keyboard-response","625","1339842","0.0-21.0-1.15","fixation","","","","",""
"1304.149999981746","Stimuli/Hangul_F26.bmp","188","image-keyboard-response","626","1341148","0.0-21.0-2.15","c2_test",".","","","",","
"687.815000070259","<p style=""color:white;""> Next Figure: Male or Female? </p>","188","html-keyboard-response","627","1341836","0.0-21.0-0.16","prediction","","","",",",""
"null","<div style=""color:white; font-size:60px;"">+</div>","null","html-keyboard-response","628","1342838","0.0-21.0-1.16","fixation","","","","",""
"1753.8799999747425","Stimuli/Hangul_M45.bmp","188","image-keyboard-response","629","1344592","0.0-21.0-2.16","c2_test",",","","","",","
"607.5550001114607","<p style=""color:white;""> Next Figure: Male or Female? </p>","188","html-keyboard-response","630","1345200","0.0-21.0-0.17","prediction","","","",",",""
"null","<div style=""color:white; font-size:60px;"">+</div>","null","html-keyboard-response","631","1346202","0.0-21.0-1.17","fixation","","","","",""
"1151.6950000077486","Stimuli/Hangul_M46.bmp","188","image-keyboard-response","632","1347354","0.0-21.0-2.17","c2_test",",","","","",","
"651.480000000447","<p style=""color:white;""> Next Figure: Male or Female? </p>","188","html-keyboard-response","633","1348006","0.0-21.0-0.18","prediction","","","",",",""
"null","<div style=""color:white; font-size:60px;"">+</div>","null","html-keyboard-response","634","1349008","0.0-21.0-1.18","fixation","","","","",""
"1546.2050000205636","Stimuli/Hangul_M34.bmp","188","image-keyboard-response","635","1350555","0.0-21.0-2.18","c2_test",",","","","",","
"585.6800000183284","<p style=""color:white;""> Next Figure: Male or Female? </p>","188","html-keyboard-response","636","1351141","0.0-21.0-0.19","prediction","","","",",",""
"null","<div style=""color:white; font-size:60px;"">+</div>","null","html-keyboard-response","637","1352142","0.0-21.0-1.19","fixation","","","","",""
"934.8100000061095","Stimuli/Hangul_F32.bmp","190","image-keyboard-response","638","1353077","0.0-21.0-2.19","c2_test",".","","","","."
"645.4400001093745","<p style=""color:white;""> Next Figure: Male or Female? </p>","188","html-keyboard-response","639","1353723","0.0-21.0-0.20","prediction","","","",",",""
"null","<div style=""color:white; font-size:60px;"">+</div>","null","html-keyboard-response","640","1354724","0.0-21.0-1.20","fixation","","","","",""
"992.375000147149","Stimuli/Hangul_F25.bmp","188","image-keyboard-response","641","1355717","0.0-21.0-2.20","c2_test",".","","","",","
"821.5850000269711","<p style=""color:white;""> Next Figure: Male or Female? </p>","190","html-keyboard-response","642","1356540","0.0-21.0-0.21","prediction","","","",".",""
"null","<div style=""color:white; font-size:60px;"">+</div>","null","html-keyboard-response","643","1357541","0.0-21.0-1.21","fixation","","","","",""
"3319.005000172183","Stimuli/Hangul_M35.bmp","188","image-keyboard-response","644","1360860","0.0-21.0-2.21","c2_test",",","","","",","
"1701.2499999254942","<p style=""color:white;""> Next Figure: Male or Female? </p>","188","html-keyboard-response","645","1362562","0.0-21.0-0.22","prediction","","","",",",""
"null","<div style=""color:white; font-size:60px;"">+</div>","null","html-keyboard-response","646","1363563","0.0-21.0-1.22","fixation","","","","",""
"810.8550000470132","Stimuli/Hangul_F44.bmp","190","image-keyboard-response","647","1364375","0.0-21.0-2.22","c2_test",".","","","","."
"578.9450001902878","<p style=""color:white;""> Next Figure: Male or Female? </p>","188","html-keyboard-response","648","1364955","0.0-21.0-0.23","prediction","","","",",",""
"null","<div style=""color:white; font-size:60px;"">+</div>","null","html-keyboard-response","649","1365956","0.0-21.0-1.23","fixation","","","","",""
"2975.954999914393","Stimuli/Hangul_M42.bmp","188","image-keyboard-response","650","1368934","0.0-21.0-2.23","c2_test",",","","","",","
"1243.2150000240654","<p style=""color:white;""> Next Figure: Male or Female? </p>","188","html-keyboard-response","651","1370177","0.0-21.0-0.24","prediction","","","",",",""
"null","<div style=""color:white; font-size:60px;"">+</div>","null","html-keyboard-response","652","1371180","0.0-21.0-1.24","fixation","","","","",""
"2371.349999913946","Stimuli/Hangul_M30.bmp","188","image-keyboard-response","653","1373552","0.0-21.0-2.24","c2_test",",","","","",","
"751.5600000042468","<p style=""color:white;""> Next Figure: Male or Female? </p>","188","html-keyboard-response","654","1374304","0.0-21.0-0.25","prediction","","","",",",""
"null","<div style=""color:white; font-size:60px;"">+</div>","null","html-keyboard-response","655","1375305","0.0-21.0-1.25","fixation","","","","",""
