"rt","stimulus","key_press","trial_type","trial_index","time_elapsed","internal_node_id","test_part","correct_response","C1_train","C1","A","C2"
"7783.2349999807775","<p style=""color:white;"">Welcome to the experiment! Press any key to begin.</p>","17","html-keyboard-response","0","7790","0.0-0.0","","","","","",""
"36669.62499986403","<p style=""color:white;"">You will see a series of abstract figures. They are adaptations of signs in the Korean alphabet, but that is not important for this study. </p><p style=""color:white;"">Abstract figures sometimes have a more masculine or feminine shape. Here, each figure has already been assigned a gender as <q>Male</q> or <q>Female</q> by a panel of respondents in a pilot study. The respondents were not given specific instructions on how to do this, but were only told to use their intuition and to take into account the entire configuration of the stimulus. </p><p style=""color:white;"">Your task now is to guess the assigned gender of each figure. Please press the corresponding response keys to indicate your choice: </p><p style=""color:white;""> Male &#8594 <q>,</q> (comma)</p><p style=""color:white;""> Female &#8594 <q>.</q> (period)</p><p style=""color:white;"">Press either response keys to continue.</p>","188","html-keyboard-response","1","44461","0.0-1.0","","","","","",""
"25621.15000002086","<p style=""color:white;"">Your choice is correct if it matches the gender assigned by the majority of respondents in the pilot study.</p> <p style=""color:white;"">For each correct choice you will receive 2 cents. There will be 200 trials divided into 4 blocks of 50 trials. You will be able to take a break after every 50 trials.</p> <p style=""color:white;"">Press the space bar to continue.</p>","32","html-keyboard-response","2","70083","0.0-2.0","","","","","",""
"3967.39499992691","<p style=""color:white;"">Here are some examples.</p> <p style=""color:white;"">For each, guess whether the assigned figure is male-like or female-like and indicate your choice by pressing either response keys.</p> <p style=""color:white;"">Press the space bar to continue.</p>","32","html-keyboard-response","3","74051","0.0-3.0","","","","","",""
"null","<div style=""color:white; font-size:60px;"">+</div>","null","html-keyboard-response","4","77054","0.0-4.0-0.0","fixation","","","","",""
"3844.509999966249","Stimuli/Hangul_E0.bmp","188","image-keyboard-response","5","80900","0.0-4.0-1.0","c1_train",",",",","","",""
"null","<div style=""color:white; font-size:60px;"">+</div>","null","html-keyboard-response","6","81903","0.0-4.0-0.1","fixation","","","","",""
"3995.3349998686463","Stimuli/Hangul_E2.bmp","190","image-keyboard-response","7","85899","0.0-4.0-1.1","c1_train",".",".","","",""
"null","<div style=""color:white; font-size:60px;"">+</div>","null","html-keyboard-response","8","86901","0.0-4.0-0.2","fixation","","","","",""
"3045.050000073388","Stimuli/Hangul_E1.bmp","190","image-keyboard-response","9","89947","0.0-4.0-1.2","c1_train",",",".","","",""
"3479.5450000092387","<p style=""color:white;"">Let us begin! Press the space bar when you are ready to start block 1 of 4.</p> ","32","html-keyboard-response","10","93428","0.0-5.0","","","","","",""
"null","<div style=""color:white; font-size:60px;"">+</div>","null","html-keyboard-response","11","96431","0.0-6.0-0.0","fixation","","","","",""
"2418.810000177473","Stimuli/Hangul_F16.bmp","190","image-keyboard-response","12","98851","0.0-6.0-1.0","test",".","",".","",""
"null","<div style=""color:white; font-size:60px;"">+</div>","null","html-keyboard-response","13","99853","0.0-6.0-0.1","fixation","","","","",""
"2341.170000145212","Stimuli/Hangul_M10.bmp","188","image-keyboard-response","14","102195","0.0-6.0-1.1","test",",","",",","",""
"null","<div style=""color:white; font-size:60px;"">+</div>","null","html-keyboard-response","15","103197","0.0-6.0-0.2","fixation","","","","",""
"2173.810000065714","Stimuli/Hangul_F1.bmp","190","image-keyboard-response","16","105372","0.0-6.0-1.2","test",".","",".","",""
"null","<div style=""color:white; font-size:60px;"">+</div>","null","html-keyboard-response","17","106373","0.0-6.0-0.3","fixation","","","","",""
"3068.63999995403","Stimuli/Hangul_M5.bmp","188","image-keyboard-response","18","109443","0.0-6.0-1.3","test",",","",",","",""
"null","<div style=""color:white; font-size:60px;"">+</div>","null","html-keyboard-response","19","110444","0.0-6.0-0.4","fixation","","","","",""
"2221.824999898672","Stimuli/Hangul_M12.bmp","188","image-keyboard-response","20","112667","0.0-6.0-1.4","test",",","",",","",""
"null","<div style=""color:white; font-size:60px;"">+</div>","null","html-keyboard-response","21","113669","0.0-6.0-0.5","fixation","","","","",""
"2622.169999871403","Stimuli/Hangul_M8.bmp","190","image-keyboard-response","22","116292","0.0-6.0-1.5","test",",","",".","",""
"null","<div style=""color:white; font-size:60px;"">+</div>","null","html-keyboard-response","23","117293","0.0-6.0-0.6","fixation","","","","",""
"2820.3300000168383","Stimuli/Hangul_F19.bmp","190","image-keyboard-response","24","120119","0.0-6.0-1.6","test",".","",".","",""
"null","<div style=""color:white; font-size:60px;"">+</div>","null","html-keyboard-response","25","121121","0.0-6.0-0.7","fixation","","","","",""
"3872.1300000324845","Stimuli/Hangul_M20.bmp","190","image-keyboard-response","26","124995","0.0-6.0-1.7","test",",","",".","",""
"null","<div style=""color:white; font-size:60px;"">+</div>","null","html-keyboard-response","27","125996","0.0-6.0-0.8","fixation","","","","",""
"2742.1600001398474","Stimuli/Hangul_F24.bmp","190","image-keyboard-response","28","128740","0.0-6.0-1.8","test",".","",".","",""
"null","<div style=""color:white; font-size:60px;"">+</div>","null","html-keyboard-response","29","129741","0.0-6.0-0.9","fixation","","","","",""
"3100.785000016913","Stimuli/Hangul_M11.bmp","188","image-keyboard-response","30","132843","0.0-6.0-1.9","test",",","",",","",""
"null","<div style=""color:white; font-size:60px;"">+</div>","null","html-keyboard-response","31","133844","0.0-6.0-0.10","fixation","","","","",""
"2181.289999978617","Stimuli/Hangul_M22.bmp","188","image-keyboard-response","32","136027","0.0-6.0-1.10","test",",","",",","",""
"null","<div style=""color:white; font-size:60px;"">+</div>","null","html-keyboard-response","33","137028","0.0-6.0-0.11","fixation","","","","",""
"2910.440000006929","Stimuli/Hangul_F9.bmp","190","image-keyboard-response","34","139940","0.0-6.0-1.11","test",".","",".","",""
"null","<div style=""color:white; font-size:60px;"">+</div>","null","html-keyboard-response","35","140941","0.0-6.0-0.12","fixation","","","","",""
"2116.6850000154227","Stimuli/Hangul_F7.bmp","190","image-keyboard-response","36","143059","0.0-6.0-1.12","test",".","",".","",""
"null","<div style=""color:white; font-size:60px;"">+</div>","null","html-keyboard-response","37","144060","0.0-6.0-0.13","fixation","","","","",""
"2157.945000100881","Stimuli/Hangul_F20.bmp","190","image-keyboard-response","38","146218","0.0-6.0-1.13","test",".","",".","",""
"null","<div style=""color:white; font-size:60px;"">+</div>","null","html-keyboard-response","39","147220","0.0-6.0-0.14","fixation","","","","",""
"2237.4350000172853","Stimuli/Hangul_F2.bmp","188","image-keyboard-response","40","149459","0.0-6.0-1.14","test",".","",",","",""
"null","<div style=""color:white; font-size:60px;"">+</div>","null","html-keyboard-response","41","150460","0.0-6.0-0.15","fixation","","","","",""
"1903.2400001306087","Stimuli/Hangul_M23.bmp","190","image-keyboard-response","42","152364","0.0-6.0-1.15","test",",","",".","",""
"null","<div style=""color:white; font-size:60px;"">+</div>","null","html-keyboard-response","43","153365","0.0-6.0-0.16","fixation","","","","",""
"1716.1950001027435","Stimuli/Hangul_F22.bmp","190","image-keyboard-response","44","155082","0.0-6.0-1.16","test",".","",".","",""
"null","<div style=""color:white; font-size:60px;"">+</div>","null","html-keyboard-response","45","156084","0.0-6.0-0.17","fixation","","","","",""
"2397.9550001677126","Stimuli/Hangul_M17.bmp","188","image-keyboard-response","46","158483","0.0-6.0-1.17","test",",","",",","",""
"null","<div style=""color:white; font-size:60px;"">+</div>","null","html-keyboard-response","47","159483","0.0-6.0-0.18","fixation","","","","",""
"2486.2899999134243","Stimuli/Hangul_F14.bmp","190","image-keyboard-response","48","161971","0.0-6.0-1.18","test",".","",".","",""
"null","<div style=""color:white; font-size:60px;"">+</div>","null","html-keyboard-response","49","162973","0.0-6.0-0.19","fixation","","","","",""
"2621.4149999432266","Stimuli/Hangul_F10.bmp","190","image-keyboard-response","50","165595","0.0-6.0-1.19","test",".","",".","",""
"null","<div style=""color:white; font-size:60px;"">+</div>","null","html-keyboard-response","51","166596","0.0-6.0-0.20","fixation","","","","",""
"2420.295000076294","Stimuli/Hangul_F21.bmp","190","image-keyboard-response","52","169018","0.0-6.0-1.20","test",".","",".","",""
"null","<div style=""color:white; font-size:60px;"">+</div>","null","html-keyboard-response","53","170019","0.0-6.0-0.21","fixation","","","","",""
"3005.375000182539","Stimuli/Hangul_M16.bmp","188","image-keyboard-response","54","173026","0.0-6.0-1.21","test",",","",",","",""
"null","<div style=""color:white; font-size:60px;"">+</div>","null","html-keyboard-response","55","174027","0.0-6.0-0.22","fixation","","","","",""
"2606.9900000002235","Stimuli/Hangul_F8.bmp","190","image-keyboard-response","56","176635","0.0-6.0-1.22","test",".","",".","",""
"null","<div style=""color:white; font-size:60px;"">+</div>","null","html-keyboard-response","57","177636","0.0-6.0-0.23","fixation","","","","",""
"3868.544999975711","Stimuli/Hangul_F17.bmp","188","image-keyboard-response","58","181506","0.0-6.0-1.23","test",".","",",","",""
"null","<div style=""color:white; font-size:60px;"">+</div>","null","html-keyboard-response","59","182508","0.0-6.0-0.24","fixation","","","","",""
"2317.0750001445413","Stimuli/Hangul_M4.bmp","188","image-keyboard-response","60","184826","0.0-6.0-1.24","test",",","",",","",""
"null","<div style=""color:white; font-size:60px;"">+</div>","null","html-keyboard-response","61","185828","0.0-6.0-0.25","fixation","","","","",""
"2342.2549997922033","Stimuli/Hangul_M24.bmp","188","image-keyboard-response","62","188171","0.0-6.0-1.25","test",",","",",","",""
"null","<div style=""color:white; font-size:60px;"">+</div>","null","html-keyboard-response","63","189172","0.0-6.0-0.26","fixation","","","","",""
"2340.855000074953","Stimuli/Hangul_M7.bmp","190","image-keyboard-response","64","191514","0.0-6.0-1.26","test",",","",".","",""
"null","<div style=""color:white; font-size:60px;"">+</div>","null","html-keyboard-response","65","192515","0.0-6.0-0.27","fixation","","","","",""
"2789.29500002414","Stimuli/Hangul_F0.bmp","188","image-keyboard-response","66","195306","0.0-6.0-1.27","test",".","",",","",""
"null","<div style=""color:white; font-size:60px;"">+</div>","null","html-keyboard-response","67","196307","0.0-6.0-0.28","fixation","","","","",""
"2118.77500009723","Stimuli/Hangul_M14.bmp","188","image-keyboard-response","68","198427","0.0-6.0-1.28","test",",","",",","",""
"null","<div style=""color:white; font-size:60px;"">+</div>","null","html-keyboard-response","69","199429","0.0-6.0-0.29","fixation","","","","",""
"1955.4350001271814","Stimuli/Hangul_F13.bmp","188","image-keyboard-response","70","201386","0.0-6.0-1.29","test",".","",",","",""
"null","<div style=""color:white; font-size:60px;"">+</div>","null","html-keyboard-response","71","202387","0.0-6.0-0.30","fixation","","","","",""
"1949.6750000398606","Stimuli/Hangul_F3.bmp","190","image-keyboard-response","72","204338","0.0-6.0-1.30","test",".","",".","",""
"null","<div style=""color:white; font-size:60px;"">+</div>","null","html-keyboard-response","73","205339","0.0-6.0-0.31","fixation","","","","",""
"2149.3749998044223","Stimuli/Hangul_F23.bmp","188","image-keyboard-response","74","207490","0.0-6.0-1.31","test",".","",",","",""
"null","<div style=""color:white; font-size:60px;"">+</div>","null","html-keyboard-response","75","208492","0.0-6.0-0.32","fixation","","","","",""
"1685.994999948889","Stimuli/Hangul_F12.bmp","188","image-keyboard-response","76","210179","0.0-6.0-1.32","test",".","",",","",""
"null","<div style=""color:white; font-size:60px;"">+</div>","null","html-keyboard-response","77","211180","0.0-6.0-0.33","fixation","","","","",""
"1948.2149998657405","Stimuli/Hangul_M9.bmp","188","image-keyboard-response","78","213130","0.0-6.0-1.33","test",",","",",","",""
"null","<div style=""color:white; font-size:60px;"">+</div>","null","html-keyboard-response","79","214131","0.0-6.0-0.34","fixation","","","","",""
"2053.6299999803305","Stimuli/Hangul_M21.bmp","188","image-keyboard-response","80","216186","0.0-6.0-1.34","test",",","",",","",""
"null","<div style=""color:white; font-size:60px;"">+</div>","null","html-keyboard-response","81","217186","0.0-6.0-0.35","fixation","","","","",""
"1878.3350000157952","Stimuli/Hangul_M1.bmp","188","image-keyboard-response","82","219066","0.0-6.0-1.35","test",",","",",","",""
"null","<div style=""color:white; font-size:60px;"">+</div>","null","html-keyboard-response","83","220068","0.0-6.0-0.36","fixation","","","","",""
"2469.7850001975894","Stimuli/Hangul_M13.bmp","188","image-keyboard-response","84","222538","0.0-6.0-1.36","test",",","",",","",""
"null","<div style=""color:white; font-size:60px;"">+</div>","null","html-keyboard-response","85","223540","0.0-6.0-0.37","fixation","","","","",""
"1892.34000002034","Stimuli/Hangul_F11.bmp","188","image-keyboard-response","86","225434","0.0-6.0-1.37","test",".","",",","",""
"null","<div style=""color:white; font-size:60px;"">+</div>","null","html-keyboard-response","87","226436","0.0-6.0-0.38","fixation","","","","",""
"2165.2450000401586","Stimuli/Hangul_M0.bmp","188","image-keyboard-response","88","228602","0.0-6.0-1.38","test",",","",",","",""
"null","<div style=""color:white; font-size:60px;"">+</div>","null","html-keyboard-response","89","229603","0.0-6.0-0.39","fixation","","","","",""
"2573.649999918416","Stimuli/Hangul_F4.bmp","190","image-keyboard-response","90","232178","0.0-6.0-1.39","test",".","",".","",""
"null","<div style=""color:white; font-size:60px;"">+</div>","null","html-keyboard-response","91","233179","0.0-6.0-0.40","fixation","","","","",""
"2542.8499998524785","Stimuli/Hangul_M2.bmp","190","image-keyboard-response","92","235723","0.0-6.0-1.40","test",",","",".","",""
"null","<div style=""color:white; font-size:60px;"">+</div>","null","html-keyboard-response","93","236725","0.0-6.0-0.41","fixation","","","","",""
"2580.040000146255","Stimuli/Hangul_F6.bmp","188","image-keyboard-response","94","239306","0.0-6.0-1.41","test",".","",",","",""
"null","<div style=""color:white; font-size:60px;"">+</div>","null","html-keyboard-response","95","240307","0.0-6.0-0.42","fixation","","","","",""
"1838.3949999697506","Stimuli/Hangul_M19.bmp","188","image-keyboard-response","96","242146","0.0-6.0-1.42","test",",","",",","",""
"null","<div style=""color:white; font-size:60px;"">+</div>","null","html-keyboard-response","97","243147","0.0-6.0-0.43","fixation","","","","",""
"2005.6099998764694","Stimuli/Hangul_F18.bmp","190","image-keyboard-response","98","245154","0.0-6.0-1.43","test",".","",".","",""
"null","<div style=""color:white; font-size:60px;"">+</div>","null","html-keyboard-response","99","246156","0.0-6.0-0.44","fixation","","","","",""
"1718.0500000249594","Stimuli/Hangul_F5.bmp","188","image-keyboard-response","100","247875","0.0-6.0-1.44","test",".","",",","",""
"null","<div style=""color:white; font-size:60px;"">+</div>","null","html-keyboard-response","101","248875","0.0-6.0-0.45","fixation","","","","",""
"2301.0599999688566","Stimuli/Hangul_F15.bmp","188","image-keyboard-response","102","251177","0.0-6.0-1.45","test",".","",",","",""
"null","<div style=""color:white; font-size:60px;"">+</div>","null","html-keyboard-response","103","252179","0.0-6.0-0.46","fixation","","","","",""
"1725.6549999583513","Stimuli/Hangul_M6.bmp","188","image-keyboard-response","104","253906","0.0-6.0-1.46","test",",","",",","",""
"null","<div style=""color:white; font-size:60px;"">+</div>","null","html-keyboard-response","105","254906","0.0-6.0-0.47","fixation","","","","",""
"1709.8899998236448","Stimuli/Hangul_M15.bmp","188","image-keyboard-response","106","256618","0.0-6.0-1.47","test",",","",",","",""
"null","<div style=""color:white; font-size:60px;"">+</div>","null","html-keyboard-response","107","257619","0.0-6.0-0.48","fixation","","","","",""
"1558.3249998744577","Stimuli/Hangul_M18.bmp","188","image-keyboard-response","108","259178","0.0-6.0-1.48","test",",","",",","",""
"null","<div style=""color:white; font-size:60px;"">+</div>","null","html-keyboard-response","109","260180","0.0-6.0-0.49","fixation","","","","",""
"1796.6450001113117","Stimuli/Hangul_M3.bmp","188","image-keyboard-response","110","261978","0.0-6.0-1.49","test",",","",",","",""
"315660.30000010505","<p style=""color:white;"">Good job, block 1 complete! Please take a moment to rest.</p> <p style=""color:white;"">When you are ready to continue with block 2 of 4, press the space bar.</p> ","32","html-keyboard-response","111","577639","0.0-7.0","","","","","",""
"null","<div style=""color:white; font-size:60px;"">+</div>","null","html-keyboard-response","112","580642","0.0-8.0-0.0","fixation","","","","",""
"3276.490000076592","Stimuli/Hangul_F36.bmp","188","image-keyboard-response","113","583919","0.0-8.0-1.0","test",".","",",","",""
"null","<div style=""color:white; font-size:60px;"">+</div>","null","html-keyboard-response","114","584920","0.0-8.0-0.1","fixation","","","","",""
"1886.5599997807294","Stimuli/Hangul_M33.bmp","188","image-keyboard-response","115","586809","0.0-8.0-1.1","test",",","",",","",""
"null","<div style=""color:white; font-size:60px;"">+</div>","null","html-keyboard-response","116","587810","0.0-8.0-0.2","fixation","","","","",""
"2652.2699999623","Stimuli/Hangul_F35.bmp","188","image-keyboard-response","117","590463","0.0-8.0-1.2","test",".","",",","",""
"null","<div style=""color:white; font-size:60px;"">+</div>","null","html-keyboard-response","118","591465","0.0-8.0-0.3","fixation","","","","",""
"1853.2099998556077","Stimuli/Hangul_M37.bmp","188","image-keyboard-response","119","593319","0.0-8.0-1.3","test",",","",",","",""
"null","<div style=""color:white; font-size:60px;"">+</div>","null","html-keyboard-response","120","594321","0.0-8.0-0.4","fixation","","","","",""
"2742.3349998425692","Stimuli/Hangul_F37.bmp","190","image-keyboard-response","121","597064","0.0-8.0-1.4","test",".","",".","",""
"null","<div style=""color:white; font-size:60px;"">+</div>","null","html-keyboard-response","122","598065","0.0-8.0-0.5","fixation","","","","",""
"2034.8600000143051","Stimuli/Hangul_M27.bmp","188","image-keyboard-response","123","600103","0.0-8.0-1.5","test",",","",",","",""
"null","<div style=""color:white; font-size:60px;"">+</div>","null","html-keyboard-response","124","601104","0.0-8.0-0.6","fixation","","","","",""
"2301.539999898523","Stimuli/Hangul_F42.bmp","190","image-keyboard-response","125","603407","0.0-8.0-1.6","test",".","",".","",""
"null","<div style=""color:white; font-size:60px;"">+</div>","null","html-keyboard-response","126","604408","0.0-8.0-0.7","fixation","","","","",""
"2429.6599999070168","Stimuli/Hangul_F44.bmp","190","image-keyboard-response","127","606839","0.0-8.0-1.7","test",".","",".","",""
"null","<div style=""color:white; font-size:60px;"">+</div>","null","html-keyboard-response","128","607841","0.0-8.0-0.8","fixation","","","","",""
"3165.8299998380244","Stimuli/Hangul_M34.bmp","190","image-keyboard-response","129","611008","0.0-8.0-1.8","test",",","",".","",""
"null","<div style=""color:white; font-size:60px;"">+</div>","null","html-keyboard-response","130","612009","0.0-8.0-0.9","fixation","","","","",""
"2315.9099998883903","Stimuli/Hangul_M48.bmp","188","image-keyboard-response","131","614327","0.0-8.0-1.9","test",",","",",","",""
"null","<div style=""color:white; font-size:60px;"">+</div>","null","html-keyboard-response","132","615328","0.0-8.0-0.10","fixation","","","","",""
"1884.9899999331683","Stimuli/Hangul_F39.bmp","190","image-keyboard-response","133","617215","0.0-8.0-1.10","test",".","",".","",""
"null","<div style=""color:white; font-size:60px;"">+</div>","null","html-keyboard-response","134","618217","0.0-8.0-0.11","fixation","","","","",""
"2365.3700000140816","Stimuli/Hangul_M43.bmp","188","image-keyboard-response","135","620583","0.0-8.0-1.11","test",",","",",","",""
"null","<div style=""color:white; font-size:60px;"">+</div>","null","html-keyboard-response","136","621585","0.0-8.0-0.12","fixation","","","","",""
"1966.2500000558794","Stimuli/Hangul_F41.bmp","190","image-keyboard-response","137","623552","0.0-8.0-1.12","test",".","",".","",""
"null","<div style=""color:white; font-size:60px;"">+</div>","null","html-keyboard-response","138","624553","0.0-8.0-0.13","fixation","","","","",""
"2068.5900000389665","Stimuli/Hangul_M25.bmp","188","image-keyboard-response","139","626622","0.0-8.0-1.13","test",",","",",","",""
"null","<div style=""color:white; font-size:60px;"">+</div>","null","html-keyboard-response","140","627623","0.0-8.0-0.14","fixation","","","","",""
"1926.0599999688566","Stimuli/Hangul_M47.bmp","188","image-keyboard-response","141","629551","0.0-8.0-1.14","test",",","",",","",""
"null","<div style=""color:white; font-size:60px;"">+</div>","null","html-keyboard-response","142","630552","0.0-8.0-0.15","fixation","","","","",""
"2005.9450000990182","Stimuli/Hangul_F43.bmp","190","image-keyboard-response","143","632559","0.0-8.0-1.15","test",".","",".","",""
"null","<div style=""color:white; font-size:60px;"">+</div>","null","html-keyboard-response","144","633561","0.0-8.0-0.16","fixation","","","","",""
"2220.9049998782575","Stimuli/Hangul_M32.bmp","188","image-keyboard-response","145","635783","0.0-8.0-1.16","test",",","",",","",""
"null","<div style=""color:white; font-size:60px;"">+</div>","null","html-keyboard-response","146","636784","0.0-8.0-0.17","fixation","","","","",""
"2525.015000021085","Stimuli/Hangul_M49.bmp","188","image-keyboard-response","147","639311","0.0-8.0-1.17","test",",","",",","",""
"null","<div style=""color:white; font-size:60px;"">+</div>","null","html-keyboard-response","148","640313","0.0-8.0-0.18","fixation","","","","",""
"2564.720000140369","Stimuli/Hangul_F40.bmp","188","image-keyboard-response","149","642878","0.0-8.0-1.18","test",".","",",","",""
"null","<div style=""color:white; font-size:60px;"">+</div>","null","html-keyboard-response","150","643879","0.0-8.0-0.19","fixation","","","","",""
"2022.9299999773502","Stimuli/Hangul_F29.bmp","190","image-keyboard-response","151","645904","0.0-8.0-1.19","test",".","",".","",""
"null","<div style=""color:white; font-size:60px;"">+</div>","null","html-keyboard-response","152","646905","0.0-8.0-0.20","fixation","","","","",""
"2483.784999931231","Stimuli/Hangul_F27.bmp","188","image-keyboard-response","153","649390","0.0-8.0-1.20","test",".","",",","",""
"null","<div style=""color:white; font-size:60px;"">+</div>","null","html-keyboard-response","154","650392","0.0-8.0-0.21","fixation","","","","",""
"1645.909999962896","Stimuli/Hangul_F25.bmp","188","image-keyboard-response","155","652038","0.0-8.0-1.21","test",".","",",","",""
"null","<div style=""color:white; font-size:60px;"">+</div>","null","html-keyboard-response","156","653040","0.0-8.0-0.22","fixation","","","","",""
"1741.395000135526","Stimuli/Hangul_F30.bmp","190","image-keyboard-response","157","654782","0.0-8.0-1.22","test",".","",".","",""
"null","<div style=""color:white; font-size:60px;"">+</div>","null","html-keyboard-response","158","655783","0.0-8.0-0.23","fixation","","","","",""
"2255.2799999248236","Stimuli/Hangul_F47.bmp","188","image-keyboard-response","159","658039","0.0-8.0-1.23","test",".","",",","",""
"null","<div style=""color:white; font-size:60px;"">+</div>","null","html-keyboard-response","160","659040","0.0-8.0-0.24","fixation","","","","",""
"2452.85000000149","Stimuli/Hangul_F26.bmp","188","image-keyboard-response","161","661494","0.0-8.0-1.24","test",".","",",","",""
"null","<div style=""color:white; font-size:60px;"">+</div>","null","html-keyboard-response","162","662496","0.0-8.0-0.25","fixation","","","","",""
"2317.2850001137704","Stimuli/Hangul_M39.bmp","190","image-keyboard-response","163","664814","0.0-8.0-1.25","test",",","",".","",""
"null","<div style=""color:white; font-size:60px;"">+</div>","null","html-keyboard-response","164","665816","0.0-8.0-0.26","fixation","","","","",""
"1845.1249999925494","Stimuli/Hangul_M40.bmp","188","image-keyboard-response","165","667662","0.0-8.0-1.26","test",",","",",","",""
"null","<div style=""color:white; font-size:60px;"">+</div>","null","html-keyboard-response","166","668664","0.0-8.0-0.27","fixation","","","","",""
"3630.7349998969585","Stimuli/Hangul_F49.bmp","190","image-keyboard-response","167","672295","0.0-8.0-1.27","test",".","",".","",""
"null","<div style=""color:white; font-size:60px;"">+</div>","null","html-keyboard-response","168","673296","0.0-8.0-0.28","fixation","","","","",""
"3372.135000070557","Stimuli/Hangul_M31.bmp","188","image-keyboard-response","169","676670","0.0-8.0-1.28","test",",","",",","",""
"null","<div style=""color:white; font-size:60px;"">+</div>","null","html-keyboard-response","170","677672","0.0-8.0-0.29","fixation","","","","",""
"1909.2850000597537","Stimuli/Hangul_F45.bmp","190","image-keyboard-response","171","679582","0.0-8.0-1.29","test",".","",".","",""
"null","<div style=""color:white; font-size:60px;"">+</div>","null","html-keyboard-response","172","680583","0.0-8.0-0.30","fixation","","","","",""
"1894.994999980554","Stimuli/Hangul_F32.bmp","190","image-keyboard-response","173","682479","0.0-8.0-1.30","test",".","",".","",""
"null","<div style=""color:white; font-size:60px;"">+</div>","null","html-keyboard-response","174","683480","0.0-8.0-0.31","fixation","","","","",""
"3324.724999954924","Stimuli/Hangul_M38.bmp","190","image-keyboard-response","175","686806","0.0-8.0-1.31","test",",","",".","",""
"null","<div style=""color:white; font-size:60px;"">+</div>","null","html-keyboard-response","176","687807","0.0-8.0-0.32","fixation","","","","",""
"2589.6250000223517","Stimuli/Hangul_F31.bmp","188","image-keyboard-response","177","690398","0.0-8.0-1.32","test",".","",",","",""
"null","<div style=""color:white; font-size:60px;"">+</div>","null","html-keyboard-response","178","691399","0.0-8.0-0.33","fixation","","","","",""
"2854.469999903813","Stimuli/Hangul_M45.bmp","188","image-keyboard-response","179","694255","0.0-8.0-1.33","test",",","",",","",""
"null","<div style=""color:white; font-size:60px;"">+</div>","null","html-keyboard-response","180","695257","0.0-8.0-0.34","fixation","","","","",""
"3291.2599998526275","Stimuli/Hangul_F46.bmp","190","image-keyboard-response","181","698550","0.0-8.0-1.34","test",".","",".","",""
"null","<div style=""color:white; font-size:60px;"">+</div>","null","html-keyboard-response","182","699551","0.0-8.0-0.35","fixation","","","","",""
"2853.899999987334","Stimuli/Hangul_M35.bmp","188","image-keyboard-response","183","702406","0.0-8.0-1.35","test",",","",",","",""
"null","<div style=""color:white; font-size:60px;"">+</div>","null","html-keyboard-response","184","703407","0.0-8.0-0.36","fixation","","","","",""
"2606.5249999519438","Stimuli/Hangul_F48.bmp","188","image-keyboard-response","185","706015","0.0-8.0-1.36","test",".","",",","",""
"null","<div style=""color:white; font-size:60px;"">+</div>","null","html-keyboard-response","186","707016","0.0-8.0-0.37","fixation","","","","",""
"1820.10000012815","Stimuli/Hangul_M36.bmp","188","image-keyboard-response","187","708838","0.0-8.0-1.37","test",",","",",","",""
"null","<div style=""color:white; font-size:60px;"">+</div>","null","html-keyboard-response","188","709839","0.0-8.0-0.38","fixation","","","","",""
"2157.2000000160187","Stimuli/Hangul_F38.bmp","188","image-keyboard-response","189","711998","0.0-8.0-1.38","test",".","",",","",""
"null","<div style=""color:white; font-size:60px;"">+</div>","null","html-keyboard-response","190","713000","0.0-8.0-0.39","fixation","","","","",""
"2108.639999991283","Stimuli/Hangul_M28.bmp","188","image-keyboard-response","191","715109","0.0-8.0-1.39","test",",","",",","",""
"null","<div style=""color:white; font-size:60px;"">+</div>","null","html-keyboard-response","192","716113","0.0-8.0-0.40","fixation","","","","",""
"2884.40000009723","Stimuli/Hangul_F33.bmp","188","image-keyboard-response","193","718998","0.0-8.0-1.40","test",".","",",","",""
"null","<div style=""color:white; font-size:60px;"">+</div>","null","html-keyboard-response","194","720000","0.0-8.0-0.41","fixation","","","","",""
"1844.7849999647588","Stimuli/Hangul_F34.bmp","190","image-keyboard-response","195","721846","0.0-8.0-1.41","test",".","",".","",""
"null","<div style=""color:white; font-size:60px;"">+</div>","null","html-keyboard-response","196","722848","0.0-8.0-0.42","fixation","","","","",""
"3597.0300000626594","Stimuli/Hangul_M26.bmp","190","image-keyboard-response","197","726446","0.0-8.0-1.42","test",",","",".","",""
"null","<div style=""color:white; font-size:60px;"">+</div>","null","html-keyboard-response","198","727447","0.0-8.0-0.43","fixation","","","","",""
"3446.460000006482","Stimuli/Hangul_M30.bmp","190","image-keyboard-response","199","730895","0.0-8.0-1.43","test",",","",".","",""
"null","<div style=""color:white; font-size:60px;"">+</div>","null","html-keyboard-response","200","731896","0.0-8.0-0.44","fixation","","","","",""
"2084.7300000023097","Stimuli/Hangul_M46.bmp","188","image-keyboard-response","201","733981","0.0-8.0-1.44","test",",","",",","",""
"null","<div style=""color:white; font-size:60px;"">+</div>","null","html-keyboard-response","202","734983","0.0-8.0-0.45","fixation","","","","",""
"2502.1100000012666","Stimuli/Hangul_M42.bmp","188","image-keyboard-response","203","737485","0.0-8.0-1.45","test",",","",",","",""
"null","<div style=""color:white; font-size:60px;"">+</div>","null","html-keyboard-response","204","738487","0.0-8.0-0.46","fixation","","","","",""
"2357.4549998156726","Stimuli/Hangul_M41.bmp","188","image-keyboard-response","205","740846","0.0-8.0-1.46","test",",","",",","",""
"null","<div style=""color:white; font-size:60px;"">+</div>","null","html-keyboard-response","206","741847","0.0-8.0-0.47","fixation","","","","",""
"2110.289999982342","Stimuli/Hangul_M44.bmp","188","image-keyboard-response","207","743958","0.0-8.0-1.47","test",",","",",","",""
"null","<div style=""color:white; font-size:60px;"">+</div>","null","html-keyboard-response","208","744960","0.0-8.0-0.48","fixation","","","","",""
"3764.489999972284","Stimuli/Hangul_F28.bmp","188","image-keyboard-response","209","748725","0.0-8.0-1.48","test",".","",",","",""
"null","<div style=""color:white; font-size:60px;"">+</div>","null","html-keyboard-response","210","749727","0.0-8.0-0.49","fixation","","","","",""
"2148.56499992311","Stimuli/Hangul_M29.bmp","188","image-keyboard-response","211","751877","0.0-8.0-1.49","test",",","",",","",""
"220333.63000000827","<p style=""color:white;"">Half way there! Please take a moment to rest.</p> <p style=""color:white;"">When you are ready to continue with block 3 of 4, press the space bar.</p> ","32","html-keyboard-response","212","972212","0.0-9.0","","","","","",""
"null","<div style=""color:white; font-size:60px;"">+</div>","null","html-keyboard-response","213","975215","0.0-10.0-0.0","fixation","","","","",""
"3139.7150000557303","Stimuli/Hangul_M70.bmp","188","image-keyboard-response","214","978355","0.0-10.0-1.0","test",",","",",","",""
"null","<div style=""color:white; font-size:60px;"">+</div>","null","html-keyboard-response","215","979358","0.0-10.0-0.1","fixation","","","","",""
"2157.7900000847876","Stimuli/Hangul_F57.bmp","190","image-keyboard-response","216","981517","0.0-10.0-1.1","test",".","",".","",""
"null","<div style=""color:white; font-size:60px;"">+</div>","null","html-keyboard-response","217","982518","0.0-10.0-0.2","fixation","","","","",""
"2604.245000053197","Stimuli/Hangul_M65.bmp","188","image-keyboard-response","218","985123","0.0-10.0-1.2","test",",","",",","",""
"null","<div style=""color:white; font-size:60px;"">+</div>","null","html-keyboard-response","219","986125","0.0-10.0-0.3","fixation","","","","",""
"2221.669999882579","Stimuli/Hangul_F67.bmp","188","image-keyboard-response","220","988348","0.0-10.0-1.3","test",".","",",","",""
"null","<div style=""color:white; font-size:60px;"">+</div>","null","html-keyboard-response","221","989349","0.0-10.0-0.4","fixation","","","","",""
"1877.1949999500066","Stimuli/Hangul_F70.bmp","188","image-keyboard-response","222","991227","0.0-10.0-1.4","test",".","",",","",""
"null","<div style=""color:white; font-size:60px;"">+</div>","null","html-keyboard-response","223","992230","0.0-10.0-0.5","fixation","","","","",""
"3814.0199999324977","Stimuli/Hangul_M51.bmp","188","image-keyboard-response","224","996044","0.0-10.0-1.5","test",",","",",","",""
"null","<div style=""color:white; font-size:60px;"">+</div>","null","html-keyboard-response","225","997046","0.0-10.0-0.6","fixation","","","","",""
"2419.7849999181926","Stimuli/Hangul_M53.bmp","188","image-keyboard-response","226","999467","0.0-10.0-1.6","test",",","",",","",""
"null","<div style=""color:white; font-size:60px;"">+</div>","null","html-keyboard-response","227","1000468","0.0-10.0-0.7","fixation","","","","",""
"2413.9499999582767","Stimuli/Hangul_M67.bmp","190","image-keyboard-response","228","1002884","0.0-10.0-1.7","test",",","",".","",""
"null","<div style=""color:white; font-size:60px;"">+</div>","null","html-keyboard-response","229","1003886","0.0-10.0-0.8","fixation","","","","",""
"2445.225000148639","Stimuli/Hangul_F52.bmp","188","image-keyboard-response","230","1006332","0.0-10.0-1.8","test",".","",",","",""
"null","<div style=""color:white; font-size:60px;"">+</div>","null","html-keyboard-response","231","1007334","0.0-10.0-0.9","fixation","","","","",""
"2059.855000115931","Stimuli/Hangul_M66.bmp","188","image-keyboard-response","232","1009395","0.0-10.0-1.9","test",",","",",","",""
"null","<div style=""color:white; font-size:60px;"">+</div>","null","html-keyboard-response","233","1010396","0.0-10.0-0.10","fixation","","","","",""
"3046.3749999180436","Stimuli/Hangul_F61.bmp","190","image-keyboard-response","234","1013443","0.0-10.0-1.10","test",".","",".","",""
"null","<div style=""color:white; font-size:60px;"">+</div>","null","html-keyboard-response","235","1014445","0.0-10.0-0.11","fixation","","","","",""
"2582.4599999468774","Stimuli/Hangul_F74.bmp","190","image-keyboard-response","236","1017029","0.0-10.0-1.11","test",".","",".","",""
"null","<div style=""color:white; font-size:60px;"">+</div>","null","html-keyboard-response","237","1018030","0.0-10.0-0.12","fixation","","","","",""
"2699.5300000999123","Stimuli/Hangul_F51.bmp","190","image-keyboard-response","238","1020731","0.0-10.0-1.12","test",".","",".","",""
"null","<div style=""color:white; font-size:60px;"">+</div>","null","html-keyboard-response","239","1021732","0.0-10.0-0.13","fixation","","","","",""
"2341.789999976754","Stimuli/Hangul_F63.bmp","190","image-keyboard-response","240","1024075","0.0-10.0-1.13","test",".","",".","",""
"null","<div style=""color:white; font-size:60px;"">+</div>","null","html-keyboard-response","241","1025077","0.0-10.0-0.14","fixation","","","","",""
"2486.439999891445","Stimuli/Hangul_M61.bmp","190","image-keyboard-response","242","1027564","0.0-10.0-1.14","test",",","",".","",""
"null","<div style=""color:white; font-size:60px;"">+</div>","null","html-keyboard-response","243","1028566","0.0-10.0-0.15","fixation","","","","",""
"2676.2250000610948","Stimuli/Hangul_F64.bmp","190","image-keyboard-response","244","1031243","0.0-10.0-1.15","test",".","",".","",""
"null","<div style=""color:white; font-size:60px;"">+</div>","null","html-keyboard-response","245","1032245","0.0-10.0-0.16","fixation","","","","",""
"3189.57499996759","Stimuli/Hangul_F59.bmp","190","image-keyboard-response","246","1035435","0.0-10.0-1.16","test",".","",".","",""
"null","<div style=""color:white; font-size:60px;"">+</div>","null","html-keyboard-response","247","1036437","0.0-10.0-0.17","fixation","","","","",""
"2158.2049999851733","Stimuli/Hangul_F72.bmp","188","image-keyboard-response","248","1038596","0.0-10.0-1.17","test",".","",",","",""
"null","<div style=""color:white; font-size:60px;"">+</div>","null","html-keyboard-response","249","1039598","0.0-10.0-0.18","fixation","","","","",""
"2059.9650000222027","Stimuli/Hangul_M72.bmp","188","image-keyboard-response","250","1041659","0.0-10.0-1.18","test",",","",",","",""
"null","<div style=""color:white; font-size:60px;"">+</div>","null","html-keyboard-response","251","1042660","0.0-10.0-0.19","fixation","","","","",""
"1758.3350001368672","Stimuli/Hangul_M68.bmp","188","image-keyboard-response","252","1044419","0.0-10.0-1.19","test",",","",",","",""
"null","<div style=""color:white; font-size:60px;"">+</div>","null","html-keyboard-response","253","1045421","0.0-10.0-0.20","fixation","","","","",""
"1573.6100000794977","Stimuli/Hangul_M73.bmp","188","image-keyboard-response","254","1046995","0.0-10.0-1.20","test",",","",",","",""
"null","<div style=""color:white; font-size:60px;"">+</div>","null","html-keyboard-response","255","1047996","0.0-10.0-0.21","fixation","","","","",""
"1823.314999928698","Stimuli/Hangul_F54.bmp","190","image-keyboard-response","256","1049820","0.0-10.0-1.21","test",".","",".","",""
"null","<div style=""color:white; font-size:60px;"">+</div>","null","html-keyboard-response","257","1050823","0.0-10.0-0.22","fixation","","","","",""
"1892.0050000306219","Stimuli/Hangul_M63.bmp","188","image-keyboard-response","258","1052715","0.0-10.0-1.22","test",",","",",","",""
"null","<div style=""color:white; font-size:60px;"">+</div>","null","html-keyboard-response","259","1053716","0.0-10.0-0.23","fixation","","","","",""
"1877.4449999909848","Stimuli/Hangul_M74.bmp","188","image-keyboard-response","260","1055595","0.0-10.0-1.23","test",",","",",","",""
"null","<div style=""color:white; font-size:60px;"">+</div>","null","html-keyboard-response","261","1056596","0.0-10.0-0.24","fixation","","","","",""
"1798.454999923706","Stimuli/Hangul_F71.bmp","190","image-keyboard-response","262","1058395","0.0-10.0-1.24","test",".","",".","",""
"null","<div style=""color:white; font-size:60px;"">+</div>","null","html-keyboard-response","263","1059397","0.0-10.0-0.25","fixation","","","","",""
"2302.234999835491","Stimuli/Hangul_F66.bmp","190","image-keyboard-response","264","1061701","0.0-10.0-1.25","test",".","",".","",""
"null","<div style=""color:white; font-size:60px;"">+</div>","null","html-keyboard-response","265","1062701","0.0-10.0-0.26","fixation","","","","",""
"2317.090000025928","Stimuli/Hangul_F62.bmp","190","image-keyboard-response","266","1065019","0.0-10.0-1.26","test",".","",".","",""
"null","<div style=""color:white; font-size:60px;"">+</div>","null","html-keyboard-response","267","1066022","0.0-10.0-0.27","fixation","","","","",""
"3532.134999986738","Stimuli/Hangul_F53.bmp","190","image-keyboard-response","268","1069555","0.0-10.0-1.27","test",".","",".","",""
"null","<div style=""color:white; font-size:60px;"">+</div>","null","html-keyboard-response","269","1070557","0.0-10.0-0.28","fixation","","","","",""
"3206.220000050962","Stimuli/Hangul_F56.bmp","188","image-keyboard-response","270","1073764","0.0-10.0-1.28","test",".","",",","",""
"null","<div style=""color:white; font-size:60px;"">+</div>","null","html-keyboard-response","271","1074766","0.0-10.0-0.29","fixation","","","","",""
"2011.7999999783933","Stimuli/Hangul_F69.bmp","190","image-keyboard-response","272","1076779","0.0-10.0-1.29","test",".","",".","",""
"null","<div style=""color:white; font-size:60px;"">+</div>","null","html-keyboard-response","273","1077780","0.0-10.0-0.30","fixation","","","","",""
"1845.4599999822676","Stimuli/Hangul_M69.bmp","188","image-keyboard-response","274","1079627","0.0-10.0-1.30","test",",","",",","",""
"null","<div style=""color:white; font-size:60px;"">+</div>","null","html-keyboard-response","275","1080629","0.0-10.0-0.31","fixation","","","","",""
"2557.3250001762062","Stimuli/Hangul_M56.bmp","188","image-keyboard-response","276","1083187","0.0-10.0-1.31","test",",","",",","",""
"null","<div style=""color:white; font-size:60px;"">+</div>","null","html-keyboard-response","277","1084189","0.0-10.0-0.32","fixation","","","","",""
"2054.044999880716","Stimuli/Hangul_M59.bmp","188","image-keyboard-response","278","1086244","0.0-10.0-1.32","test",",","",",","",""
"null","<div style=""color:white; font-size:60px;"">+</div>","null","html-keyboard-response","279","1087245","0.0-10.0-0.33","fixation","","","","",""
"2189.0549999661744","Stimuli/Hangul_F50.bmp","188","image-keyboard-response","280","1089435","0.0-10.0-1.33","test",".","",",","",""
"null","<div style=""color:white; font-size:60px;"">+</div>","null","html-keyboard-response","281","1090437","0.0-10.0-0.34","fixation","","","","",""
"2133.020000066608","Stimuli/Hangul_M64.bmp","188","image-keyboard-response","282","1092571","0.0-10.0-1.34","test",",","",",","",""
"null","<div style=""color:white; font-size:60px;"">+</div>","null","html-keyboard-response","283","1093572","0.0-10.0-0.35","fixation","","","","",""
"2998.5500001348555","Stimuli/Hangul_M57.bmp","188","image-keyboard-response","284","1096572","0.0-10.0-1.35","test",",","",",","",""
"null","<div style=""color:white; font-size:60px;"">+</div>","null","html-keyboard-response","285","1097573","0.0-10.0-0.36","fixation","","","","",""
"2053.0499999877065","Stimuli/Hangul_M55.bmp","188","image-keyboard-response","286","1099627","0.0-10.0-1.36","test",",","",",","",""
"null","<div style=""color:white; font-size:60px;"">+</div>","null","html-keyboard-response","287","1100628","0.0-10.0-0.37","fixation","","","","",""
"3773.9250001031905","Stimuli/Hangul_M54.bmp","190","image-keyboard-response","288","1104403","0.0-10.0-1.37","test",",","",".","",""
"null","<div style=""color:white; font-size:60px;"">+</div>","null","html-keyboard-response","289","1105404","0.0-10.0-0.38","fixation","","","","",""
"2367.064999882132","Stimuli/Hangul_M52.bmp","188","image-keyboard-response","290","1107772","0.0-10.0-1.38","test",",","",",","",""
"null","<div style=""color:white; font-size:60px;"">+</div>","null","html-keyboard-response","291","1108774","0.0-10.0-0.39","fixation","","","","",""
"3076.545000076294","Stimuli/Hangul_M50.bmp","190","image-keyboard-response","292","1111851","0.0-10.0-1.39","test",",","",".","",""
"null","<div style=""color:white; font-size:60px;"">+</div>","null","html-keyboard-response","293","1112853","0.0-10.0-0.40","fixation","","","","",""
"1932.329999981448","Stimuli/Hangul_M62.bmp","188","image-keyboard-response","294","1114787","0.0-10.0-1.40","test",",","",",","",""
"null","<div style=""color:white; font-size:60px;"">+</div>","null","html-keyboard-response","295","1115789","0.0-10.0-0.41","fixation","","","","",""
"7038.219999987632","Stimuli/Hangul_M58.bmp","190","image-keyboard-response","296","1122828","0.0-10.0-1.41","test",",","",".","",""
"null","<div style=""color:white; font-size:60px;"">+</div>","null","html-keyboard-response","297","1123829","0.0-10.0-0.42","fixation","","","","",""
"4700.2550000324845","Stimuli/Hangul_F68.bmp","190","image-keyboard-response","298","1128531","0.0-10.0-1.42","test",".","",".","",""
"null","<div style=""color:white; font-size:60px;"">+</div>","null","html-keyboard-response","299","1129533","0.0-10.0-0.43","fixation","","","","",""
"3605.03500001505","Stimuli/Hangul_F60.bmp","188","image-keyboard-response","300","1133140","0.0-10.0-1.43","test",".","",",","",""
"null","<div style=""color:white; font-size:60px;"">+</div>","null","html-keyboard-response","301","1134141","0.0-10.0-0.44","fixation","","","","",""
"4771.905000088736","Stimuli/Hangul_M60.bmp","190","image-keyboard-response","302","1138914","0.0-10.0-1.44","test",",","",".","",""
"null","<div style=""color:white; font-size:60px;"">+</div>","null","html-keyboard-response","303","1139916","0.0-10.0-0.45","fixation","","","","",""
"4574.269999982789","Stimuli/Hangul_F65.bmp","190","image-keyboard-response","304","1144491","0.0-10.0-1.45","test",".","",".","",""
"null","<div style=""color:white; font-size:60px;"">+</div>","null","html-keyboard-response","305","1145493","0.0-10.0-0.46","fixation","","","","",""
"2268.225000007078","Stimuli/Hangul_F58.bmp","188","image-keyboard-response","306","1147763","0.0-10.0-1.46","test",".","",",","",""
"null","<div style=""color:white; font-size:60px;"">+</div>","null","html-keyboard-response","307","1148764","0.0-10.0-0.47","fixation","","","","",""
"2709.735000040382","Stimuli/Hangul_F55.bmp","188","image-keyboard-response","308","1151474","0.0-10.0-1.47","test",".","",",","",""
"null","<div style=""color:white; font-size:60px;"">+</div>","null","html-keyboard-response","309","1152476","0.0-10.0-0.48","fixation","","","","",""
"1964.990000007674","Stimuli/Hangul_M71.bmp","188","image-keyboard-response","310","1154442","0.0-10.0-1.48","test",",","",",","",""
"null","<div style=""color:white; font-size:60px;"">+</div>","null","html-keyboard-response","311","1155444","0.0-10.0-0.49","fixation","","","","",""
"1518.5350000392646","Stimuli/Hangul_F73.bmp","190","image-keyboard-response","312","1156963","0.0-10.0-1.49","test",".","",".","",""
"2774.239999940619","<p style=""color:white;"">One more block to go! Please take a moment to rest.</p> <p style=""color:white;"">When you are ready to continue with block 4 of 4, press the space bar.</p> ","32","html-keyboard-response","313","1159738","0.0-11.0","","","","","",""
"null","<div style=""color:white; font-size:60px;"">+</div>","null","html-keyboard-response","314","1162741","0.0-12.0-0.0","fixation","","","","",""
"5365.079999901354","Stimuli/Hangul_M75.bmp","188","image-keyboard-response","315","1168107","0.0-12.0-1.0","test",",","",",","",""
"null","<div style=""color:white; font-size:60px;"">+</div>","null","html-keyboard-response","316","1169109","0.0-12.0-0.1","fixation","","","","",""
"2907.869999995455","Stimuli/Hangul_F76.bmp","190","image-keyboard-response","317","1172018","0.0-12.0-1.1","test",".","",".","",""
"null","<div style=""color:white; font-size:60px;"">+</div>","null","html-keyboard-response","318","1173020","0.0-12.0-0.2","fixation","","","","",""
"4436.884999973699","Stimuli/Hangul_M99.bmp","188","image-keyboard-response","319","1177458","0.0-12.0-1.2","test",",","",",","",""
"null","<div style=""color:white; font-size:60px;"">+</div>","null","html-keyboard-response","320","1178460","0.0-12.0-0.3","fixation","","","","",""
"4710.304999956861","Stimuli/Hangul_M97.bmp","190","image-keyboard-response","321","1183171","0.0-12.0-1.3","test",",","",".","",""
"null","<div style=""color:white; font-size:60px;"">+</div>","null","html-keyboard-response","322","1184173","0.0-12.0-0.4","fixation","","","","",""
"2811.9999999180436","Stimuli/Hangul_M88.bmp","190","image-keyboard-response","323","1186986","0.0-12.0-1.4","test",",","",".","",""
"null","<div style=""color:white; font-size:60px;"">+</div>","null","html-keyboard-response","324","1187987","0.0-12.0-0.5","fixation","","","","",""
"3341.4199999533594","Stimuli/Hangul_F79.bmp","188","image-keyboard-response","325","1191330","0.0-12.0-1.5","test",".","",",","",""
"null","<div style=""color:white; font-size:60px;"">+</div>","null","html-keyboard-response","326","1192331","0.0-12.0-0.6","fixation","","","","",""
"2839.3449999857694","Stimuli/Hangul_F84.bmp","190","image-keyboard-response","327","1195171","0.0-12.0-1.6","test",".","",".","",""
"null","<div style=""color:white; font-size:60px;"">+</div>","null","html-keyboard-response","328","1196173","0.0-12.0-0.7","fixation","","","","",""
"2540.1000001002103","Stimuli/Hangul_M82.bmp","190","image-keyboard-response","329","1198714","0.0-12.0-1.7","test",",","",".","",""
"null","<div style=""color:white; font-size:60px;"">+</div>","null","html-keyboard-response","330","1199715","0.0-12.0-0.8","fixation","","","","",""
"2533.864999888465","Stimuli/Hangul_M79.bmp","190","image-keyboard-response","331","1202250","0.0-12.0-1.8","test",",","",".","",""
"null","<div style=""color:white; font-size:60px;"">+</div>","null","html-keyboard-response","332","1203251","0.0-12.0-0.9","fixation","","","","",""
"3133.525000186637","Stimuli/Hangul_M96.bmp","190","image-keyboard-response","333","1206387","0.0-12.0-1.9","test",",","",".","",""
"null","<div style=""color:white; font-size:60px;"">+</div>","null","html-keyboard-response","334","1207388","0.0-12.0-0.10","fixation","","","","",""
"2308.4599999710917","Stimuli/Hangul_M92.bmp","190","image-keyboard-response","335","1209698","0.0-12.0-1.10","test",",","",".","",""
"null","<div style=""color:white; font-size:60px;"">+</div>","null","html-keyboard-response","336","1210700","0.0-12.0-0.11","fixation","","","","",""
"2228.6199999507517","Stimuli/Hangul_F85.bmp","190","image-keyboard-response","337","1212930","0.0-12.0-1.11","test",".","",".","",""
"null","<div style=""color:white; font-size:60px;"">+</div>","null","html-keyboard-response","338","1213932","0.0-12.0-0.12","fixation","","","","",""
"3814.3700000364333","Stimuli/Hangul_F90.bmp","188","image-keyboard-response","339","1217747","0.0-12.0-1.12","test",".","",",","",""
"null","<div style=""color:white; font-size:60px;"">+</div>","null","html-keyboard-response","340","1218749","0.0-12.0-0.13","fixation","","","","",""
"2196.229999884963","Stimuli/Hangul_F94.bmp","190","image-keyboard-response","341","1220946","0.0-12.0-1.13","test",".","",".","",""
"null","<div style=""color:white; font-size:60px;"">+</div>","null","html-keyboard-response","342","1221949","0.0-12.0-0.14","fixation","","","","",""
"2204.084999859333","Stimuli/Hangul_F96.bmp","190","image-keyboard-response","343","1224154","0.0-12.0-1.14","test",".","",".","",""
"null","<div style=""color:white; font-size:60px;"">+</div>","null","html-keyboard-response","344","1225155","0.0-12.0-0.15","fixation","","","","",""
"2141.8299998622388","Stimuli/Hangul_M91.bmp","190","image-keyboard-response","345","1227298","0.0-12.0-1.15","test",",","",".","",""
"null","<div style=""color:white; font-size:60px;"">+</div>","null","html-keyboard-response","346","1228299","0.0-12.0-0.16","fixation","","","","",""
"1951.2000000104308","Stimuli/Hangul_F99.bmp","188","image-keyboard-response","347","1230251","0.0-12.0-1.16","test",".","",",","",""
"null","<div style=""color:white; font-size:60px;"">+</div>","null","html-keyboard-response","348","1231253","0.0-12.0-0.17","fixation","","","","",""
"1980.049999896437","Stimuli/Hangul_F93.bmp","190","image-keyboard-response","349","1233234","0.0-12.0-1.17","test",".","",".","",""
"null","<div style=""color:white; font-size:60px;"">+</div>","null","html-keyboard-response","350","1234237","0.0-12.0-0.18","fixation","","","","",""
"3532.765000127256","Stimuli/Hangul_M80.bmp","190","image-keyboard-response","351","1237770","0.0-12.0-1.18","test",",","",".","",""
"null","<div style=""color:white; font-size:60px;"">+</div>","null","html-keyboard-response","352","1238772","0.0-12.0-0.19","fixation","","","","",""
"2733.544999966398","Stimuli/Hangul_M87.bmp","190","image-keyboard-response","353","1241507","0.0-12.0-1.19","test",",","",".","",""
"null","<div style=""color:white; font-size:60px;"">+</div>","null","html-keyboard-response","354","1242509","0.0-12.0-0.20","fixation","","","","",""
"2348.424999974668","Stimuli/Hangul_F87.bmp","190","image-keyboard-response","355","1244858","0.0-12.0-1.20","test",".","",".","",""
"null","<div style=""color:white; font-size:60px;"">+</div>","null","html-keyboard-response","356","1245859","0.0-12.0-0.21","fixation","","","","",""
"2085.594999836758","Stimuli/Hangul_F88.bmp","190","image-keyboard-response","357","1247946","0.0-12.0-1.21","test",".","",".","",""
"null","<div style=""color:white; font-size:60px;"">+</div>","null","html-keyboard-response","358","1248948","0.0-12.0-0.22","fixation","","","","",""
"1956.6699999850243","Stimuli/Hangul_M84.bmp","190","image-keyboard-response","359","1250906","0.0-12.0-1.22","test",",","",".","",""
"null","<div style=""color:white; font-size:60px;"">+</div>","null","html-keyboard-response","360","1251907","0.0-12.0-0.23","fixation","","","","",""
"3062.9149999003857","Stimuli/Hangul_M98.bmp","188","image-keyboard-response","361","1254971","0.0-12.0-1.23","test",",","",",","",""
"null","<div style=""color:white; font-size:60px;"">+</div>","null","html-keyboard-response","362","1255972","0.0-12.0-0.24","fixation","","","","",""
"4396.629999857396","Stimuli/Hangul_M90.bmp","188","image-keyboard-response","363","1260370","0.0-12.0-1.24","test",",","",",","",""
"null","<div style=""color:white; font-size:60px;"">+</div>","null","html-keyboard-response","364","1261372","0.0-12.0-0.25","fixation","","","","",""
"2883.990000002086","Stimuli/Hangul_M93.bmp","188","image-keyboard-response","365","1264258","0.0-12.0-1.25","test",",","",",","",""
"null","<div style=""color:white; font-size:60px;"">+</div>","null","html-keyboard-response","366","1265260","0.0-12.0-0.26","fixation","","","","",""
"2701.535000000149","Stimuli/Hangul_F77.bmp","190","image-keyboard-response","367","1267963","0.0-12.0-1.26","test",".","",".","",""
"null","<div style=""color:white; font-size:60px;"">+</div>","null","html-keyboard-response","368","1268965","0.0-12.0-0.27","fixation","","","","",""
"2251.549999928102","Stimuli/Hangul_F91.bmp","188","image-keyboard-response","369","1271218","0.0-12.0-1.27","test",".","",",","",""
"null","<div style=""color:white; font-size:60px;"">+</div>","null","html-keyboard-response","370","1272220","0.0-12.0-0.28","fixation","","","","",""
"1980.9499999973923","Stimuli/Hangul_F83.bmp","190","image-keyboard-response","371","1274202","0.0-12.0-1.28","test",".","",".","",""
"null","<div style=""color:white; font-size:60px;"">+</div>","null","html-keyboard-response","372","1275203","0.0-12.0-0.29","fixation","","","","",""
"2045.719999819994","Stimuli/Hangul_M89.bmp","190","image-keyboard-response","373","1277250","0.0-12.0-1.29","test",",","",".","",""
"null","<div style=""color:white; font-size:60px;"">+</div>","null","html-keyboard-response","374","1278251","0.0-12.0-0.30","fixation","","","","",""
"1847.0900000538677","Stimuli/Hangul_F80.bmp","190","image-keyboard-response","375","1280099","0.0-12.0-1.30","test",".","",".","",""
"null","<div style=""color:white; font-size:60px;"">+</div>","null","html-keyboard-response","376","1281100","0.0-12.0-0.31","fixation","","","","",""
"3053.055000025779","Stimuli/Hangul_M95.bmp","188","image-keyboard-response","377","1284154","0.0-12.0-1.31","test",",","",",","",""
"null","<div style=""color:white; font-size:60px;"">+</div>","null","html-keyboard-response","378","1285155","0.0-12.0-0.32","fixation","","","","",""
"7566.869999980554","Stimuli/Hangul_F98.bmp","190","image-keyboard-response","379","1292723","0.0-12.0-1.32","test",".","",".","",""
"null","<div style=""color:white; font-size:60px;"">+</div>","null","html-keyboard-response","380","1293723","0.0-12.0-0.33","fixation","","","","",""
"2100.899999961257","Stimuli/Hangul_F89.bmp","190","image-keyboard-response","381","1295826","0.0-12.0-1.33","test",".","",".","",""
"null","<div style=""color:white; font-size:60px;"">+</div>","null","html-keyboard-response","382","1296828","0.0-12.0-0.34","fixation","","","","",""
"2189.1600000672042","Stimuli/Hangul_F86.bmp","190","image-keyboard-response","383","1299018","0.0-12.0-1.34","test",".","",".","",""
"null","<div style=""color:white; font-size:60px;"">+</div>","null","html-keyboard-response","384","1300019","0.0-12.0-0.35","fixation","","","","",""
"3062.265000073239","Stimuli/Hangul_M86.bmp","190","image-keyboard-response","385","1303082","0.0-12.0-1.35","test",",","",".","",""
"null","<div style=""color:white; font-size:60px;"">+</div>","null","html-keyboard-response","386","1304083","0.0-12.0-0.36","fixation","","","","",""
"2076.869999989867","Stimuli/Hangul_F97.bmp","190","image-keyboard-response","387","1306161","0.0-12.0-1.36","test",".","",".","",""
"null","<div style=""color:white; font-size:60px;"">+</div>","null","html-keyboard-response","388","1307163","0.0-12.0-0.37","fixation","","","","",""
"2733.6849998682737","Stimuli/Hangul_M85.bmp","190","image-keyboard-response","389","1309897","0.0-12.0-1.37","test",",","",".","",""
"null","<div style=""color:white; font-size:60px;"">+</div>","null","html-keyboard-response","390","1310899","0.0-12.0-0.38","fixation","","","","",""
"2190.6400001607835","Stimuli/Hangul_F95.bmp","190","image-keyboard-response","391","1313090","0.0-12.0-1.38","test",".","",".","",""
"null","<div style=""color:white; font-size:60px;"">+</div>","null","html-keyboard-response","392","1314091","0.0-12.0-0.39","fixation","","","","",""
"1876.8199998885393","Stimuli/Hangul_F82.bmp","190","image-keyboard-response","393","1315969","0.0-12.0-1.39","test",".","",".","",""
"null","<div style=""color:white; font-size:60px;"">+</div>","null","html-keyboard-response","394","1316971","0.0-12.0-0.40","fixation","","","","",""
"1861.7249999660999","Stimuli/Hangul_F81.bmp","190","image-keyboard-response","395","1318833","0.0-12.0-1.40","test",".","",".","",""
"null","<div style=""color:white; font-size:60px;"">+</div>","null","html-keyboard-response","396","1319835","0.0-12.0-0.41","fixation","","","","",""
"1820.4650001134723","Stimuli/Hangul_M81.bmp","190","image-keyboard-response","397","1321657","0.0-12.0-1.41","test",",","",".","",""
"null","<div style=""color:white; font-size:60px;"">+</div>","null","html-keyboard-response","398","1322659","0.0-12.0-0.42","fixation","","","","",""
"1733.8800001889467","Stimuli/Hangul_F78.bmp","190","image-keyboard-response","399","1324394","0.0-12.0-1.42","test",".","",".","",""
"null","<div style=""color:white; font-size:60px;"">+</div>","null","html-keyboard-response","400","1325395","0.0-12.0-0.43","fixation","","","","",""
"2269.0949998795986","Stimuli/Hangul_M76.bmp","188","image-keyboard-response","401","1327665","0.0-12.0-1.43","test",",","",",","",""
"null","<div style=""color:white; font-size:60px;"">+</div>","null","html-keyboard-response","402","1328666","0.0-12.0-0.44","fixation","","","","",""
"1885.950000025332","Stimuli/Hangul_F75.bmp","190","image-keyboard-response","403","1330553","0.0-12.0-1.44","test",".","",".","",""
"null","<div style=""color:white; font-size:60px;"">+</div>","null","html-keyboard-response","404","1331554","0.0-12.0-0.45","fixation","","","","",""
"4167.020000051707","Stimuli/Hangul_M94.bmp","190","image-keyboard-response","405","1335722","0.0-12.0-1.45","test",",","",".","",""
"null","<div style=""color:white; font-size:60px;"">+</div>","null","html-keyboard-response","406","1336724","0.0-12.0-0.46","fixation","","","","",""
"2124.030000064522","Stimuli/Hangul_M83.bmp","188","image-keyboard-response","407","1338849","0.0-12.0-1.46","test",",","",",","",""
"null","<div style=""color:white; font-size:60px;"">+</div>","null","html-keyboard-response","408","1339851","0.0-12.0-0.47","fixation","","","","",""
"4413.345000008121","Stimuli/Hangul_M78.bmp","188","image-keyboard-response","409","1344265","0.0-12.0-1.47","test",",","",",","",""
"null","<div style=""color:white; font-size:60px;"">+</div>","null","html-keyboard-response","410","1345267","0.0-12.0-0.48","fixation","","","","",""
"2693.7800000887364","Stimuli/Hangul_M77.bmp","188","image-keyboard-response","411","1347962","0.0-12.0-1.48","test",",","",",","",""
"null","<div style=""color:white; font-size:60px;"">+</div>","null","html-keyboard-response","412","1348964","0.0-12.0-0.49","fixation","","","","",""
"2140.2849999722093","Stimuli/Hangul_F92.bmp","190","image-keyboard-response","413","1351105","0.0-12.0-1.49","test",".","",".","",""
"3646.449999883771","<p style=""color:white;"">Phase I of the experiment is complete.</p> <p style=""color:white;"">Press the space bar to proceed to Phase II of the experiment.</p> ","32","html-keyboard-response","414","1354752","0.0-13.0","","","","","",""
"23005.265000043437","<p style=""color:white;"">Now we are interested in how well you can predict patterns in the series of figures. You will be asked to predict whether the next figure in the series is more male-like or female-like. When you see the <q>Next Figure</q> prompt, press the corresponding response keys to indicate your prediction: </p><p style=""color:white;""> Male &#8594 <q>,</q> (comma)</p><p style=""color:white;""> Female &#8594 <q>.</q> (period)</p><p style=""color:white;"">The actual figure will then appear on the screen. After you see the figure, please guess the assigned gender with response keys. </p><p style=""color:white;"">As before, you will receive 2 cents for correctly classifying each figure.</p><p style=""color:white;"">Press either response keys to continue.</p>","188","html-keyboard-response","415","1379761","0.0-14.0","","","","","",""
"20279.899999964982","<p style=""color:white;"">PREDICTION BONUS</p> <p style=""color:white;"">Your prediction accuracy is the total number of correct predictions you make over the 200 trials.</p> <p style=""color:white;"">In addition to the 2 cents per correct figure classification, you have the chance to receive a bonus of 40 dollars IF your accuracy is above average relative to previous participants.</p><p style=""color:white;"">If your accuracy is below average relative to previous participants, then you will not receive the 40 dollar bonus.</p><p style=""color:white;"">Press the space bar to continue.</p>","32","html-keyboard-response","416","1400042","0.0-15.0","","","","","",""
"16757.375000044703","<p style=""color:white;"">Here are some examples.</p> <p style=""color:white;"">For each, predict whether the next figure looks more male-like or female-like. Then, when the figure appears, guess whether it looks more male-like or female-like and indicate your choice.</p> <p style=""color:white;"">Press the space bar to continue.</p>","32","html-keyboard-response","417","1416801","0.0-16.0","","","","","",""
"2765.5300002079457","<p style=""color:white;""> Next Figure: Male or Female? </p>","188","html-keyboard-response","418","1421568","0.0-17.0-0.0","prediction_train","","","",",",""
"null","<div style=""color:white; font-size:60px;"">+</div>","null","html-keyboard-response","419","1422569","0.0-17.0-1.0","fixation","","","","",""
"3958.1149998120964","Stimuli/Hangul_E0.bmp","188","image-keyboard-response","420","1426528","0.0-17.0-2.0","c2_train",",","","","",","
"1183.9449999388307","<p style=""color:white;""> Next Figure: Male or Female? </p>","188","html-keyboard-response","421","1427713","0.0-17.0-0.1","prediction_train","","","",",",""
"null","<div style=""color:white; font-size:60px;"">+</div>","null","html-keyboard-response","422","1428715","0.0-17.0-1.1","fixation","","","","",""
"2108.0400000791997","Stimuli/Hangul_E2.bmp","190","image-keyboard-response","423","1430824","0.0-17.0-2.1","c2_train",".","","","","."
"583.2850001752377","<p style=""color:white;""> Next Figure: Male or Female? </p>","190","html-keyboard-response","424","1431408","0.0-17.0-0.2","prediction_train","","","",".",""
"null","<div style=""color:white; font-size:60px;"">+</div>","null","html-keyboard-response","425","1432411","0.0-17.0-1.2","fixation","","","","",""
"3324.274999788031","Stimuli/Hangul_E1.bmp","188","image-keyboard-response","426","1435736","0.0-17.0-2.2","c2_train",",","","","",","
"149133.74499999918","<p style=""color:white;"">Let us begin! Press the space bar when you are ready to start block 1 of 4.</p> ","32","html-keyboard-response","427","1584870","0.0-18.0","","","","","",""
"1237.8299999982119","<p style=""color:white;""> Next Figure: Male or Female? </p>","188","html-keyboard-response","428","1588110","0.0-19.0-0.0","prediction","","","",",",""
"null","<div style=""color:white; font-size:60px;"">+</div>","null","html-keyboard-response","429","1589113","0.0-19.0-1.0","fixation","","","","",""
"2877.375000156462","Stimuli/Hangul_F0.bmp","188","image-keyboard-response","430","1591991","0.0-19.0-2.0","c2_test",".","","","",","
"782.0099999662489","<p style=""color:white;""> Next Figure: Male or Female? </p>","188","html-keyboard-response","431","1592774","0.0-19.0-0.1","prediction","","","",",",""
"null","<div style=""color:white; font-size:60px;"">+</div>","null","html-keyboard-response","432","1593776","0.0-19.0-1.1","fixation","","","","",""
"2901.344999903813","Stimuli/Hangul_F7.bmp","190","image-keyboard-response","433","1596678","0.0-19.0-2.1","c2_test",".","","","","."
"959.1550000477582","<p style=""color:white;""> Next Figure: Male or Female? </p>","190","html-keyboard-response","434","1597638","0.0-19.0-0.2","prediction","","","",".",""
"null","<div style=""color:white; font-size:60px;"">+</div>","null","html-keyboard-response","435","1598640","0.0-19.0-1.2","fixation","","","","",""
"2069.300000090152","Stimuli/Hangul_F5.bmp","188","image-keyboard-response","436","1600710","0.0-19.0-2.2","c2_test",".","","","",","
"591.6349999606609","<p style=""color:white;""> Next Figure: Male or Female? </p>","188","html-keyboard-response","437","1601302","0.0-19.0-0.3","prediction","","","",",",""
"null","<div style=""color:white; font-size:60px;"">+</div>","null","html-keyboard-response","438","1602303","0.0-19.0-1.3","fixation","","","","",""
"2046.840000199154","Stimuli/Hangul_F22.bmp","190","image-keyboard-response","439","1604351","0.0-19.0-2.3","c2_test",".","","","","."
"598.1449999380857","<p style=""color:white;""> Next Figure: Male or Female? </p>","190","html-keyboard-response","440","1604950","0.0-19.0-0.4","prediction","","","",".",""
"null","<div style=""color:white; font-size:60px;"">+</div>","null","html-keyboard-response","441","1605951","0.0-19.0-1.4","fixation","","","","",""
"2070.0850000139326","Stimuli/Hangul_M16.bmp","188","image-keyboard-response","442","1608023","0.0-19.0-2.4","c2_test",",","","","",","
"510.90500014834106","<p style=""color:white;""> Next Figure: Male or Female? </p>","188","html-keyboard-response","443","1608534","0.0-19.0-0.5","prediction","","","",",",""
"null","<div style=""color:white; font-size:60px;"">+</div>","null","html-keyboard-response","444","1609536","0.0-19.0-1.5","fixation","","","","",""
"1854.594999924302","Stimuli/Hangul_F1.bmp","190","image-keyboard-response","445","1611391","0.0-19.0-2.5","c2_test",".","","","","."
"695.0649998616427","<p style=""color:white;""> Next Figure: Male or Female? </p>","190","html-keyboard-response","446","1612087","0.0-19.0-0.6","prediction","","","",".",""
"null","<div style=""color:white; font-size:60px;"">+</div>","null","html-keyboard-response","447","1613088","0.0-19.0-1.6","fixation","","","","",""
"1822.4449998233467","Stimuli/Hangul_M1.bmp","188","image-keyboard-response","448","1614912","0.0-19.0-2.6","c2_test",",","","","",","
"454.5200001448393","<p style=""color:white;""> Next Figure: Male or Female? </p>","188","html-keyboard-response","449","1615367","0.0-19.0-0.7","prediction","","","",",",""
"null","<div style=""color:white; font-size:60px;"">+</div>","null","html-keyboard-response","450","1616370","0.0-19.0-1.7","fixation","","","","",""
"2891.9199998490512","Stimuli/Hangul_M24.bmp","188","image-keyboard-response","451","1619263","0.0-19.0-2.7","c2_test",",","","","",","
"479.2250001337379","<p style=""color:white;""> Next Figure: Male or Female? </p>","188","html-keyboard-response","452","1619743","0.0-19.0-0.8","prediction","","","",",",""
"null","<div style=""color:white; font-size:60px;"">+</div>","null","html-keyboard-response","453","1620744","0.0-19.0-1.8","fixation","","","","",""
"4030.2249998785555","Stimuli/Hangul_F12.bmp","190","image-keyboard-response","454","1624775","0.0-19.0-2.8","c2_test",".","","","","."
"439.62499988265336","<p style=""color:white;""> Next Figure: Male or Female? </p>","188","html-keyboard-response","455","1625216","0.0-19.0-0.9","prediction","","","",",",""
"null","<div style=""color:white; font-size:60px;"">+</div>","null","html-keyboard-response","456","1626217","0.0-19.0-1.9","fixation","","","","",""
"2708.5949999745935","Stimuli/Hangul_F10.bmp","190","image-keyboard-response","457","1628926","0.0-19.0-2.9","c2_test",".","","","","."
"599.3000001180917","<p style=""color:white;""> Next Figure: Male or Female? </p>","190","html-keyboard-response","458","1629527","0.0-19.0-0.10","prediction","","","",".",""
"null","<div style=""color:white; font-size:60px;"">+</div>","null","html-keyboard-response","459","1630528","0.0-19.0-1.10","fixation","","","","",""
"2189.51000017114","Stimuli/Hangul_F3.bmp","190","image-keyboard-response","460","1632718","0.0-19.0-2.10","c2_test",".","","","","."
"447.165000019595","<p style=""color:white;""> Next Figure: Male or Female? </p>","190","html-keyboard-response","461","1633167","0.0-19.0-0.11","prediction","","","",".",""
"null","<div style=""color:white; font-size:60px;"">+</div>","null","html-keyboard-response","462","1634168","0.0-19.0-1.11","fixation","","","","",""
"4734.000000171363","Stimuli/Hangul_M15.bmp","190","image-keyboard-response","463","1638904","0.0-19.0-2.11","c2_test",",","","","","."
"1150.46999999322","<p style=""color:white;""> Next Figure: Male or Female? </p>","188","html-keyboard-response","464","1640055","0.0-19.0-0.12","prediction","","","",",",""
"null","<div style=""color:white; font-size:60px;"">+</div>","null","html-keyboard-response","465","1641057","0.0-19.0-1.12","fixation","","","","",""
"2564.0950000379235","Stimuli/Hangul_M14.bmp","188","image-keyboard-response","466","1643622","0.0-19.0-2.12","c2_test",",","","","",","
"823.1849998701364","<p style=""color:white;""> Next Figure: Male or Female? </p>","188","html-keyboard-response","467","1644446","0.0-19.0-0.13","prediction","","","",",",""
"null","<div style=""color:white; font-size:60px;"">+</div>","null","html-keyboard-response","468","1645448","0.0-19.0-1.13","fixation","","","","",""
"2277.300000190735","Stimuli/Hangul_M10.bmp","190","image-keyboard-response","469","1647726","0.0-19.0-2.13","c2_test",",","","","","."
"366.25500000081956","<p style=""color:white;""> Next Figure: Male or Female? </p>","188","html-keyboard-response","470","1648095","0.0-19.0-0.14","prediction","","","",",",""
"null","<div style=""color:white; font-size:60px;"">+</div>","null","html-keyboard-response","471","1649097","0.0-19.0-1.14","fixation","","","","",""
"1909.3049999792129","Stimuli/Hangul_F11.bmp","188","image-keyboard-response","472","1651007","0.0-19.0-2.14","c2_test",".","","","",","
"462.44999999180436","<p style=""color:white;""> Next Figure: Male or Female? </p>","188","html-keyboard-response","473","1651471","0.0-19.0-0.15","prediction","","","",",",""
"null","<div style=""color:white; font-size:60px;"">+</div>","null","html-keyboard-response","474","1652472","0.0-19.0-1.15","fixation","","","","",""
"2669.6550000924617","Stimuli/Hangul_M21.bmp","190","image-keyboard-response","475","1655142","0.0-19.0-2.15","c2_test",",","","","","."
"695.1049999333918","<p style=""color:white;""> Next Figure: Male or Female? </p>","188","html-keyboard-response","476","1655838","0.0-19.0-0.16","prediction","","","",",",""
"null","<div style=""color:white; font-size:60px;"">+</div>","null","html-keyboard-response","477","1656839","0.0-19.0-1.16","fixation","","","","",""
"1957.8899999614805","Stimuli/Hangul_F8.bmp","190","image-keyboard-response","478","1658798","0.0-19.0-2.16","c2_test",".","","","","."
"639.299999922514","<p style=""color:white;""> Next Figure: Male or Female? </p>","188","html-keyboard-response","479","1659438","0.0-19.0-0.17","prediction","","","",",",""
"null","<div style=""color:white; font-size:60px;"">+</div>","null","html-keyboard-response","480","1660441","0.0-19.0-1.17","fixation","","","","",""
"2117.6100000739098","Stimuli/Hangul_F4.bmp","190","image-keyboard-response","481","1662559","0.0-19.0-2.17","c2_test",".","","","","."
"374.5599999092519","<p style=""color:white;""> Next Figure: Male or Female? </p>","188","html-keyboard-response","482","1662935","0.0-19.0-0.18","prediction","","","",",",""
"null","<div style=""color:white; font-size:60px;"">+</div>","null","html-keyboard-response","483","1663936","0.0-19.0-1.18","fixation","","","","",""
"1709.2899999115616","Stimuli/Hangul_F21.bmp","190","image-keyboard-response","484","1665646","0.0-19.0-2.18","c2_test",".","","","","."
"575.294999871403","<p style=""color:white;""> Next Figure: Male or Female? </p>","190","html-keyboard-response","485","1666222","0.0-19.0-0.19","prediction","","","",".",""
"null","<div style=""color:white; font-size:60px;"">+</div>","null","html-keyboard-response","486","1667224","0.0-19.0-1.19","fixation","","","","",""
"2022.0950001385063","Stimuli/Hangul_F24.bmp","190","image-keyboard-response","487","1669246","0.0-19.0-2.19","c2_test",".","","","","."
"1111.2349999602884","<p style=""color:white;""> Next Figure: Male or Female? </p>","188","html-keyboard-response","488","1670358","0.0-19.0-0.20","prediction","","","",",",""
"null","<div style=""color:white; font-size:60px;"">+</div>","null","html-keyboard-response","489","1671360","0.0-19.0-1.20","fixation","","","","",""
"2878.739999840036","Stimuli/Hangul_M8.bmp","188","image-keyboard-response","490","1674239","0.0-19.0-2.20","c2_test",",","","","",","
"998.0899998918176","<p style=""color:white;""> Next Figure: Male or Female? </p>","188","html-keyboard-response","491","1675238","0.0-19.0-0.21","prediction","","","",",",""
"null","<div style=""color:white; font-size:60px;"">+</div>","null","html-keyboard-response","492","1676240","0.0-19.0-1.21","fixation","","","","",""
"1965.1750000193715","Stimuli/Hangul_M9.bmp","188","image-keyboard-response","493","1678206","0.0-19.0-2.21","c2_test",",","","","",","
"399.2749999742955","<p style=""color:white;""> Next Figure: Male or Female? </p>","188","html-keyboard-response","494","1678606","0.0-19.0-0.22","prediction","","","",",",""
"null","<div style=""color:white; font-size:60px;"">+</div>","null","html-keyboard-response","495","1679607","0.0-19.0-1.22","fixation","","","","",""
"3094.3650000263005","Stimuli/Hangul_F2.bmp","190","image-keyboard-response","496","1682702","0.0-19.0-2.22","c2_test",".","","","","."
"695.1399999670684","<p style=""color:white;""> Next Figure: Male or Female? </p>","188","html-keyboard-response","497","1683398","0.0-19.0-0.23","prediction","","","",",",""
"null","<div style=""color:white; font-size:60px;"">+</div>","null","html-keyboard-response","498","1684400","0.0-19.0-1.23","fixation","","","","",""
"2126.6999999061227","Stimuli/Hangul_F20.bmp","190","image-keyboard-response","499","1686527","0.0-19.0-2.23","c2_test",".","","","","."
"430.53500005044043","<p style=""color:white;""> Next Figure: Male or Female? </p>","188","html-keyboard-response","500","1686959","0.0-19.0-0.24","prediction","","","",",",""
"null","<div style=""color:white; font-size:60px;"">+</div>","null","html-keyboard-response","501","1687960","0.0-19.0-1.24","fixation","","","","",""
"3356.8500000983477","Stimuli/Hangul_M20.bmp","190","image-keyboard-response","502","1691318","0.0-19.0-2.24","c2_test",",","","","","."
"391.3450001273304","<p style=""color:white;""> Next Figure: Male or Female? </p>","188","html-keyboard-response","503","1691710","0.0-19.0-0.25","prediction","","","",",",""
"null","<div style=""color:white; font-size:60px;"">+</div>","null","html-keyboard-response","504","1692712","0.0-19.0-1.25","fixation","","","","",""
"1845.5000000540167","Stimuli/Hangul_F19.bmp","190","image-keyboard-response","505","1694558","0.0-19.0-2.25","c2_test",".","","","","."
"431.06499989517033","<p style=""color:white;""> Next Figure: Male or Female? </p>","190","html-keyboard-response","506","1694990","0.0-19.0-0.26","prediction","","","",".",""
"null","<div style=""color:white; font-size:60px;"">+</div>","null","html-keyboard-response","507","1695991","0.0-19.0-1.26","fixation","","","","",""
"2302.5249999482185","Stimuli/Hangul_M3.bmp","190","image-keyboard-response","508","1698295","0.0-19.0-2.26","c2_test",",","","","","."
"318.57499992474914","<p style=""color:white;""> Next Figure: Male or Female? </p>","190","html-keyboard-response","509","1698614","0.0-19.0-0.27","prediction","","","",".",""
"null","<div style=""color:white; font-size:60px;"">+</div>","null","html-keyboard-response","510","1699616","0.0-19.0-1.27","fixation","","","","",""
"1917.539999820292","Stimuli/Hangul_M23.bmp","190","image-keyboard-response","511","1701534","0.0-19.0-2.27","c2_test",",","","","","."
"367.0699999202043","<p style=""color:white;""> Next Figure: Male or Female? </p>","190","html-keyboard-response","512","1701902","0.0-19.0-0.28","prediction","","","",".",""
"null","<div style=""color:white; font-size:60px;"">+</div>","null","html-keyboard-response","513","1702903","0.0-19.0-1.28","fixation","","","","",""
"2829.4249998871237","Stimuli/Hangul_M17.bmp","190","image-keyboard-response","514","1705734","0.0-19.0-2.28","c2_test",",","","","","."
"319.0849998500198","<p style=""color:white;""> Next Figure: Male or Female? </p>","190","html-keyboard-response","515","1706054","0.0-19.0-0.29","prediction","","","",".",""
"null","<div style=""color:white; font-size:60px;"">+</div>","null","html-keyboard-response","516","1707056","0.0-19.0-1.29","fixation","","","","",""
"2405.1300000865012","Stimuli/Hangul_M22.bmp","188","image-keyboard-response","517","1709463","0.0-19.0-2.29","c2_test",",","","","",","
"285.8499998692423","<p style=""color:white;""> Next Figure: Male or Female? </p>","188","html-keyboard-response","518","1709750","0.0-19.0-0.30","prediction","","","",",",""
"null","<div style=""color:white; font-size:60px;"">+</div>","null","html-keyboard-response","519","1710751","0.0-19.0-1.30","fixation","","","","",""
"2389.915000181645","Stimuli/Hangul_M2.bmp","188","image-keyboard-response","520","1713142","0.0-19.0-2.30","c2_test",",","","","",","
"383.1200001295656","<p style=""color:white;""> Next Figure: Male or Female? </p>","188","html-keyboard-response","521","1713526","0.0-19.0-0.31","prediction","","","",",",""
"null","<div style=""color:white; font-size:60px;"">+</div>","null","html-keyboard-response","522","1714529","0.0-19.0-1.31","fixation","","","","",""
"2516.3799999281764","Stimuli/Hangul_F16.bmp","190","image-keyboard-response","523","1717046","0.0-19.0-2.31","c2_test",".","","","","."
"383.55499994941056","<p style=""color:white;""> Next Figure: Male or Female? </p>","188","html-keyboard-response","524","1717430","0.0-19.0-0.32","prediction","","","",",",""
"null","<div style=""color:white; font-size:60px;"">+</div>","null","html-keyboard-response","525","1718432","0.0-19.0-1.32","fixation","","","","",""
"2614.395000040531","Stimuli/Hangul_M7.bmp","188","image-keyboard-response","526","1721047","0.0-19.0-2.32","c2_test",",","","","",","
"342.11000008508563","<p style=""color:white;""> Next Figure: Male or Female? </p>","188","html-keyboard-response","527","1721390","0.0-19.0-0.33","prediction","","","",",",""
"null","<div style=""color:white; font-size:60px;"">+</div>","null","html-keyboard-response","528","1722392","0.0-19.0-1.33","fixation","","","","",""
"2181.340000126511","Stimuli/Hangul_F23.bmp","190","image-keyboard-response","529","1724575","0.0-19.0-2.33","c2_test",".","","","","."
"374.3950000498444","<p style=""color:white;""> Next Figure: Male or Female? </p>","188","html-keyboard-response","530","1724950","0.0-19.0-0.34","prediction","","","",",",""
"null","<div style=""color:white; font-size:60px;"">+</div>","null","html-keyboard-response","531","1725953","0.0-19.0-1.34","fixation","","","","",""
"1964.2300000414252","Stimuli/Hangul_F13.bmp","188","image-keyboard-response","532","1727918","0.0-19.0-2.34","c2_test",".","","","",","
"415.125000057742","<p style=""color:white;""> Next Figure: Male or Female? </p>","188","html-keyboard-response","533","1728334","0.0-19.0-0.35","prediction","","","",",",""
"null","<div style=""color:white; font-size:60px;"">+</div>","null","html-keyboard-response","534","1729337","0.0-19.0-1.35","fixation","","","","",""
"1949.2949999403208","Stimuli/Hangul_F14.bmp","190","image-keyboard-response","535","1731287","0.0-19.0-2.35","c2_test",".","","","","."
"486.26499995589256","<p style=""color:white;""> Next Figure: Male or Female? </p>","190","html-keyboard-response","536","1731774","0.0-19.0-0.36","prediction","","","",".",""
"null","<div style=""color:white; font-size:60px;"">+</div>","null","html-keyboard-response","537","1732776","0.0-19.0-1.36","fixation","","","","",""
"2589.420000091195","Stimuli/Hangul_M19.bmp","188","image-keyboard-response","538","1735366","0.0-19.0-2.36","c2_test",",","","","",","
"463.3400000166148","<p style=""color:white;""> Next Figure: Male or Female? </p>","188","html-keyboard-response","539","1735830","0.0-19.0-0.37","prediction","","","",",",""
"null","<div style=""color:white; font-size:60px;"">+</div>","null","html-keyboard-response","540","1736832","0.0-19.0-1.37","fixation","","","","",""
"2164.6050000563264","Stimuli/Hangul_M6.bmp","188","image-keyboard-response","541","1738998","0.0-19.0-2.37","c2_test",",","","","",","
"359.50500005856156","<p style=""color:white;""> Next Figure: Male or Female? </p>","188","html-keyboard-response","542","1739358","0.0-19.0-0.38","prediction","","","",",",""
"null","<div style=""color:white; font-size:60px;"">+</div>","null","html-keyboard-response","543","1740359","0.0-19.0-1.38","fixation","","","","",""
"1958.3999998867512","Stimuli/Hangul_M5.bmp","190","image-keyboard-response","544","1742319","0.0-19.0-2.38","c2_test",",","","","","."
"358.26499992981553","<p style=""color:white;""> Next Figure: Male or Female? </p>","188","html-keyboard-response","545","1742678","0.0-19.0-0.39","prediction","","","",",",""
"null","<div style=""color:white; font-size:60px;"">+</div>","null","html-keyboard-response","546","1743680","0.0-19.0-1.39","fixation","","","","",""
"3092.625000048429","Stimuli/Hangul_M13.bmp","188","image-keyboard-response","547","1746774","0.0-19.0-2.39","c2_test",",","","","",","
"399.1749999113381","<p style=""color:white;""> Next Figure: Male or Female? </p>","188","html-keyboard-response","548","1747174","0.0-19.0-0.40","prediction","","","",",",""
"null","<div style=""color:white; font-size:60px;"">+</div>","null","html-keyboard-response","549","1748176","0.0-19.0-1.40","fixation","","","","",""
"3117.210000054911","Stimuli/Hangul_F15.bmp","190","image-keyboard-response","550","1751294","0.0-19.0-2.40","c2_test",".","","","","."
"487.1300000231713","<p style=""color:white;""> Next Figure: Male or Female? </p>","188","html-keyboard-response","551","1751782","0.0-19.0-0.41","prediction","","","",",",""
"null","<div style=""color:white; font-size:60px;"">+</div>","null","html-keyboard-response","552","1752784","0.0-19.0-1.41","fixation","","","","",""
"2694.3250000476837","Stimuli/Hangul_M12.bmp","188","image-keyboard-response","553","1755479","0.0-19.0-2.41","c2_test",",","","","",","
"1037.925000069663","<p style=""color:white;""> Next Figure: Male or Female? </p>","188","html-keyboard-response","554","1756518","0.0-19.0-0.42","prediction","","","",",",""
"null","<div style=""color:white; font-size:60px;"">+</div>","null","html-keyboard-response","555","1757519","0.0-19.0-1.42","fixation","","","","",""
"2893.3349999133497","Stimuli/Hangul_F17.bmp","190","image-keyboard-response","556","1760414","0.0-19.0-2.42","c2_test",".","","","","."
"439.174999948591","<p style=""color:white;""> Next Figure: Male or Female? </p>","190","html-keyboard-response","557","1760854","0.0-19.0-0.43","prediction","","","",".",""
"null","<div style=""color:white; font-size:60px;"">+</div>","null","html-keyboard-response","558","1761855","0.0-19.0-1.43","fixation","","","","",""
"2733.405000064522","Stimuli/Hangul_M18.bmp","190","image-keyboard-response","559","1764589","0.0-19.0-2.43","c2_test",",","","","","."
"1504.505000077188","<p style=""color:white;""> Next Figure: Male or Female? </p>","188","html-keyboard-response","560","1766095","0.0-19.0-0.44","prediction","","","",",",""
"null","<div style=""color:white; font-size:60px;"">+</div>","null","html-keyboard-response","561","1767096","0.0-19.0-1.44","fixation","","","","",""
"2524.3999999947846","Stimuli/Hangul_M4.bmp","190","image-keyboard-response","562","1769622","0.0-19.0-2.44","c2_test",",","","","","."
"735.8150000218302","<p style=""color:white;""> Next Figure: Male or Female? </p>","190","html-keyboard-response","563","1770358","0.0-19.0-0.45","prediction","","","",".",""
"null","<div style=""color:white; font-size:60px;"">+</div>","null","html-keyboard-response","564","1771361","0.0-19.0-1.45","fixation","","","","",""
"1907.9450001008809","Stimuli/Hangul_M11.bmp","188","image-keyboard-response","565","1773270","0.0-19.0-2.45","c2_test",",","","","",","
"407.41999982856214","<p style=""color:white;""> Next Figure: Male or Female? </p>","188","html-keyboard-response","566","1773678","0.0-19.0-0.46","prediction","","","",",",""
"null","<div style=""color:white; font-size:60px;"">+</div>","null","html-keyboard-response","567","1774679","0.0-19.0-1.46","fixation","","","","",""
"1903.3650001510978","Stimuli/Hangul_M0.bmp","188","image-keyboard-response","568","1776583","0.0-19.0-2.46","c2_test",",","","","",","
"357.36000002361834","<p style=""color:white;""> Next Figure: Male or Female? </p>","188","html-keyboard-response","569","1776942","0.0-19.0-0.47","prediction","","","",",",""
"null","<div style=""color:white; font-size:60px;"">+</div>","null","html-keyboard-response","570","1777943","0.0-19.0-1.47","fixation","","","","",""
"1845.8000000100583","Stimuli/Hangul_F9.bmp","190","image-keyboard-response","571","1779790","0.0-19.0-2.47","c2_test",".","","","","."
"1262.855000095442","<p style=""color:white;""> Next Figure: Male or Female? </p>","188","html-keyboard-response","572","1781054","0.0-19.0-0.48","prediction","","","",",",""
"null","<div style=""color:white; font-size:60px;"">+</div>","null","html-keyboard-response","573","1782055","0.0-19.0-1.48","fixation","","","","",""
"1789.9449998512864","Stimuli/Hangul_F18.bmp","190","image-keyboard-response","574","1783846","0.0-19.0-2.48","c2_test",".","","","","."
"486.5949999075383","<p style=""color:white;""> Next Figure: Male or Female? </p>","190","html-keyboard-response","575","1784334","0.0-19.0-0.49","prediction","","","",".",""
"null","<div style=""color:white; font-size:60px;"">+</div>","null","html-keyboard-response","576","1785335","0.0-19.0-1.49","fixation","","","","",""
"2734.229999827221","Stimuli/Hangul_F6.bmp","190","image-keyboard-response","577","1788070","0.0-19.0-2.49","c2_test",".","","","","."
"309875.38999994285","<p style=""color:white;"">Good job, block 1 complete! Please take a moment to rest.</p> <p style=""color:white;"">When you are ready to continue with block 2 of 4, press the space bar.</p> ","32","html-keyboard-response","578","2097947","0.0-20.0","","","","","",""
"837.3849999625236","<p style=""color:white;""> Next Figure: Male or Female? </p>","188","html-keyboard-response","579","2100787","0.0-21.0-0.0","prediction","","","",",",""
"null","<div style=""color:white; font-size:60px;"">+</div>","null","html-keyboard-response","580","2101787","0.0-21.0-1.0","fixation","","","","",""
"2454.1500001214445","Stimuli/Hangul_F33.bmp","190","image-keyboard-response","581","2104243","0.0-21.0-2.0","c2_test",".","","","","."
"791.4400000590831","<p style=""color:white;""> Next Figure: Male or Female? </p>","190","html-keyboard-response","582","2105035","0.0-21.0-0.1","prediction","","","",".",""
"null","<div style=""color:white; font-size:60px;"">+</div>","null","html-keyboard-response","583","2106036","0.0-21.0-1.1","fixation","","","","",""
"1926.0500001255423","Stimuli/Hangul_F41.bmp","190","image-keyboard-response","584","2107963","0.0-21.0-2.1","c2_test",".","","","","."
"398.4199999831617","<p style=""color:white;""> Next Figure: Male or Female? </p>","190","html-keyboard-response","585","2108363","0.0-21.0-0.2","prediction","","","",".",""
"null","<div style=""color:white; font-size:60px;"">+</div>","null","html-keyboard-response","586","2109364","0.0-21.0-1.2","fixation","","","","",""
"1942.4099999014288","Stimuli/Hangul_M26.bmp","190","image-keyboard-response","587","2111307","0.0-21.0-2.2","c2_test",",","","","","."
"423.0899999383837","<p style=""color:white;""> Next Figure: Male or Female? </p>","190","html-keyboard-response","588","2111731","0.0-21.0-0.3","prediction","","","",".",""
"null","<div style=""color:white; font-size:60px;"">+</div>","null","html-keyboard-response","589","2112733","0.0-21.0-1.3","fixation","","","","",""
"2053.169999970123","Stimuli/Hangul_M44.bmp","190","image-keyboard-response","590","2114787","0.0-21.0-2.3","c2_test",",","","","","."
"271.14999992772937","<p style=""color:white;""> Next Figure: Male or Female? </p>","190","html-keyboard-response","591","2115059","0.0-21.0-0.4","prediction","","","",".",""
"null","<div style=""color:white; font-size:60px;"">+</div>","null","html-keyboard-response","592","2116060","0.0-21.0-1.4","fixation","","","","",""
"1797.8050000965595","Stimuli/Hangul_M38.bmp","190","image-keyboard-response","593","2117859","0.0-21.0-2.4","c2_test",",","","","","."
"1016.0199999809265","<p style=""color:white;""> Next Figure: Male or Female? </p>","190","html-keyboard-response","594","2118876","0.0-21.0-0.5","prediction","","","",".",""
"null","<div style=""color:white; font-size:60px;"">+</div>","null","html-keyboard-response","595","2119878","0.0-21.0-1.5","fixation","","","","",""
"2060.3399998508394","Stimuli/Hangul_F43.bmp","190","image-keyboard-response","596","2121939","0.0-21.0-2.5","c2_test",".","","","","."
"423.295000102371","<p style=""color:white;""> Next Figure: Male or Female? </p>","190","html-keyboard-response","597","2122363","0.0-21.0-0.6","prediction","","","",".",""
"null","<div style=""color:white; font-size:60px;"">+</div>","null","html-keyboard-response","598","2123364","0.0-21.0-1.6","fixation","","","","",""
"2853.624999988824","Stimuli/Hangul_M33.bmp","188","image-keyboard-response","599","2126219","0.0-21.0-2.6","c2_test",",","","","",","
"463.1300000473857","<p style=""color:white;""> Next Figure: Male or Female? </p>","188","html-keyboard-response","600","2126683","0.0-21.0-0.7","prediction","","","",",",""
"null","<div style=""color:white; font-size:60px;"">+</div>","null","html-keyboard-response","601","2127685","0.0-21.0-1.7","fixation","","","","",""
"2390.119999879971","Stimuli/Hangul_M40.bmp","190","image-keyboard-response","602","2130076","0.0-21.0-2.7","c2_test",",","","","","."
"725.5799998529255","<p style=""color:white;""> Next Figure: Male or Female? </p>","190","html-keyboard-response","603","2130802","0.0-21.0-0.8","prediction","","","",".",""
"null","<div style=""color:white; font-size:60px;"">+</div>","null","html-keyboard-response","604","2131804","0.0-21.0-1.8","fixation","","","","",""
"2269.43500014022","Stimuli/Hangul_M25.bmp","188","image-keyboard-response","605","2134075","0.0-21.0-2.8","c2_test",",","","","",","
"438.97999986074865","<p style=""color:white;""> Next Figure: Male or Female? </p>","188","html-keyboard-response","606","2134514","0.0-21.0-0.9","prediction","","","",",",""
"null","<div style=""color:white; font-size:60px;"">+</div>","null","html-keyboard-response","607","2135516","0.0-21.0-1.9","fixation","","","","",""
"3925.694999983534","Stimuli/Hangul_M49.bmp","188","image-keyboard-response","608","2139442","0.0-21.0-2.9","c2_test",",","","","",","
"391.2100000306964","<p style=""color:white;""> Next Figure: Male or Female? </p>","188","html-keyboard-response","609","2139834","0.0-21.0-0.10","prediction","","","",",",""
"null","<div style=""color:white; font-size:60px;"">+</div>","null","html-keyboard-response","610","2140836","0.0-21.0-1.10","fixation","","","","",""
"2751.0950001887977","Stimuli/Hangul_F36.bmp","188","image-keyboard-response","611","2143588","0.0-21.0-2.10","c2_test",".","","","",","
"469.57499999552965","<p style=""color:white;""> Next Figure: Male or Female? </p>","188","html-keyboard-response","612","2144058","0.0-21.0-0.11","prediction","","","",",",""
"null","<div style=""color:white; font-size:60px;"">+</div>","null","html-keyboard-response","613","2145060","0.0-21.0-1.11","fixation","","","","",""
"3021.0849998984486","Stimuli/Hangul_M32.bmp","190","image-keyboard-response","614","2148082","0.0-21.0-2.11","c2_test",",","","","","."
"463.28500006347895","<p style=""color:white;""> Next Figure: Male or Female? </p>","188","html-keyboard-response","615","2148546","0.0-21.0-0.12","prediction","","","",",",""
"null","<div style=""color:white; font-size:60px;"">+</div>","null","html-keyboard-response","616","2149549","0.0-21.0-1.12","fixation","","","","",""
"2388.6849998962134","Stimuli/Hangul_M27.bmp","188","image-keyboard-response","617","2151938","0.0-21.0-2.12","c2_test",",","","","",","
"407.0649999193847","<p style=""color:white;""> Next Figure: Male or Female? </p>","188","html-keyboard-response","618","2152346","0.0-21.0-0.13","prediction","","","",",",""
"null","<div style=""color:white; font-size:60px;"">+</div>","null","html-keyboard-response","619","2153349","0.0-21.0-1.13","fixation","","","","",""
"2573.520000092685","Stimuli/Hangul_F46.bmp","190","image-keyboard-response","620","2155924","0.0-21.0-2.13","c2_test",".","","","","."
"478.0000001192093","<p style=""color:white;""> Next Figure: Male or Female? </p>","188","html-keyboard-response","621","2156403","0.0-21.0-0.14","prediction","","","",",",""
"null","<div style=""color:white; font-size:60px;"">+</div>","null","html-keyboard-response","622","2157404","0.0-21.0-1.14","fixation","","","","",""
"1773.9500000607222","Stimuli/Hangul_F32.bmp","190","image-keyboard-response","623","2159179","0.0-21.0-2.14","c2_test",".","","","","."
"471.3149999734014","<p style=""color:white;""> Next Figure: Male or Female? </p>","190","html-keyboard-response","624","2159651","0.0-21.0-0.15","prediction","","","",".",""
"null","<div style=""color:white; font-size:60px;"">+</div>","null","html-keyboard-response","625","2160653","0.0-21.0-1.15","fixation","","","","",""
"1660.7050001621246","Stimuli/Hangul_F29.bmp","190","image-keyboard-response","626","2162315","0.0-21.0-2.15","c2_test",".","","","","."
"463.11999997124076","<p style=""color:white;""> Next Figure: Male or Female? </p>","190","html-keyboard-response","627","2162779","0.0-21.0-0.16","prediction","","","",".",""
"null","<div style=""color:white; font-size:60px;"">+</div>","null","html-keyboard-response","628","2163780","0.0-21.0-1.16","fixation","","","","",""
"1533.8800000026822","Stimuli/Hangul_F39.bmp","190","image-keyboard-response","629","2165315","0.0-21.0-2.16","c2_test",".","","","","."
"503.1999999191612","<p style=""color:white;""> Next Figure: Male or Female? </p>","188","html-keyboard-response","630","2165819","0.0-21.0-0.17","prediction","","","",",",""
"null","<div style=""color:white; font-size:60px;"">+</div>","null","html-keyboard-response","631","2166820","0.0-21.0-1.17","fixation","","","","",""
"1693.9749999437481","Stimuli/Hangul_F34.bmp","190","image-keyboard-response","632","2168515","0.0-21.0-2.17","c2_test",".","","","","."
"718.3949998579919","<p style=""color:white;""> Next Figure: Male or Female? </p>","188","html-keyboard-response","633","2169235","0.0-21.0-0.18","prediction","","","",",",""
"null","<div style=""color:white; font-size:60px;"">+</div>","null","html-keyboard-response","634","2170235","0.0-21.0-1.18","fixation","","","","",""
"2677.9849999584258","Stimuli/Hangul_F49.bmp","188","image-keyboard-response","635","2172914","0.0-21.0-2.18","c2_test",".","","","",","
"511.1599999945611","<p style=""color:white;""> Next Figure: Male or Female? </p>","188","html-keyboard-response","636","2173426","0.0-21.0-0.19","prediction","","","",",",""
"null","<div style=""color:white; font-size:60px;"">+</div>","null","html-keyboard-response","637","2174429","0.0-21.0-1.19","fixation","","","","",""
"1812.625000020489","Stimuli/Hangul_F35.bmp","190","image-keyboard-response","638","2176242","0.0-21.0-2.19","c2_test",".","","","","."
"639.339999994263","<p style=""color:white;""> Next Figure: Male or Female? </p>","188","html-keyboard-response","639","2176882","0.0-21.0-0.20","prediction","","","",",",""
"null","<div style=""color:white; font-size:60px;"">+</div>","null","html-keyboard-response","640","2177883","0.0-21.0-1.20","fixation","","","","",""
"1831.4950000494719","Stimuli/Hangul_F30.bmp","190","image-keyboard-response","641","2179716","0.0-21.0-2.20","c2_test",".","","","","."
"629.7999999951571","<p style=""color:white;""> Next Figure: Male or Female? </p>","188","html-keyboard-response","642","2180347","0.0-21.0-0.21","prediction","","","",",",""
"null","<div style=""color:white; font-size:60px;"">+</div>","null","html-keyboard-response","643","2181349","0.0-21.0-1.21","fixation","","","","",""
"1788.57500012964","Stimuli/Hangul_F28.bmp","190","image-keyboard-response","644","2183138","0.0-21.0-2.21","c2_test",".","","","","."
"359.3000001274049","<p style=""color:white;""> Next Figure: Male or Female? </p>","190","html-keyboard-response","645","2183498","0.0-21.0-0.22","prediction","","","",".",""
"null","<div style=""color:white; font-size:60px;"">+</div>","null","html-keyboard-response","646","2184500","0.0-21.0-1.22","fixation","","","","",""
"1740.5099999159575","Stimuli/Hangul_F37.bmp","190","image-keyboard-response","647","2186242","0.0-21.0-2.22","c2_test",".","","","","."
"303.0050001107156","<p style=""color:white;""> Next Figure: Male or Female? </p>","190","html-keyboard-response","648","2186547","0.0-21.0-0.23","prediction","","","",".",""
"null","<div style=""color:white; font-size:60px;"">+</div>","null","html-keyboard-response","649","2187548","0.0-21.0-1.23","fixation","","","","",""
"1893.3899998664856","Stimuli/Hangul_M42.bmp","190","image-keyboard-response","650","2189442","0.0-21.0-2.23","c2_test",",","","","","."
"366.60500010475516","<p style=""color:white;""> Next Figure: Male or Female? </p>","190","html-keyboard-response","651","2189811","0.0-21.0-0.24","prediction","","","",".",""
"null","<div style=""color:white; font-size:60px;"">+</div>","null","html-keyboard-response","652","2190812","0.0-21.0-1.24","fixation","","","","",""
"2317.100000102073","Stimuli/Hangul_M39.bmp","190","image-keyboard-response","653","2193130","0.0-21.0-2.24","c2_test",",","","","","."
"551.3400000054389","<p style=""color:white;""> Next Figure: Male or Female? </p>","190","html-keyboard-response","654","2193682","0.0-21.0-0.25","prediction","","","",".",""
