"rt","stimulus","key_press","trial_type","trial_index","time_elapsed","internal_node_id","test_part","correct_response","C1_train","C1","A","C2"
"2124.409999989439","<p style=""color:white;"">Welcome to the experiment! Press any key to begin.</p>","32","html-keyboard-response","0","2151","0.0-0.0","","","","","",""
"50612.75499999465","<p style=""color:white;"">You will see a series of abstract figures. They are adaptations of signs in the Korean alphabet, but that is not important for this study. </p><p style=""color:white;"">Abstract figures sometimes have a more masculine or feminine shape. Here, each figure has already been assigned a gender as <q>Male</q> or <q>Female</q> by a panel of respondents in a pilot study. The respondents were not given specific instructions on how to do this, but were only told to use their intuition and to take into account the entire configuration of the stimulus. </p><p style=""color:white;"">Your task now is to guess the assigned gender of each figure. Please press the corresponding response keys to indicate your choice: </p><p style=""color:white;""> Male &#8594 <q>,</q> (comma)</p><p style=""color:white;""> Female &#8594 <q>.</q> (period)</p><p style=""color:white;"">Press either response keys to continue.</p>","190","html-keyboard-response","1","52765","0.0-1.0","","","","","",""
"5430.605000001378","<p style=""color:white;"">Your choice is correct if it matches the gender assigned by the majority of respondents in the pilot study.</p> <p style=""color:white;"">For each correct choice you will receive 2 cents. There will be 200 trials divided into 4 blocks of 50 trials. You will be able to take a break after every 50 trials.</p> <p style=""color:white;"">Press the space bar to continue.</p>","32","html-keyboard-response","2","58196","0.0-2.0","","","","","",""
"3063.4250000002794","<p style=""color:white;"">Here are some examples.</p> <p style=""color:white;"">For each, guess whether the assigned figure is male-like or female-like and indicate your choice by pressing either response keys.</p> <p style=""color:white;"">Press the space bar to continue.</p>","32","html-keyboard-response","3","61261","0.0-3.0","","","","","",""
"null","<div style=""color:white; font-size:60px;"">+</div>","null","html-keyboard-response","4","64270","0.0-4.0-0.0","fixation","","","","",""
"3389.12999999593","Stimuli/Hangul_E1.bmp","188","image-keyboard-response","5","67661","0.0-4.0-1.0","c1_train",",",",","","",""
"null","<div style=""color:white; font-size:60px;"">+</div>","null","html-keyboard-response","6","68664","0.0-4.0-0.1","fixation","","","","",""
"2154.7149999969406","Stimuli/Hangul_E0.bmp","188","image-keyboard-response","7","70820","0.0-4.0-1.1","c1_train",",",",","","",""
"null","<div style=""color:white; font-size:60px;"">+</div>","null","html-keyboard-response","8","71825","0.0-4.0-0.2","fixation","","","","",""
"1394.879999992554","Stimuli/Hangul_E2.bmp","190","image-keyboard-response","9","73220","0.0-4.0-1.2","c1_train",".",".","","",""
"14399.20999998867","<p style=""color:white;"">Let us begin! Press the space bar when you are ready to start block 1 of 4.</p> ","32","html-keyboard-response","10","87620","0.0-5.0","","","","","",""
"null","<div style=""color:white; font-size:60px;"">+</div>","null","html-keyboard-response","11","90628","0.0-6.0-0.0","fixation","","","","",""
"2189.9949999933597","Stimuli/Hangul_M24.bmp","188","image-keyboard-response","12","92820","0.0-6.0-1.0","test",",","",",","",""
"null","<div style=""color:white; font-size:60px;"">+</div>","null","html-keyboard-response","13","93825","0.0-6.0-0.1","fixation","","","","",""
"1841.7449999978999","Stimuli/Hangul_F7.bmp","188","image-keyboard-response","14","95668","0.0-6.0-1.1","test",".","",",","",""
"null","<div style=""color:white; font-size:60px;"">+</div>","null","html-keyboard-response","15","96672","0.0-6.0-0.2","fixation","","","","",""
"1595.08499999356","Stimuli/Hangul_M5.bmp","188","image-keyboard-response","16","98268","0.0-6.0-1.2","test",",","",",","",""
"null","<div style=""color:white; font-size:60px;"">+</div>","null","html-keyboard-response","17","99270","0.0-6.0-0.3","fixation","","","","",""
"1452.6550000009593","Stimuli/Hangul_M15.bmp","190","image-keyboard-response","18","100723","0.0-6.0-1.3","test",",","",".","",""
"null","<div style=""color:white; font-size:60px;"">+</div>","null","html-keyboard-response","19","101727","0.0-6.0-0.4","fixation","","","","",""
"1595.3699999954551","Stimuli/Hangul_M1.bmp","190","image-keyboard-response","20","103323","0.0-6.0-1.4","test",",","",".","",""
"null","<div style=""color:white; font-size:60px;"">+</div>","null","html-keyboard-response","21","104328","0.0-6.0-0.5","fixation","","","","",""
"1666.7149999993853","Stimuli/Hangul_F11.bmp","190","image-keyboard-response","22","105995","0.0-6.0-1.5","test",".","",".","",""
"null","<div style=""color:white; font-size:60px;"">+</div>","null","html-keyboard-response","23","106998","0.0-6.0-0.6","fixation","","","","",""
"1501.1349999986123","Stimuli/Hangul_F4.bmp","190","image-keyboard-response","24","108500","0.0-6.0-1.6","test",".","",".","",""
"null","<div style=""color:white; font-size:60px;"">+</div>","null","html-keyboard-response","25","109503","0.0-6.0-0.7","fixation","","","","",""
"1635.3850000014063","Stimuli/Hangul_M23.bmp","188","image-keyboard-response","26","111139","0.0-6.0-1.7","test",",","",",","",""
"null","<div style=""color:white; font-size:60px;"">+</div>","null","html-keyboard-response","27","112142","0.0-6.0-0.8","fixation","","","","",""
"3915.9599999984493","Stimuli/Hangul_F12.bmp","190","image-keyboard-response","28","116059","0.0-6.0-1.8","test",".","",".","",""
"null","<div style=""color:white; font-size:60px;"">+</div>","null","html-keyboard-response","29","117064","0.0-6.0-0.9","fixation","","","","",""
"2065.969999996014","Stimuli/Hangul_F0.bmp","188","image-keyboard-response","30","119131","0.0-6.0-1.9","test",".","",",","",""
"null","<div style=""color:white; font-size:60px;"">+</div>","null","html-keyboard-response","31","120134","0.0-6.0-0.10","fixation","","","","",""
"1996.4599999948405","Stimuli/Hangul_F15.bmp","188","image-keyboard-response","32","122131","0.0-6.0-1.10","test",".","",",","",""
"null","<div style=""color:white; font-size:60px;"">+</div>","null","html-keyboard-response","33","123135","0.0-6.0-0.11","fixation","","","","",""
"3242.9750000010245","Stimuli/Hangul_M10.bmp","190","image-keyboard-response","34","126379","0.0-6.0-1.11","test",",","",".","",""
"null","<div style=""color:white; font-size:60px;"">+</div>","null","html-keyboard-response","35","127382","0.0-6.0-0.12","fixation","","","","",""
"2412.7149999985704","Stimuli/Hangul_M16.bmp","188","image-keyboard-response","36","129796","0.0-6.0-1.12","test",",","",",","",""
"null","<div style=""color:white; font-size:60px;"">+</div>","null","html-keyboard-response","37","130800","0.0-6.0-0.13","fixation","","","","",""
"2849.6350000059465","Stimuli/Hangul_F3.bmp","188","image-keyboard-response","38","133651","0.0-6.0-1.13","test",".","",",","",""
"null","<div style=""color:white; font-size:60px;"">+</div>","null","html-keyboard-response","39","134655","0.0-6.0-0.14","fixation","","","","",""
"2058.3049999986542","Stimuli/Hangul_F18.bmp","190","image-keyboard-response","40","136715","0.0-6.0-1.14","test",".","",".","",""
"null","<div style=""color:white; font-size:60px;"">+</div>","null","html-keyboard-response","41","137716","0.0-6.0-0.15","fixation","","","","",""
"2637.2799999953713","Stimuli/Hangul_M19.bmp","188","image-keyboard-response","42","140355","0.0-6.0-1.15","test",",","",",","",""
"null","<div style=""color:white; font-size:60px;"">+</div>","null","html-keyboard-response","43","141358","0.0-6.0-0.16","fixation","","","","",""
"1859.2650000064168","Stimuli/Hangul_F13.bmp","188","image-keyboard-response","44","143219","0.0-6.0-1.16","test",".","",",","",""
"null","<div style=""color:white; font-size:60px;"">+</div>","null","html-keyboard-response","45","144221","0.0-6.0-0.17","fixation","","","","",""
"2365.749999997206","Stimuli/Hangul_F20.bmp","188","image-keyboard-response","46","146587","0.0-6.0-1.17","test",".","",",","",""
"null","<div style=""color:white; font-size:60px;"">+</div>","null","html-keyboard-response","47","147590","0.0-6.0-0.18","fixation","","","","",""
"2131.200000003446","Stimuli/Hangul_F19.bmp","188","image-keyboard-response","48","149723","0.0-6.0-1.18","test",".","",",","",""
"null","<div style=""color:white; font-size:60px;"">+</div>","null","html-keyboard-response","49","150728","0.0-6.0-0.19","fixation","","","","",""
"2058.0899999913527","Stimuli/Hangul_F21.bmp","190","image-keyboard-response","50","152787","0.0-6.0-1.19","test",".","",".","",""
"null","<div style=""color:white; font-size:60px;"">+</div>","null","html-keyboard-response","51","153791","0.0-6.0-0.20","fixation","","","","",""
"2113.5300000023562","Stimuli/Hangul_M20.bmp","188","image-keyboard-response","52","155906","0.0-6.0-1.20","test",",","",",","",""
"null","<div style=""color:white; font-size:60px;"">+</div>","null","html-keyboard-response","53","156908","0.0-6.0-0.21","fixation","","","","",""
"2701.520000002347","Stimuli/Hangul_M7.bmp","188","image-keyboard-response","54","159610","0.0-6.0-1.21","test",",","",",","",""
"null","<div style=""color:white; font-size:60px;"">+</div>","null","html-keyboard-response","55","160616","0.0-6.0-0.22","fixation","","","","",""
"2009.7099999984493","Stimuli/Hangul_F9.bmp","188","image-keyboard-response","56","162627","0.0-6.0-1.22","test",".","",",","",""
"null","<div style=""color:white; font-size:60px;"">+</div>","null","html-keyboard-response","57","163631","0.0-6.0-0.23","fixation","","","","",""
"1314.540000006673","Stimuli/Hangul_F24.bmp","188","image-keyboard-response","58","164946","0.0-6.0-1.23","test",".","",",","",""
"null","<div style=""color:white; font-size:60px;"">+</div>","null","html-keyboard-response","59","165950","0.0-6.0-0.24","fixation","","","","",""
"1443.5950000042794","Stimuli/Hangul_M6.bmp","188","image-keyboard-response","60","167394","0.0-6.0-1.24","test",",","",",","",""
"null","<div style=""color:white; font-size:60px;"">+</div>","null","html-keyboard-response","61","168397","0.0-6.0-0.25","fixation","","","","",""
"1500.5200000014156","Stimuli/Hangul_M22.bmp","190","image-keyboard-response","62","169898","0.0-6.0-1.25","test",",","",".","",""
"null","<div style=""color:white; font-size:60px;"">+</div>","null","html-keyboard-response","63","170899","0.0-6.0-0.26","fixation","","","","",""
"1909.7049999982119","Stimuli/Hangul_M3.bmp","190","image-keyboard-response","64","172810","0.0-6.0-1.26","test",",","",".","",""
"null","<div style=""color:white; font-size:60px;"">+</div>","null","html-keyboard-response","65","173813","0.0-6.0-0.27","fixation","","","","",""
"1459.4700000016019","Stimuli/Hangul_M11.bmp","188","image-keyboard-response","66","175274","0.0-6.0-1.27","test",",","",",","",""
"null","<div style=""color:white; font-size:60px;"">+</div>","null","html-keyboard-response","67","176279","0.0-6.0-0.28","fixation","","","","",""
"1553.4400000033202","Stimuli/Hangul_M21.bmp","188","image-keyboard-response","68","177834","0.0-6.0-1.28","test",",","",",","",""
"null","<div style=""color:white; font-size:60px;"">+</div>","null","html-keyboard-response","69","178839","0.0-6.0-0.29","fixation","","","","",""
"2601.8500000063796","Stimuli/Hangul_M8.bmp","188","image-keyboard-response","70","181441","0.0-6.0-1.29","test",",","",",","",""
"null","<div style=""color:white; font-size:60px;"">+</div>","null","html-keyboard-response","71","182444","0.0-6.0-0.30","fixation","","","","",""
"3404.5250000053784","Stimuli/Hangul_M17.bmp","188","image-keyboard-response","72","185850","0.0-6.0-1.30","test",",","",",","",""
"null","<div style=""color:white; font-size:60px;"">+</div>","null","html-keyboard-response","73","186852","0.0-6.0-0.31","fixation","","","","",""
"1492.6750000013271","Stimuli/Hangul_F5.bmp","188","image-keyboard-response","74","188346","0.0-6.0-1.31","test",".","",",","",""
"null","<div style=""color:white; font-size:60px;"">+</div>","null","html-keyboard-response","75","189351","0.0-6.0-0.32","fixation","","","","",""
"1408.7949999957345","Stimuli/Hangul_F2.bmp","190","image-keyboard-response","76","190761","0.0-6.0-1.32","test",".","",".","",""
"null","<div style=""color:white; font-size:60px;"">+</div>","null","html-keyboard-response","77","191765","0.0-6.0-0.33","fixation","","","","",""
"1435.685000004014","Stimuli/Hangul_F10.bmp","190","image-keyboard-response","78","193201","0.0-6.0-1.33","test",".","",".","",""
"null","<div style=""color:white; font-size:60px;"">+</div>","null","html-keyboard-response","79","194206","0.0-6.0-0.34","fixation","","","","",""
"1515.4099999926984","Stimuli/Hangul_M12.bmp","188","image-keyboard-response","80","195722","0.0-6.0-1.34","test",",","",",","",""
"null","<div style=""color:white; font-size:60px;"">+</div>","null","html-keyboard-response","81","196724","0.0-6.0-0.35","fixation","","","","",""
"2076.889999996638","Stimuli/Hangul_M14.bmp","188","image-keyboard-response","82","198801","0.0-6.0-1.35","test",",","",",","",""
"null","<div style=""color:white; font-size:60px;"">+</div>","null","html-keyboard-response","83","199806","0.0-6.0-0.36","fixation","","","","",""
"1313.6649999942165","Stimuli/Hangul_F22.bmp","188","image-keyboard-response","84","201121","0.0-6.0-1.36","test",".","",",","",""
"null","<div style=""color:white; font-size:60px;"">+</div>","null","html-keyboard-response","85","202127","0.0-6.0-0.37","fixation","","","","",""
"1417.860000001383","Stimuli/Hangul_F23.bmp","188","image-keyboard-response","86","203545","0.0-6.0-1.37","test",".","",",","",""
"null","<div style=""color:white; font-size:60px;"">+</div>","null","html-keyboard-response","87","204551","0.0-6.0-0.38","fixation","","","","",""
"3769.2300000053365","Stimuli/Hangul_M9.bmp","188","image-keyboard-response","88","208321","0.0-6.0-1.38","test",",","",",","",""
"null","<div style=""color:white; font-size:60px;"">+</div>","null","html-keyboard-response","89","209326","0.0-6.0-0.39","fixation","","","","",""
"1554.550000000745","Stimuli/Hangul_F1.bmp","190","image-keyboard-response","90","210882","0.0-6.0-1.39","test",".","",".","",""
"null","<div style=""color:white; font-size:60px;"">+</div>","null","html-keyboard-response","91","211886","0.0-6.0-0.40","fixation","","","","",""
"5146.1899999994785","Stimuli/Hangul_M0.bmp","188","image-keyboard-response","92","217033","0.0-6.0-1.40","test",",","",",","",""
"null","<div style=""color:white; font-size:60px;"">+</div>","null","html-keyboard-response","93","218039","0.0-6.0-0.41","fixation","","","","",""
"1848.710000005667","Stimuli/Hangul_F6.bmp","190","image-keyboard-response","94","219889","0.0-6.0-1.41","test",".","",".","",""
"null","<div style=""color:white; font-size:60px;"">+</div>","null","html-keyboard-response","95","220890","0.0-6.0-0.42","fixation","","","","",""
"1654.4700000085868","Stimuli/Hangul_M2.bmp","188","image-keyboard-response","96","222545","0.0-6.0-1.42","test",",","",",","",""
"null","<div style=""color:white; font-size:60px;"">+</div>","null","html-keyboard-response","97","223550","0.0-6.0-0.43","fixation","","","","",""
"1746.3149999966845","Stimuli/Hangul_F8.bmp","190","image-keyboard-response","98","225297","0.0-6.0-1.43","test",".","",".","",""
"null","<div style=""color:white; font-size:60px;"">+</div>","null","html-keyboard-response","99","226298","0.0-6.0-0.44","fixation","","","","",""
"1589.7300000069663","Stimuli/Hangul_F17.bmp","190","image-keyboard-response","100","227888","0.0-6.0-1.44","test",".","",".","",""
"null","<div style=""color:white; font-size:60px;"">+</div>","null","html-keyboard-response","101","228894","0.0-6.0-0.45","fixation","","","","",""
"1321.4399999997113","Stimuli/Hangul_M18.bmp","188","image-keyboard-response","102","230216","0.0-6.0-1.45","test",",","",",","",""
"null","<div style=""color:white; font-size:60px;"">+</div>","null","html-keyboard-response","103","231221","0.0-6.0-0.46","fixation","","","","",""
"1675.1950000034412","Stimuli/Hangul_F14.bmp","190","image-keyboard-response","104","232897","0.0-6.0-1.46","test",".","",".","",""
"null","<div style=""color:white; font-size:60px;"">+</div>","null","html-keyboard-response","105","233898","0.0-6.0-0.47","fixation","","","","",""
"2253.915000008419","Stimuli/Hangul_M4.bmp","188","image-keyboard-response","106","236152","0.0-6.0-1.47","test",",","",",","",""
"null","<div style=""color:white; font-size:60px;"">+</div>","null","html-keyboard-response","107","237156","0.0-6.0-0.48","fixation","","","","",""
"3995.0649999955203","Stimuli/Hangul_F16.bmp","188","image-keyboard-response","108","241152","0.0-6.0-1.48","test",".","",",","",""
"null","<div style=""color:white; font-size:60px;"">+</div>","null","html-keyboard-response","109","242153","0.0-6.0-0.49","fixation","","","","",""
"2894.1450000129407","Stimuli/Hangul_M13.bmp","190","image-keyboard-response","110","245049","0.0-6.0-1.49","test",",","",".","",""
"219334.1550000041","<p style=""color:white;"">Good job, block 1 complete! Please take a moment to rest.</p> <p style=""color:white;"">When you are ready to continue with block 2 of 4, press the space bar.</p> ","32","html-keyboard-response","111","464379","0.0-7.0","","","","","",""
"null","<div style=""color:white; font-size:60px;"">+</div>","null","html-keyboard-response","112","467388","0.0-8.0-0.0","fixation","","","","",""
"1717.7450000017416","Stimuli/Hangul_F25.bmp","188","image-keyboard-response","113","469107","0.0-8.0-1.0","test",".","",",","",""
"null","<div style=""color:white; font-size:60px;"">+</div>","null","html-keyboard-response","114","470111","0.0-8.0-0.1","fixation","","","","",""
"1795.1000000030035","Stimuli/Hangul_M40.bmp","190","image-keyboard-response","115","471907","0.0-8.0-1.1","test",",","",".","",""
"null","<div style=""color:white; font-size:60px;"">+</div>","null","html-keyboard-response","116","472911","0.0-8.0-0.2","fixation","","","","",""
"1314.9150000099326","Stimuli/Hangul_F39.bmp","190","image-keyboard-response","117","474227","0.0-8.0-1.2","test",".","",".","",""
"null","<div style=""color:white; font-size:60px;"">+</div>","null","html-keyboard-response","118","475232","0.0-8.0-0.3","fixation","","","","",""
"1522.12999999756","Stimuli/Hangul_M38.bmp","190","image-keyboard-response","119","476755","0.0-8.0-1.3","test",",","",".","",""
"null","<div style=""color:white; font-size:60px;"">+</div>","null","html-keyboard-response","120","477760","0.0-8.0-0.4","fixation","","","","",""
"1433.4100000123726","Stimuli/Hangul_M34.bmp","188","image-keyboard-response","121","479195","0.0-8.0-1.4","test",",","",",","",""
"null","<div style=""color:white; font-size:60px;"">+</div>","null","html-keyboard-response","122","480200","0.0-8.0-0.5","fixation","","","","",""
"1489.99499999627","Stimuli/Hangul_M48.bmp","190","image-keyboard-response","123","481691","0.0-8.0-1.5","test",",","",".","",""
"null","<div style=""color:white; font-size:60px;"">+</div>","null","html-keyboard-response","124","482692","0.0-8.0-0.6","fixation","","","","",""
"1342.1699999889825","Stimuli/Hangul_F32.bmp","190","image-keyboard-response","125","484035","0.0-8.0-1.6","test",".","",".","",""
"null","<div style=""color:white; font-size:60px;"">+</div>","null","html-keyboard-response","126","485040","0.0-8.0-0.7","fixation","","","","",""
"1517.4649999971734","Stimuli/Hangul_F35.bmp","190","image-keyboard-response","127","486558","0.0-8.0-1.7","test",".","",".","",""
"null","<div style=""color:white; font-size:60px;"">+</div>","null","html-keyboard-response","128","487560","0.0-8.0-0.8","fixation","","","","",""
"2162.8600000112783","Stimuli/Hangul_F49.bmp","188","image-keyboard-response","129","489724","0.0-8.0-1.8","test",".","",",","",""
"null","<div style=""color:white; font-size:60px;"">+</div>","null","html-keyboard-response","130","490729","0.0-8.0-0.9","fixation","","","","",""
"1472.2949999995762","Stimuli/Hangul_F26.bmp","188","image-keyboard-response","131","492202","0.0-8.0-1.9","test",".","",",","",""
"null","<div style=""color:white; font-size:60px;"">+</div>","null","html-keyboard-response","132","493207","0.0-8.0-0.10","fixation","","","","",""
"1378.5550000029616","Stimuli/Hangul_F38.bmp","188","image-keyboard-response","133","494586","0.0-8.0-1.10","test",".","",",","",""
"null","<div style=""color:white; font-size:60px;"">+</div>","null","html-keyboard-response","134","495591","0.0-8.0-0.11","fixation","","","","",""
"1618.4550000034506","Stimuli/Hangul_F47.bmp","188","image-keyboard-response","135","497211","0.0-8.0-1.11","test",".","",",","",""
"null","<div style=""color:white; font-size:60px;"">+</div>","null","html-keyboard-response","136","498216","0.0-8.0-0.12","fixation","","","","",""
"2178.0500000022585","Stimuli/Hangul_F44.bmp","188","image-keyboard-response","137","500395","0.0-8.0-1.12","test",".","",",","",""
"null","<div style=""color:white; font-size:60px;"">+</div>","null","html-keyboard-response","138","501400","0.0-8.0-0.13","fixation","","","","",""
"1233.7250000127824","Stimuli/Hangul_M29.bmp","190","image-keyboard-response","139","502634","0.0-8.0-1.13","test",",","",".","",""
"null","<div style=""color:white; font-size:60px;"">+</div>","null","html-keyboard-response","140","503638","0.0-8.0-0.14","fixation","","","","",""
"1691.4299999916693","Stimuli/Hangul_F43.bmp","190","image-keyboard-response","141","505331","0.0-8.0-1.14","test",".","",".","",""
"null","<div style=""color:white; font-size:60px;"">+</div>","null","html-keyboard-response","142","506333","0.0-8.0-0.15","fixation","","","","",""
"1644.8099999979604","Stimuli/Hangul_M44.bmp","190","image-keyboard-response","143","507978","0.0-8.0-1.15","test",",","",".","",""
"null","<div style=""color:white; font-size:60px;"">+</div>","null","html-keyboard-response","144","508981","0.0-8.0-0.16","fixation","","","","",""
"1701.840000008815","Stimuli/Hangul_F33.bmp","190","image-keyboard-response","145","510683","0.0-8.0-1.16","test",".","",".","",""
"null","<div style=""color:white; font-size:60px;"">+</div>","null","html-keyboard-response","146","511687","0.0-8.0-0.17","fixation","","","","",""
"1401.9399999961024","Stimuli/Hangul_M41.bmp","190","image-keyboard-response","147","513090","0.0-8.0-1.17","test",",","",".","",""
"null","<div style=""color:white; font-size:60px;"">+</div>","null","html-keyboard-response","148","514093","0.0-8.0-0.18","fixation","","","","",""
"1397.6050000055693","Stimuli/Hangul_M28.bmp","190","image-keyboard-response","149","515491","0.0-8.0-1.18","test",",","",".","",""
"null","<div style=""color:white; font-size:60px;"">+</div>","null","html-keyboard-response","150","516492","0.0-8.0-0.19","fixation","","","","",""
"1269.3900000012945","Stimuli/Hangul_F30.bmp","188","image-keyboard-response","151","517762","0.0-8.0-1.19","test",".","",",","",""
"null","<div style=""color:white; font-size:60px;"">+</div>","null","html-keyboard-response","152","518765","0.0-8.0-0.20","fixation","","","","",""
"1283.8000000047032","Stimuli/Hangul_M42.bmp","188","image-keyboard-response","153","520050","0.0-8.0-1.20","test",",","",",","",""
"null","<div style=""color:white; font-size:60px;"">+</div>","null","html-keyboard-response","154","521054","0.0-8.0-0.21","fixation","","","","",""
"1739.5400000095833","Stimuli/Hangul_F41.bmp","188","image-keyboard-response","155","522794","0.0-8.0-1.21","test",".","",",","",""
"null","<div style=""color:white; font-size:60px;"">+</div>","null","html-keyboard-response","156","523798","0.0-8.0-0.22","fixation","","","","",""
"1739.240000009886","Stimuli/Hangul_M32.bmp","188","image-keyboard-response","157","525538","0.0-8.0-1.22","test",",","",",","",""
"null","<div style=""color:white; font-size:60px;"">+</div>","null","html-keyboard-response","158","526544","0.0-8.0-0.23","fixation","","","","",""
"1600.9749999939231","Stimuli/Hangul_M39.bmp","190","image-keyboard-response","159","528146","0.0-8.0-1.23","test",",","",".","",""
"null","<div style=""color:white; font-size:60px;"">+</div>","null","html-keyboard-response","160","529151","0.0-8.0-0.24","fixation","","","","",""
"1378.6700000055134","Stimuli/Hangul_F42.bmp","190","image-keyboard-response","161","530530","0.0-8.0-1.24","test",".","",".","",""
"null","<div style=""color:white; font-size:60px;"">+</div>","null","html-keyboard-response","162","531536","0.0-8.0-0.25","fixation","","","","",""
"1456.6950000007637","Stimuli/Hangul_M25.bmp","190","image-keyboard-response","163","532994","0.0-8.0-1.25","test",",","",".","",""
"null","<div style=""color:white; font-size:60px;"">+</div>","null","html-keyboard-response","164","533997","0.0-8.0-0.26","fixation","","","","",""
"1363.6849999893457","Stimuli/Hangul_F46.bmp","188","image-keyboard-response","165","535362","0.0-8.0-1.26","test",".","",",","",""
"null","<div style=""color:white; font-size:60px;"">+</div>","null","html-keyboard-response","166","536366","0.0-8.0-0.27","fixation","","","","",""
"1307.280000008177","Stimuli/Hangul_F36.bmp","188","image-keyboard-response","167","537674","0.0-8.0-1.27","test",".","",",","",""
"null","<div style=""color:white; font-size:60px;"">+</div>","null","html-keyboard-response","168","538677","0.0-8.0-0.28","fixation","","","","",""
"1412.2800000041025","Stimuli/Hangul_F40.bmp","190","image-keyboard-response","169","540090","0.0-8.0-1.28","test",".","",".","",""
"null","<div style=""color:white; font-size:60px;"">+</div>","null","html-keyboard-response","170","541092","0.0-8.0-0.29","fixation","","","","",""
"1422.4450000037905","Stimuli/Hangul_M49.bmp","190","image-keyboard-response","171","542515","0.0-8.0-1.29","test",",","",".","",""
"null","<div style=""color:white; font-size:60px;"">+</div>","null","html-keyboard-response","172","543517","0.0-8.0-0.30","fixation","","","","",""
"1388.4600000019418","Stimuli/Hangul_M27.bmp","190","image-keyboard-response","173","544906","0.0-8.0-1.30","test",",","",".","",""
"null","<div style=""color:white; font-size:60px;"">+</div>","null","html-keyboard-response","174","545907","0.0-8.0-0.31","fixation","","","","",""
"1229.430000006687","Stimuli/Hangul_M43.bmp","188","image-keyboard-response","175","547137","0.0-8.0-1.31","test",",","",",","",""
"null","<div style=""color:white; font-size:60px;"">+</div>","null","html-keyboard-response","176","548139","0.0-8.0-0.32","fixation","","","","",""
"1421.6099999903236","Stimuli/Hangul_F34.bmp","190","image-keyboard-response","177","549561","0.0-8.0-1.32","test",".","",".","",""
"null","<div style=""color:white; font-size:60px;"">+</div>","null","html-keyboard-response","178","550565","0.0-8.0-0.33","fixation","","","","",""
"1699.2150000005495","Stimuli/Hangul_M35.bmp","190","image-keyboard-response","179","552265","0.0-8.0-1.33","test",",","",".","",""
"null","<div style=""color:white; font-size:60px;"">+</div>","null","html-keyboard-response","180","553269","0.0-8.0-0.34","fixation","","","","",""
"2667.8049999900395","Stimuli/Hangul_F37.bmp","190","image-keyboard-response","181","555938","0.0-8.0-1.34","test",".","",".","",""
"null","<div style=""color:white; font-size:60px;"">+</div>","null","html-keyboard-response","182","556944","0.0-8.0-0.35","fixation","","","","",""
"1368.7600000121165","Stimuli/Hangul_F28.bmp","190","image-keyboard-response","183","558313","0.0-8.0-1.35","test",".","",".","",""
"null","<div style=""color:white; font-size:60px;"">+</div>","null","html-keyboard-response","184","559319","0.0-8.0-0.36","fixation","","","","",""
"1569.6849999949336","Stimuli/Hangul_F45.bmp","190","image-keyboard-response","185","560889","0.0-8.0-1.36","test",".","",".","",""
"null","<div style=""color:white; font-size:60px;"">+</div>","null","html-keyboard-response","186","561890","0.0-8.0-0.37","fixation","","","","",""
"2037.6800000085495","Stimuli/Hangul_M26.bmp","190","image-keyboard-response","187","563929","0.0-8.0-1.37","test",",","",".","",""
"null","<div style=""color:white; font-size:60px;"">+</div>","null","html-keyboard-response","188","564932","0.0-8.0-0.38","fixation","","","","",""
"1253.00499999139","Stimuli/Hangul_M37.bmp","190","image-keyboard-response","189","566186","0.0-8.0-1.38","test",",","",".","",""
"null","<div style=""color:white; font-size:60px;"">+</div>","null","html-keyboard-response","190","567189","0.0-8.0-0.39","fixation","","","","",""
"1107.109999997192","Stimuli/Hangul_M47.bmp","190","image-keyboard-response","191","568297","0.0-8.0-1.39","test",",","",".","",""
"null","<div style=""color:white; font-size:60px;"">+</div>","null","html-keyboard-response","192","569299","0.0-8.0-0.40","fixation","","","","",""
"1164.665000003879","Stimuli/Hangul_F27.bmp","188","image-keyboard-response","193","570465","0.0-8.0-1.40","test",".","",",","",""
"null","<div style=""color:white; font-size:60px;"">+</div>","null","html-keyboard-response","194","571470","0.0-8.0-0.41","fixation","","","","",""
"1618.4149999899091","Stimuli/Hangul_M31.bmp","188","image-keyboard-response","195","573089","0.0-8.0-1.41","test",",","",",","",""
"null","<div style=""color:white; font-size:60px;"">+</div>","null","html-keyboard-response","196","574091","0.0-8.0-0.42","fixation","","","","",""
"1260.260000010021","Stimuli/Hangul_M46.bmp","188","image-keyboard-response","197","575353","0.0-8.0-1.42","test",",","",",","",""
"null","<div style=""color:white; font-size:60px;"">+</div>","null","html-keyboard-response","198","576356","0.0-8.0-0.43","fixation","","","","",""
"1580.5049999908078","Stimuli/Hangul_M33.bmp","188","image-keyboard-response","199","577937","0.0-8.0-1.43","test",",","",",","",""
"null","<div style=""color:white; font-size:60px;"">+</div>","null","html-keyboard-response","200","578942","0.0-8.0-0.44","fixation","","","","",""
"1329.570000001695","Stimuli/Hangul_M30.bmp","188","image-keyboard-response","201","580272","0.0-8.0-1.44","test",",","",",","",""
"null","<div style=""color:white; font-size:60px;"">+</div>","null","html-keyboard-response","202","581275","0.0-8.0-0.45","fixation","","","","",""
"1564.3700000073295","Stimuli/Hangul_M45.bmp","190","image-keyboard-response","203","582841","0.0-8.0-1.45","test",",","",".","",""
"null","<div style=""color:white; font-size:60px;"">+</div>","null","html-keyboard-response","204","583842","0.0-8.0-0.46","fixation","","","","",""
"2125.014999997802","Stimuli/Hangul_F48.bmp","190","image-keyboard-response","205","585968","0.0-8.0-1.46","test",".","",".","",""
"null","<div style=""color:white; font-size:60px;"">+</div>","null","html-keyboard-response","206","586973","0.0-8.0-0.47","fixation","","","","",""
"1451.6049999947427","Stimuli/Hangul_M36.bmp","190","image-keyboard-response","207","588425","0.0-8.0-1.47","test",",","",".","",""
"null","<div style=""color:white; font-size:60px;"">+</div>","null","html-keyboard-response","208","589429","0.0-8.0-0.48","fixation","","","","",""
"1330.2549999934854","Stimuli/Hangul_F31.bmp","190","image-keyboard-response","209","590760","0.0-8.0-1.48","test",".","",".","",""
"null","<div style=""color:white; font-size:60px;"">+</div>","null","html-keyboard-response","210","591764","0.0-8.0-0.49","fixation","","","","",""
"1515.0849999918137","Stimuli/Hangul_F29.bmp","190","image-keyboard-response","211","593280","0.0-8.0-1.49","test",".","",".","",""
"13120.734999989509","<p style=""color:white;"">Half way there! Please take a moment to rest.</p> <p style=""color:white;"">When you are ready to continue with block 3 of 4, press the space bar.</p> ","32","html-keyboard-response","212","606402","0.0-9.0","","","","","",""
"null","<div style=""color:white; font-size:60px;"">+</div>","null","html-keyboard-response","213","609408","0.0-10.0-0.0","fixation","","","","",""
"1574.2800000007264","Stimuli/Hangul_M64.bmp","188","image-keyboard-response","214","610984","0.0-10.0-1.0","test",",","",",","",""
"null","<div style=""color:white; font-size:60px;"">+</div>","null","html-keyboard-response","215","611986","0.0-10.0-0.1","fixation","","","","",""
"1405.0150000111898","Stimuli/Hangul_F74.bmp","190","image-keyboard-response","216","613392","0.0-10.0-1.1","test",".","",".","",""
"null","<div style=""color:white; font-size:60px;"">+</div>","null","html-keyboard-response","217","614394","0.0-10.0-0.2","fixation","","","","",""
"1540.98000000522","Stimuli/Hangul_F68.bmp","190","image-keyboard-response","218","615936","0.0-10.0-1.2","test",".","",".","",""
"null","<div style=""color:white; font-size:60px;"">+</div>","null","html-keyboard-response","219","616938","0.0-10.0-0.3","fixation","","","","",""
"1493.1950000027427","Stimuli/Hangul_F50.bmp","190","image-keyboard-response","220","618432","0.0-10.0-1.3","test",".","",".","",""
"null","<div style=""color:white; font-size:60px;"">+</div>","null","html-keyboard-response","221","619434","0.0-10.0-0.4","fixation","","","","",""
"1436.3199999934295","Stimuli/Hangul_M60.bmp","188","image-keyboard-response","222","620872","0.0-10.0-1.4","test",",","",",","",""
"null","<div style=""color:white; font-size:60px;"">+</div>","null","html-keyboard-response","223","621874","0.0-10.0-0.5","fixation","","","","",""
"1316.530000010971","Stimuli/Hangul_F51.bmp","190","image-keyboard-response","224","623191","0.0-10.0-1.5","test",".","",".","",""
"null","<div style=""color:white; font-size:60px;"">+</div>","null","html-keyboard-response","225","624194","0.0-10.0-0.6","fixation","","","","",""
"1292.5300000060815","Stimuli/Hangul_F57.bmp","190","image-keyboard-response","226","625488","0.0-10.0-1.6","test",".","",".","",""
"null","<div style=""color:white; font-size:60px;"">+</div>","null","html-keyboard-response","227","626489","0.0-10.0-0.7","fixation","","","","",""
"1325.9699999907752","Stimuli/Hangul_F73.bmp","190","image-keyboard-response","228","627816","0.0-10.0-1.7","test",".","",".","",""
"null","<div style=""color:white; font-size:60px;"">+</div>","null","html-keyboard-response","229","628820","0.0-10.0-0.8","fixation","","","","",""
"1234.7900000022491","Stimuli/Hangul_F55.bmp","188","image-keyboard-response","230","630056","0.0-10.0-1.8","test",".","",",","",""
"null","<div style=""color:white; font-size:60px;"">+</div>","null","html-keyboard-response","231","631061","0.0-10.0-0.9","fixation","","","","",""
"1353.5649999976158","Stimuli/Hangul_M70.bmp","188","image-keyboard-response","232","632415","0.0-10.0-1.9","test",",","",",","",""
"null","<div style=""color:white; font-size:60px;"">+</div>","null","html-keyboard-response","233","633421","0.0-10.0-0.10","fixation","","","","",""
"1433.8000000134343","Stimuli/Hangul_M57.bmp","188","image-keyboard-response","234","634855","0.0-10.0-1.10","test",",","",",","",""
"null","<div style=""color:white; font-size:60px;"">+</div>","null","html-keyboard-response","235","635861","0.0-10.0-0.11","fixation","","","","",""
"1448.755000004894","Stimuli/Hangul_F67.bmp","188","image-keyboard-response","236","637311","0.0-10.0-1.11","test",".","",",","",""
"null","<div style=""color:white; font-size:60px;"">+</div>","null","html-keyboard-response","237","638317","0.0-10.0-0.12","fixation","","","","",""
"1354.269999996177","Stimuli/Hangul_M50.bmp","188","image-keyboard-response","238","639672","0.0-10.0-1.12","test",",","",",","",""
"null","<div style=""color:white; font-size:60px;"">+</div>","null","html-keyboard-response","239","640673","0.0-10.0-0.13","fixation","","","","",""
"1341.694999995525","Stimuli/Hangul_M66.bmp","190","image-keyboard-response","240","642015","0.0-10.0-1.13","test",",","",".","",""
"null","<div style=""color:white; font-size:60px;"">+</div>","null","html-keyboard-response","241","643018","0.0-10.0-0.14","fixation","","","","",""
"1284.1049999988172","Stimuli/Hangul_F64.bmp","190","image-keyboard-response","242","644303","0.0-10.0-1.14","test",".","",".","",""
"null","<div style=""color:white; font-size:60px;"">+</div>","null","html-keyboard-response","243","645306","0.0-10.0-0.15","fixation","","","","",""
"1324.4549999944866","Stimuli/Hangul_F61.bmp","190","image-keyboard-response","244","646632","0.0-10.0-1.15","test",".","",".","",""
"null","<div style=""color:white; font-size:60px;"">+</div>","null","html-keyboard-response","245","647633","0.0-10.0-0.16","fixation","","","","",""
"1260.3650000091875","Stimuli/Hangul_F66.bmp","188","image-keyboard-response","246","648895","0.0-10.0-1.16","test",".","",",","",""
"null","<div style=""color:white; font-size:60px;"">+</div>","null","html-keyboard-response","247","649897","0.0-10.0-0.17","fixation","","","","",""
"1285.1900000096066","Stimuli/Hangul_M52.bmp","188","image-keyboard-response","248","651183","0.0-10.0-1.17","test",",","",",","",""
"null","<div style=""color:white; font-size:60px;"">+</div>","null","html-keyboard-response","249","652185","0.0-10.0-0.18","fixation","","","","",""
"1367.290000009234","Stimuli/Hangul_M69.bmp","188","image-keyboard-response","250","653553","0.0-10.0-1.18","test",",","",",","",""
"null","<div style=""color:white; font-size:60px;"">+</div>","null","html-keyboard-response","251","654558","0.0-10.0-0.19","fixation","","","","",""
"1232.254999995348","Stimuli/Hangul_F56.bmp","190","image-keyboard-response","252","655791","0.0-10.0-1.19","test",".","",".","",""
"null","<div style=""color:white; font-size:60px;"">+</div>","null","html-keyboard-response","253","656793","0.0-10.0-0.20","fixation","","","","",""
"1485.3299999958836","Stimuli/Hangul_M68.bmp","190","image-keyboard-response","254","658279","0.0-10.0-1.20","test",",","",".","",""
"null","<div style=""color:white; font-size:60px;"">+</div>","null","html-keyboard-response","255","659285","0.0-10.0-0.21","fixation","","","","",""
"1170.9499999997206","Stimuli/Hangul_M51.bmp","190","image-keyboard-response","256","660456","0.0-10.0-1.21","test",",","",".","",""
"null","<div style=""color:white; font-size:60px;"">+</div>","null","html-keyboard-response","257","661460","0.0-10.0-0.22","fixation","","","","",""
"1306.094999992638","Stimuli/Hangul_F54.bmp","188","image-keyboard-response","258","662767","0.0-10.0-1.22","test",".","",",","",""
"null","<div style=""color:white; font-size:60px;"">+</div>","null","html-keyboard-response","259","663769","0.0-10.0-0.23","fixation","","","","",""
"1204.5950000028824","Stimuli/Hangul_M53.bmp","190","image-keyboard-response","260","664975","0.0-10.0-1.23","test",",","",".","",""
"null","<div style=""color:white; font-size:60px;"">+</div>","null","html-keyboard-response","261","665980","0.0-10.0-0.24","fixation","","","","",""
"1298.43000000983","Stimuli/Hangul_F71.bmp","188","image-keyboard-response","262","667279","0.0-10.0-1.24","test",".","",",","",""
"null","<div style=""color:white; font-size:60px;"">+</div>","null","html-keyboard-response","263","668284","0.0-10.0-0.25","fixation","","","","",""
"1577.2049999941373","Stimuli/Hangul_F70.bmp","188","image-keyboard-response","264","669862","0.0-10.0-1.25","test",".","",",","",""
"null","<div style=""color:white; font-size:60px;"">+</div>","null","html-keyboard-response","265","670867","0.0-10.0-0.26","fixation","","","","",""
"1322.2450000030221","Stimuli/Hangul_M56.bmp","190","image-keyboard-response","266","672190","0.0-10.0-1.26","test",",","",".","",""
"null","<div style=""color:white; font-size:60px;"">+</div>","null","html-keyboard-response","267","673195","0.0-10.0-0.27","fixation","","","","",""
"1402.845000004163","Stimuli/Hangul_M63.bmp","190","image-keyboard-response","268","674598","0.0-10.0-1.27","test",",","",".","",""
"null","<div style=""color:white; font-size:60px;"">+</div>","null","html-keyboard-response","269","675601","0.0-10.0-0.28","fixation","","","","",""
"1468.0800000060117","Stimuli/Hangul_M71.bmp","190","image-keyboard-response","270","677071","0.0-10.0-1.28","test",",","",".","",""
"null","<div style=""color:white; font-size:60px;"">+</div>","null","html-keyboard-response","271","678075","0.0-10.0-0.29","fixation","","","","",""
"1587.390000000596","Stimuli/Hangul_M73.bmp","190","image-keyboard-response","272","679663","0.0-10.0-1.29","test",",","",".","",""
"null","<div style=""color:white; font-size:60px;"">+</div>","null","html-keyboard-response","273","680668","0.0-10.0-0.30","fixation","","","","",""
"1625.065000000177","Stimuli/Hangul_F58.bmp","188","image-keyboard-response","274","682294","0.0-10.0-1.30","test",".","",",","",""
"null","<div style=""color:white; font-size:60px;"">+</div>","null","html-keyboard-response","275","683296","0.0-10.0-0.31","fixation","","","","",""
"1765.4749999928754","Stimuli/Hangul_M58.bmp","190","image-keyboard-response","276","685062","0.0-10.0-1.31","test",",","",".","",""
"null","<div style=""color:white; font-size:60px;"">+</div>","null","html-keyboard-response","277","686068","0.0-10.0-0.32","fixation","","","","",""
"1410.9000000025844","Stimuli/Hangul_F59.bmp","190","image-keyboard-response","278","687480","0.0-10.0-1.32","test",".","",".","",""
"null","<div style=""color:white; font-size:60px;"">+</div>","null","html-keyboard-response","279","688484","0.0-10.0-0.33","fixation","","","","",""
"1529.6149999921909","Stimuli/Hangul_M72.bmp","190","image-keyboard-response","280","690014","0.0-10.0-1.33","test",",","",".","",""
"null","<div style=""color:white; font-size:60px;"">+</div>","null","html-keyboard-response","281","691019","0.0-10.0-0.34","fixation","","","","",""
"2962.0950000098674","Stimuli/Hangul_M67.bmp","190","image-keyboard-response","282","693982","0.0-10.0-1.34","test",",","",".","",""
"null","<div style=""color:white; font-size:60px;"">+</div>","null","html-keyboard-response","283","694984","0.0-10.0-0.35","fixation","","","","",""
"1804.6549999999115","Stimuli/Hangul_F65.bmp","190","image-keyboard-response","284","696790","0.0-10.0-1.35","test",".","",".","",""
"null","<div style=""color:white; font-size:60px;"">+</div>","null","html-keyboard-response","285","697793","0.0-10.0-0.36","fixation","","","","",""
"5236.2949999951525","Stimuli/Hangul_M61.bmp","190","image-keyboard-response","286","703030","0.0-10.0-1.36","test",",","",".","",""
"null","<div style=""color:white; font-size:60px;"">+</div>","null","html-keyboard-response","287","704035","0.0-10.0-0.37","fixation","","","","",""
"3857.53000000841","Stimuli/Hangul_M65.bmp","188","image-keyboard-response","288","707894","0.0-10.0-1.37","test",",","",",","",""
"null","<div style=""color:white; font-size:60px;"">+</div>","null","html-keyboard-response","289","708896","0.0-10.0-0.38","fixation","","","","",""
"4590.425000002142","Stimuli/Hangul_M54.bmp","188","image-keyboard-response","290","713488","0.0-10.0-1.38","test",",","",",","",""
"null","<div style=""color:white; font-size:60px;"">+</div>","null","html-keyboard-response","291","714489","0.0-10.0-0.39","fixation","","","","",""
"1411.5449999953853","Stimuli/Hangul_F53.bmp","190","image-keyboard-response","292","715901","0.0-10.0-1.39","test",".","",".","",""
"null","<div style=""color:white; font-size:60px;"">+</div>","null","html-keyboard-response","293","716904","0.0-10.0-0.40","fixation","","","","",""
"1580.934999990859","Stimuli/Hangul_F62.bmp","188","image-keyboard-response","294","718486","0.0-10.0-1.40","test",".","",",","",""
"null","<div style=""color:white; font-size:60px;"">+</div>","null","html-keyboard-response","295","719488","0.0-10.0-0.41","fixation","","","","",""
"2612.6400000066496","Stimuli/Hangul_M55.bmp","190","image-keyboard-response","296","722101","0.0-10.0-1.41","test",",","",".","",""
"null","<div style=""color:white; font-size:60px;"">+</div>","null","html-keyboard-response","297","723106","0.0-10.0-0.42","fixation","","","","",""
"1530.9899999992922","Stimuli/Hangul_F72.bmp","188","image-keyboard-response","298","724638","0.0-10.0-1.42","test",".","",",","",""
"null","<div style=""color:white; font-size:60px;"">+</div>","null","html-keyboard-response","299","725643","0.0-10.0-0.43","fixation","","","","",""
"1852.9149999958463","Stimuli/Hangul_M59.bmp","188","image-keyboard-response","300","727497","0.0-10.0-1.43","test",",","",",","",""
"null","<div style=""color:white; font-size:60px;"">+</div>","null","html-keyboard-response","301","728498","0.0-10.0-0.44","fixation","","","","",""
"1386.4699999976438","Stimuli/Hangul_F60.bmp","190","image-keyboard-response","302","729885","0.0-10.0-1.44","test",".","",".","",""
"null","<div style=""color:white; font-size:60px;"">+</div>","null","html-keyboard-response","303","730886","0.0-10.0-0.45","fixation","","","","",""
"1582.5799999875017","Stimuli/Hangul_F63.bmp","188","image-keyboard-response","304","732470","0.0-10.0-1.45","test",".","",",","",""
"null","<div style=""color:white; font-size:60px;"">+</div>","null","html-keyboard-response","305","733471","0.0-10.0-0.46","fixation","","","","",""
"2381.5599999943515","Stimuli/Hangul_M74.bmp","188","image-keyboard-response","306","735853","0.0-10.0-1.46","test",",","",",","",""
"null","<div style=""color:white; font-size:60px;"">+</div>","null","html-keyboard-response","307","736858","0.0-10.0-0.47","fixation","","","","",""
"1778.4300000057556","Stimuli/Hangul_F52.bmp","188","image-keyboard-response","308","738637","0.0-10.0-1.47","test",".","",",","",""
"null","<div style=""color:white; font-size:60px;"">+</div>","null","html-keyboard-response","309","739638","0.0-10.0-0.48","fixation","","","","",""
"2037.5849999982165","Stimuli/Hangul_F69.bmp","190","image-keyboard-response","310","741677","0.0-10.0-1.48","test",".","",".","",""
"null","<div style=""color:white; font-size:60px;"">+</div>","null","html-keyboard-response","311","742678","0.0-10.0-0.49","fixation","","","","",""
"1878.2300000020768","Stimuli/Hangul_M62.bmp","188","image-keyboard-response","312","744557","0.0-10.0-1.49","test",",","",",","",""
"34759.55499999691","<p style=""color:white;"">One more block to go! Please take a moment to rest.</p> <p style=""color:white;"">When you are ready to continue with block 4 of 4, press the space bar.</p> ","32","html-keyboard-response","313","779318","0.0-11.0","","","","","",""
"null","<div style=""color:white; font-size:60px;"">+</div>","null","html-keyboard-response","314","782327","0.0-12.0-0.0","fixation","","","","",""
"1723.984999989625","Stimuli/Hangul_M80.bmp","188","image-keyboard-response","315","784052","0.0-12.0-1.0","test",",","",",","",""
"null","<div style=""color:white; font-size:60px;"">+</div>","null","html-keyboard-response","316","785058","0.0-12.0-0.1","fixation","","","","",""
"1385.3349999990314","Stimuli/Hangul_M84.bmp","190","image-keyboard-response","317","786444","0.0-12.0-1.1","test",",","",".","",""
"null","<div style=""color:white; font-size:60px;"">+</div>","null","html-keyboard-response","318","787449","0.0-12.0-0.2","fixation","","","","",""
"1346.720000001369","Stimuli/Hangul_F97.bmp","190","image-keyboard-response","319","788796","0.0-12.0-1.2","test",".","",".","",""
"null","<div style=""color:white; font-size:60px;"">+</div>","null","html-keyboard-response","320","789800","0.0-12.0-0.3","fixation","","","","",""
"1395.3349999937927","Stimuli/Hangul_M83.bmp","188","image-keyboard-response","321","791196","0.0-12.0-1.3","test",",","",",","",""
"null","<div style=""color:white; font-size:60px;"">+</div>","null","html-keyboard-response","322","792202","0.0-12.0-0.4","fixation","","","","",""
"1577.5600000051782","Stimuli/Hangul_M89.bmp","188","image-keyboard-response","323","793780","0.0-12.0-1.4","test",",","",",","",""
"null","<div style=""color:white; font-size:60px;"">+</div>","null","html-keyboard-response","324","794782","0.0-12.0-0.5","fixation","","","","",""
"1428.2149999926332","Stimuli/Hangul_M90.bmp","188","image-keyboard-response","325","796212","0.0-12.0-1.5","test",",","",",","",""
"null","<div style=""color:white; font-size:60px;"">+</div>","null","html-keyboard-response","326","797215","0.0-12.0-0.6","fixation","","","","",""
"1387.9199999937555","Stimuli/Hangul_F91.bmp","190","image-keyboard-response","327","798604","0.0-12.0-1.6","test",".","",".","",""
"null","<div style=""color:white; font-size:60px;"">+</div>","null","html-keyboard-response","328","799608","0.0-12.0-0.7","fixation","","","","",""
"1426.659999997355","Stimuli/Hangul_F80.bmp","190","image-keyboard-response","329","801035","0.0-12.0-1.7","test",".","",".","",""
"null","<div style=""color:white; font-size:60px;"">+</div>","null","html-keyboard-response","330","802041","0.0-12.0-0.8","fixation","","","","",""
"1457.9799999919487","Stimuli/Hangul_M87.bmp","190","image-keyboard-response","331","803500","0.0-12.0-1.8","test",",","",".","",""
"null","<div style=""color:white; font-size:60px;"">+</div>","null","html-keyboard-response","332","804504","0.0-12.0-0.9","fixation","","","","",""
"1433.8199999911012","Stimuli/Hangul_F85.bmp","190","image-keyboard-response","333","805939","0.0-12.0-1.9","test",".","",".","",""
"null","<div style=""color:white; font-size:60px;"">+</div>","null","html-keyboard-response","334","806945","0.0-12.0-0.10","fixation","","","","",""
"1290.3950000036275","Stimuli/Hangul_M79.bmp","188","image-keyboard-response","335","808236","0.0-12.0-1.10","test",",","",",","",""
"null","<div style=""color:white; font-size:60px;"">+</div>","null","html-keyboard-response","336","809241","0.0-12.0-0.11","fixation","","","","",""
"1793.485000001965","Stimuli/Hangul_M95.bmp","188","image-keyboard-response","337","811035","0.0-12.0-1.11","test",",","",",","",""
"null","<div style=""color:white; font-size:60px;"">+</div>","null","html-keyboard-response","338","812038","0.0-12.0-0.12","fixation","","","","",""
"1349.065000002156","Stimuli/Hangul_F82.bmp","190","image-keyboard-response","339","813387","0.0-12.0-1.12","test",".","",".","",""
"null","<div style=""color:white; font-size:60px;"">+</div>","null","html-keyboard-response","340","814392","0.0-12.0-0.13","fixation","","","","",""
"1290.8400000014808","Stimuli/Hangul_F81.bmp","190","image-keyboard-response","341","815684","0.0-12.0-1.13","test",".","",".","",""
"null","<div style=""color:white; font-size:60px;"">+</div>","null","html-keyboard-response","342","816685","0.0-12.0-0.14","fixation","","","","",""
"1429.4799999915995","Stimuli/Hangul_M96.bmp","188","image-keyboard-response","343","818115","0.0-12.0-1.14","test",",","",",","",""
"null","<div style=""color:white; font-size:60px;"">+</div>","null","html-keyboard-response","344","819121","0.0-12.0-0.15","fixation","","","","",""
"1443.664999998873","Stimuli/Hangul_M94.bmp","188","image-keyboard-response","345","820565","0.0-12.0-1.15","test",",","",",","",""
"null","<div style=""color:white; font-size:60px;"">+</div>","null","html-keyboard-response","346","821571","0.0-12.0-0.16","fixation","","","","",""
"1559.1649999987567","Stimuli/Hangul_F92.bmp","190","image-keyboard-response","347","823131","0.0-12.0-1.16","test",".","",".","",""
"null","<div style=""color:white; font-size:60px;"">+</div>","null","html-keyboard-response","348","824136","0.0-12.0-0.17","fixation","","","","",""
"1619.3599999969592","Stimuli/Hangul_M86.bmp","188","image-keyboard-response","349","825756","0.0-12.0-1.17","test",",","",",","",""
"null","<div style=""color:white; font-size:60px;"">+</div>","null","html-keyboard-response","350","826761","0.0-12.0-0.18","fixation","","","","",""
"1313.4100000024773","Stimuli/Hangul_F96.bmp","190","image-keyboard-response","351","828075","0.0-12.0-1.18","test",".","",".","",""
"null","<div style=""color:white; font-size:60px;"">+</div>","null","html-keyboard-response","352","829081","0.0-12.0-0.19","fixation","","","","",""
"1265.3550000104588","Stimuli/Hangul_F86.bmp","190","image-keyboard-response","353","830347","0.0-12.0-1.19","test",".","",".","",""
"null","<div style=""color:white; font-size:60px;"">+</div>","null","html-keyboard-response","354","831351","0.0-12.0-0.20","fixation","","","","",""
"1267.1649999974761","Stimuli/Hangul_F84.bmp","190","image-keyboard-response","355","832619","0.0-12.0-1.20","test",".","",".","",""
"null","<div style=""color:white; font-size:60px;"">+</div>","null","html-keyboard-response","356","833621","0.0-12.0-0.21","fixation","","","","",""
"1588.899999987916","Stimuli/Hangul_M97.bmp","188","image-keyboard-response","357","835211","0.0-12.0-1.21","test",",","",",","",""
"null","<div style=""color:white; font-size:60px;"">+</div>","null","html-keyboard-response","358","836216","0.0-12.0-0.22","fixation","","","","",""
"1307.3699999949895","Stimuli/Hangul_M88.bmp","188","image-keyboard-response","359","837524","0.0-12.0-1.22","test",",","",",","",""
"null","<div style=""color:white; font-size:60px;"">+</div>","null","html-keyboard-response","360","838528","0.0-12.0-0.23","fixation","","","","",""
"1465.2350000105798","Stimuli/Hangul_M92.bmp","188","image-keyboard-response","361","839995","0.0-12.0-1.23","test",",","",",","",""
"null","<div style=""color:white; font-size:60px;"">+</div>","null","html-keyboard-response","362","840997","0.0-12.0-0.24","fixation","","","","",""
"2029.1600000055041","Stimuli/Hangul_F87.bmp","190","image-keyboard-response","363","843027","0.0-12.0-1.24","test",".","",".","",""
"null","<div style=""color:white; font-size:60px;"">+</div>","null","html-keyboard-response","364","844031","0.0-12.0-0.25","fixation","","","","",""
"1339.4200000038836","Stimuli/Hangul_F75.bmp","190","image-keyboard-response","365","845371","0.0-12.0-1.25","test",".","",".","",""
"null","<div style=""color:white; font-size:60px;"">+</div>","null","html-keyboard-response","366","846375","0.0-12.0-0.26","fixation","","","","",""
"1347.0750000124099","Stimuli/Hangul_F90.bmp","188","image-keyboard-response","367","847723","0.0-12.0-1.26","test",".","",",","",""
"null","<div style=""color:white; font-size:60px;"">+</div>","null","html-keyboard-response","368","848725","0.0-12.0-0.27","fixation","","","","",""
"1316.804999994929","Stimuli/Hangul_F95.bmp","190","image-keyboard-response","369","850043","0.0-12.0-1.27","test",".","",".","",""
"null","<div style=""color:white; font-size:60px;"">+</div>","null","html-keyboard-response","370","851047","0.0-12.0-0.28","fixation","","","","",""
"1218.5299999982817","Stimuli/Hangul_F88.bmp","190","image-keyboard-response","371","852267","0.0-12.0-1.28","test",".","",".","",""
"null","<div style=""color:white; font-size:60px;"">+</div>","null","html-keyboard-response","372","853270","0.0-12.0-0.29","fixation","","","","",""
"1204.8349999968195","Stimuli/Hangul_F93.bmp","190","image-keyboard-response","373","854475","0.0-12.0-1.29","test",".","",".","",""
"null","<div style=""color:white; font-size:60px;"">+</div>","null","html-keyboard-response","374","855479","0.0-12.0-0.30","fixation","","","","",""
"1530.6750000017928","Stimuli/Hangul_M82.bmp","188","image-keyboard-response","375","857011","0.0-12.0-1.30","test",",","",",","",""
"null","<div style=""color:white; font-size:60px;"">+</div>","null","html-keyboard-response","376","858014","0.0-12.0-0.31","fixation","","","","",""
"1556.364999996731","Stimuli/Hangul_M76.bmp","188","image-keyboard-response","377","859571","0.0-12.0-1.31","test",",","",",","",""
"null","<div style=""color:white; font-size:60px;"">+</div>","null","html-keyboard-response","378","860573","0.0-12.0-0.32","fixation","","","","",""
"1444.3299999984447","Stimuli/Hangul_F78.bmp","190","image-keyboard-response","379","862018","0.0-12.0-1.32","test",".","",".","",""
"null","<div style=""color:white; font-size:60px;"">+</div>","null","html-keyboard-response","380","863023","0.0-12.0-0.33","fixation","","","","",""
"1210.334999996121","Stimuli/Hangul_F98.bmp","190","image-keyboard-response","381","864234","0.0-12.0-1.33","test",".","",".","",""
"null","<div style=""color:white; font-size:60px;"">+</div>","null","html-keyboard-response","382","865240","0.0-12.0-0.34","fixation","","","","",""
"1218.2000000029802","Stimuli/Hangul_F76.bmp","190","image-keyboard-response","383","866458","0.0-12.0-1.34","test",".","",".","",""
"null","<div style=""color:white; font-size:60px;"">+</div>","null","html-keyboard-response","384","867461","0.0-12.0-0.35","fixation","","","","",""
"1188.3600000001024","Stimuli/Hangul_F99.bmp","190","image-keyboard-response","385","868650","0.0-12.0-1.35","test",".","",".","",""
"null","<div style=""color:white; font-size:60px;"">+</div>","null","html-keyboard-response","386","869653","0.0-12.0-0.36","fixation","","","","",""
"1396.51999999478","Stimuli/Hangul_M85.bmp","188","image-keyboard-response","387","871050","0.0-12.0-1.36","test",",","",",","",""
"null","<div style=""color:white; font-size:60px;"">+</div>","null","html-keyboard-response","388","872055","0.0-12.0-0.37","fixation","","","","",""
"1419.5999999938067","Stimuli/Hangul_M75.bmp","188","image-keyboard-response","389","873476","0.0-12.0-1.37","test",",","",",","",""
"null","<div style=""color:white; font-size:60px;"">+</div>","null","html-keyboard-response","390","874477","0.0-12.0-0.38","fixation","","","","",""
"1388.4549999929732","Stimuli/Hangul_F89.bmp","190","image-keyboard-response","391","875866","0.0-12.0-1.38","test",".","",".","",""
"null","<div style=""color:white; font-size:60px;"">+</div>","null","html-keyboard-response","392","876869","0.0-12.0-0.39","fixation","","","","",""
"1732.2500000009313","Stimuli/Hangul_M77.bmp","188","image-keyboard-response","393","878602","0.0-12.0-1.39","test",",","",",","",""
"null","<div style=""color:white; font-size:60px;"">+</div>","null","html-keyboard-response","394","879604","0.0-12.0-0.40","fixation","","","","",""
"1725.4249999969034","Stimuli/Hangul_M99.bmp","188","image-keyboard-response","395","881330","0.0-12.0-1.40","test",",","",",","",""
"null","<div style=""color:white; font-size:60px;"">+</div>","null","html-keyboard-response","396","882335","0.0-12.0-0.41","fixation","","","","",""
"2049.6899999998277","Stimuli/Hangul_F94.bmp","190","image-keyboard-response","397","884386","0.0-12.0-1.41","test",".","",".","",""
"null","<div style=""color:white; font-size:60px;"">+</div>","null","html-keyboard-response","398","885391","0.0-12.0-0.42","fixation","","","","",""
"2425.8849999896483","Stimuli/Hangul_F83.bmp","188","image-keyboard-response","399","887818","0.0-12.0-1.42","test",".","",",","",""
"null","<div style=""color:white; font-size:60px;"">+</div>","null","html-keyboard-response","400","888819","0.0-12.0-0.43","fixation","","","","",""
"2405.749999990803","Stimuli/Hangul_F77.bmp","188","image-keyboard-response","401","891226","0.0-12.0-1.43","test",".","",",","",""
"null","<div style=""color:white; font-size:60px;"">+</div>","null","html-keyboard-response","402","892230","0.0-12.0-0.44","fixation","","","","",""
"1754.880000007688","Stimuli/Hangul_F79.bmp","190","image-keyboard-response","403","893986","0.0-12.0-1.44","test",".","",".","",""
"null","<div style=""color:white; font-size:60px;"">+</div>","null","html-keyboard-response","404","894991","0.0-12.0-0.45","fixation","","","","",""
"2577.4749999982305","Stimuli/Hangul_M81.bmp","188","image-keyboard-response","405","897569","0.0-12.0-1.45","test",",","",",","",""
"null","<div style=""color:white; font-size:60px;"">+</div>","null","html-keyboard-response","406","898574","0.0-12.0-0.46","fixation","","","","",""
"2946.8550000019604","Stimuli/Hangul_M93.bmp","188","image-keyboard-response","407","901522","0.0-12.0-1.46","test",",","",",","",""
"null","<div style=""color:white; font-size:60px;"">+</div>","null","html-keyboard-response","408","902524","0.0-12.0-0.47","fixation","","","","",""
"1435.6800000095973","Stimuli/Hangul_M98.bmp","188","image-keyboard-response","409","903961","0.0-12.0-1.47","test",",","",",","",""
"null","<div style=""color:white; font-size:60px;"">+</div>","null","html-keyboard-response","410","904965","0.0-12.0-0.48","fixation","","","","",""
"2563.754999995581","Stimuli/Hangul_M91.bmp","188","image-keyboard-response","411","907530","0.0-12.0-1.48","test",",","",",","",""
"null","<div style=""color:white; font-size:60px;"">+</div>","null","html-keyboard-response","412","908531","0.0-12.0-0.49","fixation","","","","",""
"2620.790000000852","Stimuli/Hangul_M78.bmp","188","image-keyboard-response","413","911153","0.0-12.0-1.49","test",",","",",","",""
"288439.65000000026","<p style=""color:white;"">Phase I of the experiment is complete.</p> <p style=""color:white;"">Press the space bar to proceed to Phase II of the experiment.</p> ","32","html-keyboard-response","414","1199588","0.0-13.0","","","","","",""
"17259.48500000243","<p style=""color:white;"">Now we are interested in how well you can predict patterns in the series of figures. You will be asked to predict whether the next figure in the series is more male-like or female-like. When you see the <q>Next Figure</q> prompt, press the corresponding response keys to indicate your prediction: </p><p style=""color:white;""> Male &#8594 <q>,</q> (comma)</p><p style=""color:white;""> Female &#8594 <q>.</q> (period)</p><p style=""color:white;"">The actual figure will then appear on the screen. After you see the figure, please guess the assigned gender with response keys. </p><p style=""color:white;"">As before, you will receive 2 cents for correctly classifying each figure.</p><p style=""color:white;"">Press either response keys to continue.</p>","188","html-keyboard-response","415","1218851","0.0-14.0","","","","","",""
"18271.50499999686","<p style=""color:white;"">PREDICTION BONUS</p> <p style=""color:white;"">Your prediction accuracy is the total number of correct predictions you make over the 200 trials.</p> <p style=""color:white;"">In addition to the 2 cents per correct figure classification, you have the chance to receive a bonus of 40 dollars IF your accuracy is above average relative to previous participants.</p><p style=""color:white;"">If your accuracy is below average relative to previous participants, then you will not receive the 40 dollar bonus.</p><p style=""color:white;"">Press the space bar to continue.</p>","32","html-keyboard-response","416","1237123","0.0-15.0","","","","","",""
"3949.9900000081398","<p style=""color:white;"">Here are some examples.</p> <p style=""color:white;"">For each, predict whether the next figure looks more male-like or female-like. Then, when the figure appears, guess whether it looks more male-like or female-like and indicate your choice.</p> <p style=""color:white;"">Press the space bar to continue.</p>","32","html-keyboard-response","417","1241074","0.0-16.0","","","","","",""
"5334.189999994123","<p style=""color:white;""> Next Figure: Male or Female? </p>","188","html-keyboard-response","418","1248410","0.0-17.0-0.0","prediction_train","","","",",",""
"null","<div style=""color:white; font-size:60px;"">+</div>","null","html-keyboard-response","419","1249416","0.0-17.0-1.0","fixation","","","","",""
"3304.5449999917764","Stimuli/Hangul_E2.bmp","188","image-keyboard-response","420","1252721","0.0-17.0-2.0","c2_train",".","","","",","
"1959.419999999227","<p style=""color:white;""> Next Figure: Male or Female? </p>","188","html-keyboard-response","421","1254682","0.0-17.0-0.1","prediction_train","","","",",",""
"null","<div style=""color:white; font-size:60px;"">+</div>","null","html-keyboard-response","422","1255683","0.0-17.0-1.1","fixation","","","","",""
"813.2249999907799","Stimuli/Hangul_E1.bmp","190","image-keyboard-response","423","1256498","0.0-17.0-2.1","c2_train",",","","","","."
"1287.3250000118278","<p style=""color:white;""> Next Figure: Male or Female? </p>","188","html-keyboard-response","424","1257786","0.0-17.0-0.2","prediction_train","","","",",",""
"null","<div style=""color:white; font-size:60px;"">+</div>","null","html-keyboard-response","425","1258791","0.0-17.0-1.2","fixation","","","","",""
"2105.6949999912176","Stimuli/Hangul_E0.bmp","190","image-keyboard-response","426","1260898","0.0-17.0-2.2","c2_train",",","","","","."
"15656.130000002915","<p style=""color:white;"">Let us begin! Press the space bar when you are ready to start block 1 of 4.</p> ","32","html-keyboard-response","427","1276555","0.0-18.0","","","","","",""
"752.1149999957997","<p style=""color:white;""> Next Figure: Male or Female? </p>","188","html-keyboard-response","428","1279313","0.0-19.0-0.0","prediction","","","",",",""
"null","<div style=""color:white; font-size:60px;"">+</div>","null","html-keyboard-response","429","1280319","0.0-19.0-1.0","fixation","","","","",""
"977.1299999994226","Stimuli/Hangul_M7.bmp","190","image-keyboard-response","430","1281297","0.0-19.0-2.0","c2_test",",","","","","."
"695.0700000014622","<p style=""color:white;""> Next Figure: Male or Female? </p>","190","html-keyboard-response","431","1281993","0.0-19.0-0.1","prediction","","","",".",""
"null","<div style=""color:white; font-size:60px;"">+</div>","null","html-keyboard-response","432","1282998","0.0-19.0-1.1","fixation","","","","",""
"660.7800000056159","Stimuli/Hangul_F17.bmp","190","image-keyboard-response","433","1283660","0.0-19.0-2.1","c2_test",".","","","","."
"579.8900000080466","<p style=""color:white;""> Next Figure: Male or Female? </p>","190","html-keyboard-response","434","1284241","0.0-19.0-0.2","prediction","","","",".",""
"null","<div style=""color:white; font-size:60px;"">+</div>","null","html-keyboard-response","435","1285242","0.0-19.0-1.2","fixation","","","","",""
"686.1700000008568","Stimuli/Hangul_F13.bmp","188","image-keyboard-response","436","1285928","0.0-19.0-2.2","c2_test",".","","","",","
"951.6050000092946","<p style=""color:white;""> Next Figure: Male or Female? </p>","190","html-keyboard-response","437","1286881","0.0-19.0-0.3","prediction","","","",".",""
"null","<div style=""color:white; font-size:60px;"">+</div>","null","html-keyboard-response","438","1287882","0.0-19.0-1.3","fixation","","","","",""
"949.3050000020303","Stimuli/Hangul_M10.bmp","188","image-keyboard-response","439","1288833","0.0-19.0-2.3","c2_test",",","","","",","
"614.8399999947287","<p style=""color:white;""> Next Figure: Male or Female? </p>","188","html-keyboard-response","440","1289448","0.0-19.0-0.4","prediction","","","",",",""
"null","<div style=""color:white; font-size:60px;"">+</div>","null","html-keyboard-response","441","1290453","0.0-19.0-1.4","fixation","","","","",""
"1188.6349999986123","Stimuli/Hangul_F19.bmp","188","image-keyboard-response","442","1291643","0.0-19.0-2.4","c2_test",".","","","",","
"612.3399999924004","<p style=""color:white;""> Next Figure: Male or Female? </p>","188","html-keyboard-response","443","1292256","0.0-19.0-0.5","prediction","","","",",",""
"null","<div style=""color:white; font-size:60px;"">+</div>","null","html-keyboard-response","444","1293261","0.0-19.0-1.5","fixation","","","","",""
"745.9749999982305","Stimuli/Hangul_F6.bmp","188","image-keyboard-response","445","1294009","0.0-19.0-2.5","c2_test",".","","","",","
"534.7199999960139","<p style=""color:white;""> Next Figure: Male or Female? </p>","188","html-keyboard-response","446","1294544","0.0-19.0-0.6","prediction","","","",",",""
"null","<div style=""color:white; font-size:60px;"">+</div>","null","html-keyboard-response","447","1295549","0.0-19.0-1.6","fixation","","","","",""
"2707.7049999935552","Stimuli/Hangul_F8.bmp","190","image-keyboard-response","448","1298257","0.0-19.0-2.6","c2_test",".","","","","."
"846.4450000028592","<p style=""color:white;""> Next Figure: Male or Female? </p>","190","html-keyboard-response","449","1299104","0.0-19.0-0.7","prediction","","","",".",""
"null","<div style=""color:white; font-size:60px;"">+</div>","null","html-keyboard-response","450","1300108","0.0-19.0-1.7","fixation","","","","",""
"1243.1199999991804","Stimuli/Hangul_F20.bmp","188","image-keyboard-response","451","1301353","0.0-19.0-2.7","c2_test",".","","","",","
"910.4399999922607","<p style=""color:white;""> Next Figure: Male or Female? </p>","188","html-keyboard-response","452","1302264","0.0-19.0-0.8","prediction","","","",",",""
"null","<div style=""color:white; font-size:60px;"">+</div>","null","html-keyboard-response","453","1303266","0.0-19.0-1.8","fixation","","","","",""
"836.7600000058301","Stimuli/Hangul_F3.bmp","190","image-keyboard-response","454","1304104","0.0-19.0-2.8","c2_test",".","","","","."
"13096.375000008149","<p style=""color:white;""> Next Figure: Male or Female? </p>","188","html-keyboard-response","455","1317201","0.0-19.0-0.9","prediction","","","",",",""
"null","<div style=""color:white; font-size:60px;"">+</div>","null","html-keyboard-response","456","1318204","0.0-19.0-1.9","fixation","","","","",""
"714.559999993071","Stimuli/Hangul_M20.bmp","190","image-keyboard-response","457","1318920","0.0-19.0-2.9","c2_test",",","","","","."
"527.1099999956787","<p style=""color:white;""> Next Figure: Male or Female? </p>","190","html-keyboard-response","458","1319448","0.0-19.0-0.10","prediction","","","",".",""
"null","<div style=""color:white; font-size:60px;"">+</div>","null","html-keyboard-response","459","1320453","0.0-19.0-1.10","fixation","","","","",""
"690.3500000042841","Stimuli/Hangul_F1.bmp","190","image-keyboard-response","460","1321144","0.0-19.0-2.10","c2_test",".","","","","."
"527.0699999965727","<p style=""color:white;""> Next Figure: Male or Female? </p>","190","html-keyboard-response","461","1321671","0.0-19.0-0.11","prediction","","","",".",""
"null","<div style=""color:white; font-size:60px;"">+</div>","null","html-keyboard-response","462","1322674","0.0-19.0-1.11","fixation","","","","",""
"653.409999998752","Stimuli/Hangul_M8.bmp","188","image-keyboard-response","463","1323328","0.0-19.0-2.11","c2_test",",","","","",","
"670.7400000011548","<p style=""color:white;""> Next Figure: Male or Female? </p>","188","html-keyboard-response","464","1324000","0.0-19.0-0.12","prediction","","","",",",""
"null","<div style=""color:white; font-size:60px;"">+</div>","null","html-keyboard-response","465","1325005","0.0-19.0-1.12","fixation","","","","",""
"802.4100000038743","Stimuli/Hangul_M1.bmp","188","image-keyboard-response","466","1325808","0.0-19.0-2.12","c2_test",",","","","",","
"446.714999998454","<p style=""color:white;""> Next Figure: Male or Female? </p>","188","html-keyboard-response","467","1326256","0.0-19.0-0.13","prediction","","","",",",""
"null","<div style=""color:white; font-size:60px;"">+</div>","null","html-keyboard-response","468","1327259","0.0-19.0-1.13","fixation","","","","",""
"774.4700000039302","Stimuli/Hangul_M12.bmp","190","image-keyboard-response","469","1328034","0.0-19.0-2.13","c2_test",",","","","","."
"588.1200000005774","<p style=""color:white;""> Next Figure: Male or Female? </p>","190","html-keyboard-response","470","1328624","0.0-19.0-0.14","prediction","","","",".",""
"null","<div style=""color:white; font-size:60px;"">+</div>","null","html-keyboard-response","471","1329629","0.0-19.0-1.14","fixation","","","","",""
"753.9600000018254","Stimuli/Hangul_F24.bmp","188","image-keyboard-response","472","1330383","0.0-19.0-2.14","c2_test",".","","","",","
"471.2650000001304","<p style=""color:white;""> Next Figure: Male or Female? </p>","188","html-keyboard-response","473","1330855","0.0-19.0-0.15","prediction","","","",",",""
"null","<div style=""color:white; font-size:60px;"">+</div>","null","html-keyboard-response","474","1331859","0.0-19.0-1.15","fixation","","","","",""
"660.4950000036042","Stimuli/Hangul_F9.bmp","190","image-keyboard-response","475","1332520","0.0-19.0-2.15","c2_test",".","","","","."
"717.7050000028685","<p style=""color:white;""> Next Figure: Male or Female? </p>","190","html-keyboard-response","476","1333239","0.0-19.0-0.16","prediction","","","",".",""
"null","<div style=""color:white; font-size:60px;"">+</div>","null","html-keyboard-response","477","1334241","0.0-19.0-1.16","fixation","","","","",""
"853.1199999996461","Stimuli/Hangul_M16.bmp","188","image-keyboard-response","478","1335096","0.0-19.0-2.16","c2_test",",","","","",","
"838.8050000066869","<p style=""color:white;""> Next Figure: Male or Female? </p>","190","html-keyboard-response","479","1335935","0.0-19.0-0.17","prediction","","","",".",""
"null","<div style=""color:white; font-size:60px;"">+</div>","null","html-keyboard-response","480","1336941","0.0-19.0-1.17","fixation","","","","",""
"722.0450000022538","Stimuli/Hangul_M17.bmp","188","image-keyboard-response","481","1337664","0.0-19.0-2.17","c2_test",",","","","",","
"26784.1999999946","<p style=""color:white;""> Next Figure: Male or Female? </p>","188","html-keyboard-response","482","1364448","0.0-19.0-0.18","prediction","","","",",",""
"null","<div style=""color:white; font-size:60px;"">+</div>","null","html-keyboard-response","483","1365453","0.0-19.0-1.18","fixation","","","","",""
"848.7000000020489","Stimuli/Hangul_F23.bmp","190","image-keyboard-response","484","1366303","0.0-19.0-2.18","c2_test",".","","","","."
"543.024999991525","<p style=""color:white;""> Next Figure: Male or Female? </p>","190","html-keyboard-response","485","1366847","0.0-19.0-0.19","prediction","","","",".",""
"null","<div style=""color:white; font-size:60px;"">+</div>","null","html-keyboard-response","486","1367852","0.0-19.0-1.19","fixation","","","","",""
"721.3800000026822","Stimuli/Hangul_F10.bmp","190","image-keyboard-response","487","1368575","0.0-19.0-2.19","c2_test",".","","","","."
"718.7949999934062","<p style=""color:white;""> Next Figure: Male or Female? </p>","188","html-keyboard-response","488","1369295","0.0-19.0-0.20","prediction","","","",",",""
"null","<div style=""color:white; font-size:60px;"">+</div>","null","html-keyboard-response","489","1370299","0.0-19.0-1.20","fixation","","","","",""
"610.7250000059139","Stimuli/Hangul_M4.bmp","188","image-keyboard-response","490","1370910","0.0-19.0-2.20","c2_test",",","","","",","
"527.2950000069104","<p style=""color:white;""> Next Figure: Male or Female? </p>","188","html-keyboard-response","491","1371439","0.0-19.0-0.21","prediction","","","",",",""
"null","<div style=""color:white; font-size:60px;"">+</div>","null","html-keyboard-response","492","1372443","0.0-19.0-1.21","fixation","","","","",""
"851.4300000097137","Stimuli/Hangul_M6.bmp","190","image-keyboard-response","493","1373295","0.0-19.0-2.21","c2_test",",","","","","."
"774.875000002794","<p style=""color:white;""> Next Figure: Male or Female? </p>","188","html-keyboard-response","494","1374070","0.0-19.0-0.22","prediction","","","",",",""
"null","<div style=""color:white; font-size:60px;"">+</div>","null","html-keyboard-response","495","1375072","0.0-19.0-1.22","fixation","","","","",""
"790.2400000020862","Stimuli/Hangul_F11.bmp","190","image-keyboard-response","496","1375863","0.0-19.0-2.22","c2_test",".","","","","."
"518.5399999900255","<p style=""color:white;""> Next Figure: Male or Female? </p>","190","html-keyboard-response","497","1376382","0.0-19.0-0.23","prediction","","","",".",""
"null","<div style=""color:white; font-size:60px;"">+</div>","null","html-keyboard-response","498","1377387","0.0-19.0-1.23","fixation","","","","",""
"1090.2599999972153","Stimuli/Hangul_M9.bmp","188","image-keyboard-response","499","1378479","0.0-19.0-2.23","c2_test",",","","","",","
"486.3000000042375","<p style=""color:white;""> Next Figure: Male or Female? </p>","188","html-keyboard-response","500","1378966","0.0-19.0-0.24","prediction","","","",",",""
"null","<div style=""color:white; font-size:60px;"">+</div>","null","html-keyboard-response","501","1379968","0.0-19.0-1.24","fixation","","","","",""
"949.4850000047591","Stimuli/Hangul_M24.bmp","188","image-keyboard-response","502","1380919","0.0-19.0-2.24","c2_test",",","","","",","
"478.81000000052154","<p style=""color:white;""> Next Figure: Male or Female? </p>","188","html-keyboard-response","503","1381398","0.0-19.0-0.25","prediction","","","",",",""
"null","<div style=""color:white; font-size:60px;"">+</div>","null","html-keyboard-response","504","1382401","0.0-19.0-1.25","fixation","","","","",""
"740.7800000072457","Stimuli/Hangul_F21.bmp","190","image-keyboard-response","505","1383143","0.0-19.0-2.25","c2_test",".","","","","."
"566.8400000140537","<p style=""color:white;""> Next Figure: Male or Female? </p>","190","html-keyboard-response","506","1383710","0.0-19.0-0.26","prediction","","","",".",""
"null","<div style=""color:white; font-size:60px;"">+</div>","null","html-keyboard-response","507","1384714","0.0-19.0-1.26","fixation","","","","",""
"780.264999993844","Stimuli/Hangul_F0.bmp","190","image-keyboard-response","508","1385495","0.0-19.0-2.26","c2_test",".","","","","."
"991.0999999993946","<p style=""color:white;""> Next Figure: Male or Female? </p>","190","html-keyboard-response","509","1386487","0.0-19.0-0.27","prediction","","","",".",""
"null","<div style=""color:white; font-size:60px;"">+</div>","null","html-keyboard-response","510","1387490","0.0-19.0-1.27","fixation","","","","",""
"1026.2100000109058","Stimuli/Hangul_F22.bmp","188","image-keyboard-response","511","1388519","0.0-19.0-2.27","c2_test",".","","","",","
"12511.42999999877","<p style=""color:white;""> Next Figure: Male or Female? </p>","188","html-keyboard-response","512","1401031","0.0-19.0-0.28","prediction","","","",",",""
"null","<div style=""color:white; font-size:60px;"">+</div>","null","html-keyboard-response","513","1402034","0.0-19.0-1.28","fixation","","","","",""
"890.4149999872316","Stimuli/Hangul_M23.bmp","188","image-keyboard-response","514","1402926","0.0-19.0-2.28","c2_test",",","","","",","
"1014.8750000079162","<p style=""color:white;""> Next Figure: Male or Female? </p>","188","html-keyboard-response","515","1403942","0.0-19.0-0.29","prediction","","","",",",""
"null","<div style=""color:white; font-size:60px;"">+</div>","null","html-keyboard-response","516","1404946","0.0-19.0-1.29","fixation","","","","",""
"658.8449999981094","Stimuli/Hangul_M3.bmp","190","image-keyboard-response","517","1405606","0.0-19.0-2.29","c2_test",",","","","","."
"542.7750000089873","<p style=""color:white;""> Next Figure: Male or Female? </p>","190","html-keyboard-response","518","1406150","0.0-19.0-0.30","prediction","","","",".",""
"null","<div style=""color:white; font-size:60px;"">+</div>","null","html-keyboard-response","519","1407152","0.0-19.0-1.30","fixation","","","","",""
"1012.2549999940675","Stimuli/Hangul_F5.bmp","188","image-keyboard-response","520","1408166","0.0-19.0-2.30","c2_test",".","","","",","
"535.0650000036694","<p style=""color:white;""> Next Figure: Male or Female? </p>","188","html-keyboard-response","521","1408702","0.0-19.0-0.31","prediction","","","",",",""
"null","<div style=""color:white; font-size:60px;"">+</div>","null","html-keyboard-response","522","1409706","0.0-19.0-1.31","fixation","","","","",""
"1010.9399999929592","Stimuli/Hangul_F4.bmp","190","image-keyboard-response","523","1410718","0.0-19.0-2.31","c2_test",".","","","","."
"21535.88499999023","<p style=""color:white;""> Next Figure: Male or Female? </p>","188","html-keyboard-response","524","1432254","0.0-19.0-0.32","prediction","","","",",",""
"null","<div style=""color:white; font-size:60px;"">+</div>","null","html-keyboard-response","525","1433259","0.0-19.0-1.32","fixation","","","","",""
"617.5700000021607","Stimuli/Hangul_M11.bmp","188","image-keyboard-response","526","1433878","0.0-19.0-2.32","c2_test",",","","","",","
"622.5500000000466","<p style=""color:white;""> Next Figure: Male or Female? </p>","188","html-keyboard-response","527","1434501","0.0-19.0-0.33","prediction","","","",",",""
"null","<div style=""color:white; font-size:60px;"">+</div>","null","html-keyboard-response","528","1435506","0.0-19.0-1.33","fixation","","","","",""
"490.130000005709","Stimuli/Hangul_F14.bmp","190","image-keyboard-response","529","1435997","0.0-19.0-2.33","c2_test",".","","","","."
"550.5800000100862","<p style=""color:white;""> Next Figure: Male or Female? </p>","188","html-keyboard-response","530","1436549","0.0-19.0-0.34","prediction","","","",",",""
"null","<div style=""color:white; font-size:60px;"">+</div>","null","html-keyboard-response","531","1437552","0.0-19.0-1.34","fixation","","","","",""
"693.1500000064261","Stimuli/Hangul_F16.bmp","190","image-keyboard-response","532","1438245","0.0-19.0-2.34","c2_test",".","","","","."
"526.4500000048429","<p style=""color:white;""> Next Figure: Male or Female? </p>","190","html-keyboard-response","533","1438773","0.0-19.0-0.35","prediction","","","",".",""
"null","<div style=""color:white; font-size:60px;"">+</div>","null","html-keyboard-response","534","1439776","0.0-19.0-1.35","fixation","","","","",""
"996.2899999956135","Stimuli/Hangul_M13.bmp","190","image-keyboard-response","535","1440773","0.0-19.0-2.35","c2_test",",","","","","."
"551.0400000056252","<p style=""color:white;""> Next Figure: Male or Female? </p>","188","html-keyboard-response","536","1441325","0.0-19.0-0.36","prediction","","","",",",""
"null","<div style=""color:white; font-size:60px;"">+</div>","null","html-keyboard-response","537","1442329","0.0-19.0-1.36","fixation","","","","",""
"828.439999997383","Stimuli/Hangul_F18.bmp","190","image-keyboard-response","538","1443158","0.0-19.0-2.36","c2_test",".","","","","."
"742.6050000067335","<p style=""color:white;""> Next Figure: Male or Female? </p>","188","html-keyboard-response","539","1443901","0.0-19.0-0.37","prediction","","","",",",""
"null","<div style=""color:white; font-size:60px;"">+</div>","null","html-keyboard-response","540","1444904","0.0-19.0-1.37","fixation","","","","",""
"788.2050000042655","Stimuli/Hangul_M2.bmp","188","image-keyboard-response","541","1445693","0.0-19.0-2.37","c2_test",",","","","",","
"382.80500000109896","<p style=""color:white;""> Next Figure: Male or Female? </p>","188","html-keyboard-response","542","1446077","0.0-19.0-0.38","prediction","","","",",",""
"null","<div style=""color:white; font-size:60px;"">+</div>","null","html-keyboard-response","543","1447078","0.0-19.0-1.38","fixation","","","","",""
"1277.900000001071","Stimuli/Hangul_M19.bmp","190","image-keyboard-response","544","1448357","0.0-19.0-2.38","c2_test",",","","","","."
"615.3350000095088","<p style=""color:white;""> Next Figure: Male or Female? </p>","190","html-keyboard-response","545","1448973","0.0-19.0-0.39","prediction","","","",".",""
"null","<div style=""color:white; font-size:60px;"">+</div>","null","html-keyboard-response","546","1449975","0.0-19.0-1.39","fixation","","","","",""
"708.9249999988824","Stimuli/Hangul_F2.bmp","190","image-keyboard-response","547","1450685","0.0-19.0-2.39","c2_test",".","","","","."
"717.9150000012014","<p style=""color:white;""> Next Figure: Male or Female? </p>","190","html-keyboard-response","548","1451405","0.0-19.0-0.40","prediction","","","",".",""
"null","<div style=""color:white; font-size:60px;"">+</div>","null","html-keyboard-response","549","1452409","0.0-19.0-1.40","fixation","","","","",""
"843.7300000076648","Stimuli/Hangul_F15.bmp","188","image-keyboard-response","550","1453253","0.0-19.0-2.40","c2_test",".","","","",","
"622.3400000017136","<p style=""color:white;""> Next Figure: Male or Female? </p>","188","html-keyboard-response","551","1453877","0.0-19.0-0.41","prediction","","","",",",""
"null","<div style=""color:white; font-size:60px;"">+</div>","null","html-keyboard-response","552","1454878","0.0-19.0-1.41","fixation","","","","",""
"814.3100000016857","Stimuli/Hangul_F12.bmp","190","image-keyboard-response","553","1455693","0.0-19.0-2.41","c2_test",".","","","","."
"718.4899999992922","<p style=""color:white;""> Next Figure: Male or Female? </p>","190","html-keyboard-response","554","1456413","0.0-19.0-0.42","prediction","","","",".",""
"null","<div style=""color:white; font-size:60px;"">+</div>","null","html-keyboard-response","555","1457416","0.0-19.0-1.42","fixation","","","","",""
"667.3750000046566","Stimuli/Hangul_M0.bmp","190","image-keyboard-response","556","1458085","0.0-19.0-2.42","c2_test",",","","","","."
"11343.525000003865","<p style=""color:white;""> Next Figure: Male or Female? </p>","188","html-keyboard-response","557","1469429","0.0-19.0-0.43","prediction","","","",",",""
"null","<div style=""color:white; font-size:60px;"">+</div>","null","html-keyboard-response","558","1470434","0.0-19.0-1.43","fixation","","","","",""
"880.5199999914039","Stimuli/Hangul_M18.bmp","188","image-keyboard-response","559","1471316","0.0-19.0-2.43","c2_test",",","","","",","
"454.17999998596497","<p style=""color:white;""> Next Figure: Male or Female? </p>","188","html-keyboard-response","560","1471772","0.0-19.0-0.44","prediction","","","",",",""
"null","<div style=""color:white; font-size:60px;"">+</div>","null","html-keyboard-response","561","1472777","0.0-19.0-1.44","fixation","","","","",""
"1122.044999996433","Stimuli/Hangul_M22.bmp","188","image-keyboard-response","562","1473900","0.0-19.0-2.44","c2_test",",","","","",","
"342.9750000068452","<p style=""color:white;""> Next Figure: Male or Female? </p>","188","html-keyboard-response","563","1474244","0.0-19.0-0.45","prediction","","","",",",""
"null","<div style=""color:white; font-size:60px;"">+</div>","null","html-keyboard-response","564","1475250","0.0-19.0-1.45","fixation","","","","",""
"537.9650000105612","Stimuli/Hangul_M5.bmp","188","image-keyboard-response","565","1475789","0.0-19.0-2.45","c2_test",",","","","",","
"423.8000000040047","<p style=""color:white;""> Next Figure: Male or Female? </p>","188","html-keyboard-response","566","1476213","0.0-19.0-0.46","prediction","","","",",",""
"null","<div style=""color:white; font-size:60px;"">+</div>","null","html-keyboard-response","567","1477218","0.0-19.0-1.46","fixation","","","","",""
"641.0699999977369","Stimuli/Hangul_M15.bmp","190","image-keyboard-response","568","1477860","0.0-19.0-2.46","c2_test",",","","","","."
"399.07500000833534","<p style=""color:white;""> Next Figure: Male or Female? </p>","190","html-keyboard-response","569","1478260","0.0-19.0-0.47","prediction","","","",".",""
"null","<div style=""color:white; font-size:60px;"">+</div>","null","html-keyboard-response","570","1479264","0.0-19.0-1.47","fixation","","","","",""
"715.4699999955483","Stimuli/Hangul_F7.bmp","190","image-keyboard-response","571","1479980","0.0-19.0-2.47","c2_test",".","","","","."
"390.9300000087824","<p style=""color:white;""> Next Figure: Male or Female? </p>","190","html-keyboard-response","572","1480372","0.0-19.0-0.48","prediction","","","",".",""
"null","<div style=""color:white; font-size:60px;"">+</div>","null","html-keyboard-response","573","1481377","0.0-19.0-1.48","fixation","","","","",""
"898.0799999989104","Stimuli/Hangul_M14.bmp","188","image-keyboard-response","574","1482276","0.0-19.0-2.48","c2_test",",","","","",","
"1095.0649999866728","<p style=""color:white;""> Next Figure: Male or Female? </p>","188","html-keyboard-response","575","1483372","0.0-19.0-0.49","prediction","","","",",",""
"null","<div style=""color:white; font-size:60px;"">+</div>","null","html-keyboard-response","576","1484378","0.0-19.0-1.49","fixation","","","","",""
"889.4750000033528","Stimuli/Hangul_M21.bmp","188","image-keyboard-response","577","1485268","0.0-19.0-2.49","c2_test",",","","","",","
"122264.47000000905","<p style=""color:white;"">Good job, block 1 complete! Please take a moment to rest.</p> <p style=""color:white;"">When you are ready to continue with block 2 of 4, press the space bar.</p> ","32","html-keyboard-response","578","1607531","0.0-20.0","","","","","",""
"801.7699999907054","<p style=""color:white;""> Next Figure: Male or Female? </p>","188","html-keyboard-response","579","1610337","0.0-21.0-0.0","prediction","","","",",",""
"null","<div style=""color:white; font-size:60px;"">+</div>","null","html-keyboard-response","580","1611340","0.0-21.0-1.0","fixation","","","","",""
"891.990000003716","Stimuli/Hangul_F38.bmp","190","image-keyboard-response","581","1612233","0.0-21.0-2.0","c2_test",".","","","","."
"2135.0450000027195","<p style=""color:white;""> Next Figure: Male or Female? </p>","188","html-keyboard-response","582","1614369","0.0-21.0-0.1","prediction","","","",",",""
"null","<div style=""color:white; font-size:60px;"">+</div>","null","html-keyboard-response","583","1615375","0.0-21.0-1.1","fixation","","","","",""
"1249.7899999869987","Stimuli/Hangul_M26.bmp","188","image-keyboard-response","584","1616626","0.0-21.0-2.1","c2_test",",","","","",","
"1526.9700000062585","<p style=""color:white;""> Next Figure: Male or Female? </p>","188","html-keyboard-response","585","1618154","0.0-21.0-0.2","prediction","","","",",",""
"null","<div style=""color:white; font-size:60px;"">+</div>","null","html-keyboard-response","586","1619155","0.0-21.0-1.2","fixation","","","","",""
"756.9850000001024","Stimuli/Hangul_F47.bmp","190","image-keyboard-response","587","1619913","0.0-21.0-2.2","c2_test",".","","","","."
"734.47999999905","<p style=""color:white;""> Next Figure: Male or Female? </p>","188","html-keyboard-response","588","1620649","0.0-21.0-0.3","prediction","","","",",",""
"null","<div style=""color:white; font-size:60px;"">+</div>","null","html-keyboard-response","589","1621652","0.0-21.0-1.3","fixation","","","","",""
"1435.2899999939837","Stimuli/Hangul_F36.bmp","188","image-keyboard-response","590","1623089","0.0-21.0-2.3","c2_test",".","","","",","
"742.9899999988265","<p style=""color:white;""> Next Figure: Male or Female? </p>","188","html-keyboard-response","591","1623833","0.0-21.0-0.4","prediction","","","",",",""
"null","<div style=""color:white; font-size:60px;"">+</div>","null","html-keyboard-response","592","1624835","0.0-21.0-1.4","fixation","","","","",""
"1157.405000005383","Stimuli/Hangul_F27.bmp","188","image-keyboard-response","593","1625993","0.0-21.0-2.4","c2_test",".","","","",","
"1422.5799999986775","<p style=""color:white;""> Next Figure: Male or Female? </p>","188","html-keyboard-response","594","1627417","0.0-21.0-0.5","prediction","","","",",",""
"null","<div style=""color:white; font-size:60px;"">+</div>","null","html-keyboard-response","595","1628422","0.0-21.0-1.5","fixation","","","","",""
"986.1300000047777","Stimuli/Hangul_M30.bmp","188","image-keyboard-response","596","1629409","0.0-21.0-2.5","c2_test",",","","","",","
"694.9199999943376","<p style=""color:white;""> Next Figure: Male or Female? </p>","188","html-keyboard-response","597","1630105","0.0-21.0-0.6","prediction","","","",",",""
"null","<div style=""color:white; font-size:60px;"">+</div>","null","html-keyboard-response","598","1631110","0.0-21.0-1.6","fixation","","","","",""
"738.1900000036694","Stimuli/Hangul_M41.bmp","190","image-keyboard-response","599","1631849","0.0-21.0-2.6","c2_test",",","","","","."
"1119.1549999932759","<p style=""color:white;""> Next Figure: Male or Female? </p>","190","html-keyboard-response","600","1632969","0.0-21.0-0.7","prediction","","","",".",""
"null","<div style=""color:white; font-size:60px;"">+</div>","null","html-keyboard-response","601","1633971","0.0-21.0-1.7","fixation","","","","",""
"869.2900000023656","Stimuli/Hangul_M27.bmp","188","image-keyboard-response","602","1634841","0.0-21.0-2.7","c2_test",",","","","",","
"1102.2200000006706","<p style=""color:white;""> Next Figure: Male or Female? </p>","188","html-keyboard-response","603","1635945","0.0-21.0-0.8","prediction","","","",",",""
"null","<div style=""color:white; font-size:60px;"">+</div>","null","html-keyboard-response","604","1636949","0.0-21.0-1.8","fixation","","","","",""
"1010.4349999891128","Stimuli/Hangul_F29.bmp","190","image-keyboard-response","605","1637961","0.0-21.0-2.8","c2_test",".","","","","."
"1262.8200000035577","<p style=""color:white;""> Next Figure: Male or Female? </p>","188","html-keyboard-response","606","1639225","0.0-21.0-0.9","prediction","","","",",",""
"null","<div style=""color:white; font-size:60px;"">+</div>","null","html-keyboard-response","607","1640230","0.0-21.0-1.9","fixation","","","","",""
"753.8449999992736","Stimuli/Hangul_F40.bmp","190","image-keyboard-response","608","1640985","0.0-21.0-2.9","c2_test",".","","","","."
"2150.584999995772","<p style=""color:white;""> Next Figure: Male or Female? </p>","188","html-keyboard-response","609","1643136","0.0-21.0-0.10","prediction","","","",",",""
"null","<div style=""color:white; font-size:60px;"">+</div>","null","html-keyboard-response","610","1644141","0.0-21.0-1.10","fixation","","","","",""
"914.214999997057","Stimuli/Hangul_F25.bmp","188","image-keyboard-response","611","1645057","0.0-21.0-2.10","c2_test",".","","","",","
"1006.7449999917299","<p style=""color:white;""> Next Figure: Male or Female? </p>","188","html-keyboard-response","612","1646064","0.0-21.0-0.11","prediction","","","",",",""
"null","<div style=""color:white; font-size:60px;"">+</div>","null","html-keyboard-response","613","1647067","0.0-21.0-1.11","fixation","","","","",""
"1060.2450000005774","Stimuli/Hangul_F45.bmp","188","image-keyboard-response","614","1648128","0.0-21.0-2.11","c2_test",".","","","",","
"742.7900000039954","<p style=""color:white;""> Next Figure: Male or Female? </p>","188","html-keyboard-response","615","1648872","0.0-21.0-0.12","prediction","","","",",",""
"null","<div style=""color:white; font-size:60px;"">+</div>","null","html-keyboard-response","616","1649874","0.0-21.0-1.12","fixation","","","","",""
"740.919999996433","Stimuli/Hangul_F35.bmp","190","image-keyboard-response","617","1650617","0.0-21.0-2.12","c2_test",".","","","","."
"751.0550000006333","<p style=""color:white;""> Next Figure: Male or Female? </p>","190","html-keyboard-response","618","1651369","0.0-21.0-0.13","prediction","","","",".",""
"null","<div style=""color:white; font-size:60px;"">+</div>","null","html-keyboard-response","619","1652373","0.0-21.0-1.13","fixation","","","","",""
"1242.879999990575","Stimuli/Hangul_M48.bmp","190","image-keyboard-response","620","1653617","0.0-21.0-2.13","c2_test",",","","","","."
"6638.709999999264","<p style=""color:white;""> Next Figure: Male or Female? </p>","188","html-keyboard-response","621","1660256","0.0-21.0-0.14","prediction","","","",",",""
"null","<div style=""color:white; font-size:60px;"">+</div>","null","html-keyboard-response","622","1661261","0.0-21.0-1.14","fixation","","","","",""
"1633.5600000021514","Stimuli/Hangul_M43.bmp","190","image-keyboard-response","623","1662896","0.0-21.0-2.14","c2_test",",","","","","."
"3576.290000011679","<p style=""color:white;""> Next Figure: Male or Female? </p>","188","html-keyboard-response","624","1666473","0.0-21.0-0.15","prediction","","","",",",""
"null","<div style=""color:white; font-size:60px;"">+</div>","null","html-keyboard-response","625","1667476","0.0-21.0-1.15","fixation","","","","",""
"851.1699999943376","Stimuli/Hangul_M46.bmp","190","image-keyboard-response","626","1668328","0.0-21.0-2.15","c2_test",",","","","","."
"1494.7749999992084","<p style=""color:white;""> Next Figure: Male or Female? </p>","190","html-keyboard-response","627","1669824","0.0-21.0-0.16","prediction","","","",".",""
"null","<div style=""color:white; font-size:60px;"">+</div>","null","html-keyboard-response","628","1670828","0.0-21.0-1.16","fixation","","","","",""
"1043.300000004936","Stimuli/Hangul_F32.bmp","190","image-keyboard-response","629","1671872","0.0-21.0-2.16","c2_test",".","","","","."
"2679.879999996163","<p style=""color:white;""> Next Figure: Male or Female? </p>","188","html-keyboard-response","630","1674552","0.0-21.0-0.17","prediction","","","",",",""
"null","<div style=""color:white; font-size:60px;"">+</div>","null","html-keyboard-response","631","1675557","0.0-21.0-1.17","fixation","","","","",""
"769.6750000030734","Stimuli/Hangul_F46.bmp","188","image-keyboard-response","632","1676328","0.0-21.0-2.17","c2_test",".","","","",","
"702.9349999940023","<p style=""color:white;""> Next Figure: Male or Female? </p>","188","html-keyboard-response","633","1677032","0.0-21.0-0.18","prediction","","","",",",""
"null","<div style=""color:white; font-size:60px;"">+</div>","null","html-keyboard-response","634","1678036","0.0-21.0-1.18","fixation","","","","",""
"683.2149999975227","Stimuli/Hangul_F34.bmp","190","image-keyboard-response","635","1678720","0.0-21.0-2.18","c2_test",".","","","","."
"2414.764999994077","<p style=""color:white;""> Next Figure: Male or Female? </p>","188","html-keyboard-response","636","1681136","0.0-21.0-0.19","prediction","","","",",",""
"null","<div style=""color:white; font-size:60px;"">+</div>","null","html-keyboard-response","637","1682140","0.0-21.0-1.19","fixation","","","","",""
"818.2649999943096","Stimuli/Hangul_M31.bmp","188","image-keyboard-response","638","1682959","0.0-21.0-2.19","c2_test",",","","","",","
"991.3700000033714","<p style=""color:white;""> Next Figure: Male or Female? </p>","188","html-keyboard-response","639","1683952","0.0-21.0-0.20","prediction","","","",",",""
"null","<div style=""color:white; font-size:60px;"">+</div>","null","html-keyboard-response","640","1684957","0.0-21.0-1.20","fixation","","","","",""
"682.4150000028312","Stimuli/Hangul_F39.bmp","190","image-keyboard-response","641","1685640","0.0-21.0-2.20","c2_test",".","","","","."
"1494.5250000017695","<p style=""color:white;""> Next Figure: Male or Female? </p>","188","html-keyboard-response","642","1687135","0.0-21.0-0.21","prediction","","","",",",""
"null","<div style=""color:white; font-size:60px;"">+</div>","null","html-keyboard-response","643","1688139","0.0-21.0-1.21","fixation","","","","",""
"1763.9599999967031","Stimuli/Hangul_M38.bmp","190","image-keyboard-response","644","1689903","0.0-21.0-2.21","c2_test",",","","","","."
"1470.894999991404","<p style=""color:white;""> Next Figure: Male or Female? </p>","188","html-keyboard-response","645","1691375","0.0-21.0-0.22","prediction","","","",",",""
"null","<div style=""color:white; font-size:60px;"">+</div>","null","html-keyboard-response","646","1692380","0.0-21.0-1.22","fixation","","","","",""
"994.5399999995716","Stimuli/Hangul_M44.bmp","190","image-keyboard-response","647","1693375","0.0-21.0-2.22","c2_test",",","","","","."
"831.2799999983981","<p style=""color:white;""> Next Figure: Male or Female? </p>","190","html-keyboard-response","648","1694207","0.0-21.0-0.23","prediction","","","",".",""
"null","<div style=""color:white; font-size:60px;"">+</div>","null","html-keyboard-response","649","1695208","0.0-21.0-1.23","fixation","","","","",""
"678.5249999957159","Stimuli/Hangul_F30.bmp","190","image-keyboard-response","650","1695888","0.0-21.0-2.23","c2_test",".","","","","."
"590.8000000054017","<p style=""color:white;""> Next Figure: Male or Female? </p>","190","html-keyboard-response","651","1696479","0.0-21.0-0.24","prediction","","","",".",""
"null","<div style=""color:white; font-size:60px;"">+</div>","null","html-keyboard-response","652","1697483","0.0-21.0-1.24","fixation","","","","",""
"627.7899999986403","Stimuli/Hangul_M33.bmp","188","image-keyboard-response","653","1698111","0.0-21.0-2.24","c2_test",",","","","",","
"950.854999988107","<p style=""color:white;""> Next Figure: Male or Female? </p>","188","html-keyboard-response","654","1699063","0.0-21.0-0.25","prediction","","","",",",""
"null","<div style=""color:white; font-size:60px;"">+</div>","null","html-keyboard-response","655","1700064","0.0-21.0-1.25","fixation","","","","",""
