"rt","stimulus","key_press","trial_type","trial_index","time_elapsed","internal_node_id","test_part","correct_response","C1_train","C1","A","C2"
"3528.374999994412","<p style=""color:white;"">Welcome to the experiment! Press any key to begin.</p>","77","html-keyboard-response","0","3546","0.0-0.0","","","","","",""
"53306.49999999878","<p style=""color:white;"">You will see a series of abstract figures. They are adaptations of signs in the Korean alphabet, but that is not important for this study. </p><p style=""color:white;"">Abstract figures sometimes have a more masculine or feminine shape. Here, each figure has already been assigned a gender as <q>Male</q> or <q>Female</q> by a panel of respondents in a pilot study. The respondents were not given specific instructions on how to do this, but were only told to use their intuition and to take into account the entire configuration of the stimulus. </p><p style=""color:white;"">Your task now is to guess the assigned gender of each figure. Please press the corresponding response keys to indicate your choice: </p><p style=""color:white;""> Male &#8594 <q>,</q> (comma)</p><p style=""color:white;""> Female &#8594 <q>.</q> (period)</p><p style=""color:white;"">Press either response keys to continue.</p>","188","html-keyboard-response","1","56856","0.0-1.0","","","","","",""
"24586.224999999104","<p style=""color:white;"">Your choice is correct if it matches the gender assigned by the majority of respondents in the pilot study.</p> <p style=""color:white;"">For each correct choice you will receive 2 cents. There will be 200 trials divided into 4 blocks of 50 trials. You will be able to take a break after every 50 trials.</p> <p style=""color:white;"">Press the space bar to continue.</p>","32","html-keyboard-response","2","81445","0.0-2.0","","","","","",""
"14556.684999995923","<p style=""color:white;"">Here are some examples.</p> <p style=""color:white;"">For each, guess whether the assigned figure is male-like or female-like and indicate your choice by pressing either response keys.</p> <p style=""color:white;"">Press the space bar to continue.</p>","32","html-keyboard-response","3","96003","0.0-3.0","","","","","",""
"null","<div style=""color:white; font-size:60px;"">+</div>","null","html-keyboard-response","4","99009","0.0-4.0-0.0","fixation","","","","",""
"4245.539999996254","Stimuli/Hangul_E0.bmp","188","image-keyboard-response","5","103258","0.0-4.0-1.0","c1_train",",",",","","",""
"null","<div style=""color:white; font-size:60px;"">+</div>","null","html-keyboard-response","6","104261","0.0-4.0-0.1","fixation","","","","",""
"721.6350000016973","Stimuli/Hangul_E1.bmp","190","image-keyboard-response","7","104984","0.0-4.0-1.1","c1_train",",",".","","",""
"null","<div style=""color:white; font-size:60px;"">+</div>","null","html-keyboard-response","8","105986","0.0-4.0-0.2","fixation","","","","",""
"1035.070000005362","Stimuli/Hangul_E2.bmp","188","image-keyboard-response","9","107023","0.0-4.0-1.2","c1_train",".",",","","",""
"4199.659999998403","<p style=""color:white;"">Let us begin! Press the space bar when you are ready to start block 1 of 4.</p> ","32","html-keyboard-response","10","111224","0.0-5.0","","","","","",""
"null","<div style=""color:white; font-size:60px;"">+</div>","null","html-keyboard-response","11","114226","0.0-6.0-0.0","fixation","","","","",""
"6753.925000004529","Stimuli/Hangul_M3.bmp","188","image-keyboard-response","12","120982","0.0-6.0-1.0","test",",","",",","",""
"null","<div style=""color:white; font-size:60px;"">+</div>","null","html-keyboard-response","13","121985","0.0-6.0-0.1","fixation","","","","",""
"3435.554999996384","Stimuli/Hangul_M13.bmp","190","image-keyboard-response","14","125423","0.0-6.0-1.1","test",",","",".","",""
"null","<div style=""color:white; font-size:60px;"">+</div>","null","html-keyboard-response","15","126425","0.0-6.0-0.2","fixation","","","","",""
"5142.595000004803","Stimuli/Hangul_F3.bmp","190","image-keyboard-response","16","131570","0.0-6.0-1.2","test",".","",".","",""
"null","<div style=""color:white; font-size:60px;"">+</div>","null","html-keyboard-response","17","132573","0.0-6.0-0.3","fixation","","","","",""
"4510.674999997718","Stimuli/Hangul_M12.bmp","188","image-keyboard-response","18","137086","0.0-6.0-1.3","test",",","",",","",""
"null","<div style=""color:white; font-size:60px;"">+</div>","null","html-keyboard-response","19","138088","0.0-6.0-0.4","fixation","","","","",""
"7206.524999994144","Stimuli/Hangul_F21.bmp","190","image-keyboard-response","20","145297","0.0-6.0-1.4","test",".","",".","",""
"null","<div style=""color:white; font-size:60px;"">+</div>","null","html-keyboard-response","21","146301","0.0-6.0-0.5","fixation","","","","",""
"10565.314999999828","Stimuli/Hangul_M22.bmp","188","image-keyboard-response","22","156868","0.0-6.0-1.5","test",",","",",","",""
"null","<div style=""color:white; font-size:60px;"">+</div>","null","html-keyboard-response","23","157870","0.0-6.0-0.6","fixation","","","","",""
"6744.614999995974","Stimuli/Hangul_M7.bmp","188","image-keyboard-response","24","164618","0.0-6.0-1.6","test",",","",",","",""
"null","<div style=""color:white; font-size:60px;"">+</div>","null","html-keyboard-response","25","165621","0.0-6.0-0.7","fixation","","","","",""
"162.16999999596737","Stimuli/Hangul_F9.bmp","188","image-keyboard-response","26","165785","0.0-6.0-1.7","test",".","",",","",""
"null","<div style=""color:white; font-size:60px;"">+</div>","null","html-keyboard-response","27","166787","0.0-6.0-0.8","fixation","","","","",""
"4430.5549999990035","Stimuli/Hangul_F22.bmp","190","image-keyboard-response","28","171219","0.0-6.0-1.8","test",".","",".","",""
"null","<div style=""color:white; font-size:60px;"">+</div>","null","html-keyboard-response","29","172220","0.0-6.0-0.9","fixation","","","","",""
"4829.630000000179","Stimuli/Hangul_F7.bmp","190","image-keyboard-response","30","177052","0.0-6.0-1.9","test",".","",".","",""
"null","<div style=""color:white; font-size:60px;"">+</div>","null","html-keyboard-response","31","178054","0.0-6.0-0.10","fixation","","","","",""
"2914.199999999255","Stimuli/Hangul_F13.bmp","188","image-keyboard-response","32","180970","0.0-6.0-1.10","test",".","",",","",""
"null","<div style=""color:white; font-size:60px;"">+</div>","null","html-keyboard-response","33","181972","0.0-6.0-0.11","fixation","","","","",""
"1295.2750000040396","Stimuli/Hangul_F24.bmp","188","image-keyboard-response","34","183269","0.0-6.0-1.11","test",".","",",","",""
"null","<div style=""color:white; font-size:60px;"">+</div>","null","html-keyboard-response","35","184271","0.0-6.0-0.12","fixation","","","","",""
"793.0800000031013","Stimuli/Hangul_M10.bmp","188","image-keyboard-response","36","185066","0.0-6.0-1.12","test",",","",",","",""
"null","<div style=""color:white; font-size:60px;"">+</div>","null","html-keyboard-response","37","186068","0.0-6.0-0.13","fixation","","","","",""
"505.7200000010198","Stimuli/Hangul_M8.bmp","188","image-keyboard-response","38","186576","0.0-6.0-1.13","test",",","",",","",""
"null","<div style=""color:white; font-size:60px;"">+</div>","null","html-keyboard-response","39","187577","0.0-6.0-0.14","fixation","","","","",""
"1147.9749999998603","Stimuli/Hangul_F11.bmp","188","image-keyboard-response","40","188728","0.0-6.0-1.14","test",".","",",","",""
"null","<div style=""color:white; font-size:60px;"">+</div>","null","html-keyboard-response","41","189730","0.0-6.0-0.15","fixation","","","","",""
"7047.874999996566","Stimuli/Hangul_M9.bmp","188","image-keyboard-response","42","196779","0.0-6.0-1.15","test",",","",",","",""
"null","<div style=""color:white; font-size:60px;"">+</div>","null","html-keyboard-response","43","197781","0.0-6.0-0.16","fixation","","","","",""
"948.7550000048941","Stimuli/Hangul_F4.bmp","188","image-keyboard-response","44","198732","0.0-6.0-1.16","test",".","",",","",""
"null","<div style=""color:white; font-size:60px;"">+</div>","null","html-keyboard-response","45","199735","0.0-6.0-0.17","fixation","","","","",""
"676.2799999996787","Stimuli/Hangul_M15.bmp","190","image-keyboard-response","46","200412","0.0-6.0-1.17","test",",","",".","",""
"null","<div style=""color:white; font-size:60px;"">+</div>","null","html-keyboard-response","47","201418","0.0-6.0-0.18","fixation","","","","",""
"997.1799999984796","Stimuli/Hangul_F8.bmp","190","image-keyboard-response","48","202416","0.0-6.0-1.18","test",".","",".","",""
"null","<div style=""color:white; font-size:60px;"">+</div>","null","html-keyboard-response","49","203418","0.0-6.0-0.19","fixation","","","","",""
"1846.5849999993225","Stimuli/Hangul_F5.bmp","188","image-keyboard-response","50","205266","0.0-6.0-1.19","test",".","",",","",""
"null","<div style=""color:white; font-size:60px;"">+</div>","null","html-keyboard-response","51","206269","0.0-6.0-0.20","fixation","","","","",""
"473.5499999951571","Stimuli/Hangul_F12.bmp","188","image-keyboard-response","52","206744","0.0-6.0-1.20","test",".","",",","",""
"null","<div style=""color:white; font-size:60px;"">+</div>","null","html-keyboard-response","53","207746","0.0-6.0-0.21","fixation","","","","",""
"715.3350000007777","Stimuli/Hangul_F2.bmp","188","image-keyboard-response","54","208464","0.0-6.0-1.21","test",".","",",","",""
"null","<div style=""color:white; font-size:60px;"">+</div>","null","html-keyboard-response","55","209469","0.0-6.0-0.22","fixation","","","","",""
"589.8300000044401","Stimuli/Hangul_F20.bmp","188","image-keyboard-response","56","210060","0.0-6.0-1.22","test",".","",",","",""
"null","<div style=""color:white; font-size:60px;"">+</div>","null","html-keyboard-response","57","211063","0.0-6.0-0.23","fixation","","","","",""
"427.335000000312","Stimuli/Hangul_M20.bmp","190","image-keyboard-response","58","211492","0.0-6.0-1.23","test",",","",".","",""
"null","<div style=""color:white; font-size:60px;"">+</div>","null","html-keyboard-response","59","212494","0.0-6.0-0.24","fixation","","","","",""
"340.63000000605825","Stimuli/Hangul_F16.bmp","190","image-keyboard-response","60","212836","0.0-6.0-1.24","test",".","",".","",""
"null","<div style=""color:white; font-size:60px;"">+</div>","null","html-keyboard-response","61","213839","0.0-6.0-0.25","fixation","","","","",""
"329.2550000041956","Stimuli/Hangul_M5.bmp","190","image-keyboard-response","62","214171","0.0-6.0-1.25","test",",","",".","",""
"null","<div style=""color:white; font-size:60px;"">+</div>","null","html-keyboard-response","63","215174","0.0-6.0-0.26","fixation","","","","",""
"365.2799999981653","Stimuli/Hangul_M24.bmp","190","image-keyboard-response","64","215541","0.0-6.0-1.26","test",",","",".","",""
"null","<div style=""color:white; font-size:60px;"">+</div>","null","html-keyboard-response","65","216543","0.0-6.0-0.27","fixation","","","","",""
"195.9500000011758","Stimuli/Hangul_F23.bmp","188","image-keyboard-response","66","216741","0.0-6.0-1.27","test",".","",",","",""
"null","<div style=""color:white; font-size:60px;"">+</div>","null","html-keyboard-response","67","217743","0.0-6.0-0.28","fixation","","","","",""
"303.7599999952363","Stimuli/Hangul_F6.bmp","188","image-keyboard-response","68","218048","0.0-6.0-1.28","test",".","",",","",""
"null","<div style=""color:white; font-size:60px;"">+</div>","null","html-keyboard-response","69","219053","0.0-6.0-0.29","fixation","","","","",""
"339.58500000153435","Stimuli/Hangul_M0.bmp","188","image-keyboard-response","70","219394","0.0-6.0-1.29","test",",","",",","",""
"null","<div style=""color:white; font-size:60px;"">+</div>","null","html-keyboard-response","71","220395","0.0-6.0-0.30","fixation","","","","",""
"395.7200000004377","Stimuli/Hangul_F14.bmp","188","image-keyboard-response","72","220793","0.0-6.0-1.30","test",".","",",","",""
"null","<div style=""color:white; font-size:60px;"">+</div>","null","html-keyboard-response","73","221794","0.0-6.0-0.31","fixation","","","","",""
"12909.134999994421","Stimuli/Hangul_F19.bmp","188","image-keyboard-response","74","234704","0.0-6.0-1.31","test",".","",",","",""
"null","<div style=""color:white; font-size:60px;"">+</div>","null","html-keyboard-response","75","235705","0.0-6.0-0.32","fixation","","","","",""
"880.2549999963958","Stimuli/Hangul_M4.bmp","188","image-keyboard-response","76","236587","0.0-6.0-1.32","test",",","",",","",""
"null","<div style=""color:white; font-size:60px;"">+</div>","null","html-keyboard-response","77","237589","0.0-6.0-0.33","fixation","","","","",""
"694.2899999994552","Stimuli/Hangul_M18.bmp","190","image-keyboard-response","78","238285","0.0-6.0-1.33","test",",","",".","",""
"null","<div style=""color:white; font-size:60px;"">+</div>","null","html-keyboard-response","79","239286","0.0-6.0-0.34","fixation","","","","",""
"520.8799999963958","Stimuli/Hangul_F0.bmp","190","image-keyboard-response","80","239809","0.0-6.0-1.34","test",".","",".","",""
"null","<div style=""color:white; font-size:60px;"">+</div>","null","html-keyboard-response","81","240810","0.0-6.0-0.35","fixation","","","","",""
"526.705000003858","Stimuli/Hangul_F15.bmp","190","image-keyboard-response","82","241338","0.0-6.0-1.35","test",".","",".","",""
"null","<div style=""color:white; font-size:60px;"">+</div>","null","html-keyboard-response","83","242341","0.0-6.0-0.36","fixation","","","","",""
"584.1050000017276","Stimuli/Hangul_M1.bmp","190","image-keyboard-response","84","242927","0.0-6.0-1.36","test",",","",".","",""
"null","<div style=""color:white; font-size:60px;"">+</div>","null","html-keyboard-response","85","243929","0.0-6.0-0.37","fixation","","","","",""
"1031.1899999942398","Stimuli/Hangul_M23.bmp","188","image-keyboard-response","86","244961","0.0-6.0-1.37","test",",","",",","",""
"null","<div style=""color:white; font-size:60px;"">+</div>","null","html-keyboard-response","87","245963","0.0-6.0-0.38","fixation","","","","",""
"411.9550000032177","Stimuli/Hangul_F18.bmp","188","image-keyboard-response","88","246376","0.0-6.0-1.38","test",".","",",","",""
"null","<div style=""color:white; font-size:60px;"">+</div>","null","html-keyboard-response","89","247379","0.0-6.0-0.39","fixation","","","","",""
"325.94999999855645","Stimuli/Hangul_M17.bmp","188","image-keyboard-response","90","247706","0.0-6.0-1.39","test",",","",",","",""
"null","<div style=""color:white; font-size:60px;"">+</div>","null","html-keyboard-response","91","248709","0.0-6.0-0.40","fixation","","","","",""
"450.6699999983539","Stimuli/Hangul_M11.bmp","188","image-keyboard-response","92","249162","0.0-6.0-1.40","test",",","",",","",""
"null","<div style=""color:white; font-size:60px;"">+</div>","null","html-keyboard-response","93","250164","0.0-6.0-0.41","fixation","","","","",""
"453.19000000017695","Stimuli/Hangul_M6.bmp","188","image-keyboard-response","94","250619","0.0-6.0-1.41","test",",","",",","",""
"null","<div style=""color:white; font-size:60px;"">+</div>","null","html-keyboard-response","95","251621","0.0-6.0-0.42","fixation","","","","",""
"459.9149999994552","Stimuli/Hangul_F17.bmp","190","image-keyboard-response","96","252083","0.0-6.0-1.42","test",".","",".","",""
"null","<div style=""color:white; font-size:60px;"">+</div>","null","html-keyboard-response","97","253086","0.0-6.0-0.43","fixation","","","","",""
"414.87499999493593","Stimuli/Hangul_F10.bmp","190","image-keyboard-response","98","253502","0.0-6.0-1.43","test",".","",".","",""
"null","<div style=""color:white; font-size:60px;"">+</div>","null","html-keyboard-response","99","254504","0.0-6.0-0.44","fixation","","","","",""
"513.265000001411","Stimuli/Hangul_M16.bmp","190","image-keyboard-response","100","255018","0.0-6.0-1.44","test",",","",".","",""
"null","<div style=""color:white; font-size:60px;"">+</div>","null","html-keyboard-response","101","256020","0.0-6.0-0.45","fixation","","","","",""
"514.1250000015134","Stimuli/Hangul_M2.bmp","190","image-keyboard-response","102","256537","0.0-6.0-1.45","test",",","",".","",""
"null","<div style=""color:white; font-size:60px;"">+</div>","null","html-keyboard-response","103","257538","0.0-6.0-0.46","fixation","","","","",""
"471.23499999725027","Stimuli/Hangul_M19.bmp","188","image-keyboard-response","104","258011","0.0-6.0-1.46","test",",","",",","",""
"null","<div style=""color:white; font-size:60px;"">+</div>","null","html-keyboard-response","105","259015","0.0-6.0-0.47","fixation","","","","",""
"266.3249999968684","Stimuli/Hangul_F1.bmp","188","image-keyboard-response","106","259282","0.0-6.0-1.47","test",".","",",","",""
"null","<div style=""color:white; font-size:60px;"">+</div>","null","html-keyboard-response","107","260285","0.0-6.0-0.48","fixation","","","","",""
"324.76499999756925","Stimuli/Hangul_M14.bmp","188","image-keyboard-response","108","260611","0.0-6.0-1.48","test",",","",",","",""
"null","<div style=""color:white; font-size:60px;"">+</div>","null","html-keyboard-response","109","261613","0.0-6.0-0.49","fixation","","","","",""
"429.0949999995064","Stimuli/Hangul_M21.bmp","188","image-keyboard-response","110","262043","0.0-6.0-1.49","test",",","",",","",""
"10429.315000001225","<p style=""color:white;"">Good job, block 1 complete! Please take a moment to rest.</p> <p style=""color:white;"">When you are ready to continue with block 2 of 4, press the space bar.</p> ","32","html-keyboard-response","111","272474","0.0-7.0","","","","","",""
"null","<div style=""color:white; font-size:60px;"">+</div>","null","html-keyboard-response","112","275479","0.0-8.0-0.0","fixation","","","","",""
"1966.3949999958277","Stimuli/Hangul_F48.bmp","188","image-keyboard-response","113","277447","0.0-8.0-1.0","test",".","",",","",""
"null","<div style=""color:white; font-size:60px;"">+</div>","null","html-keyboard-response","114","278448","0.0-8.0-0.1","fixation","","","","",""
"2121.854999997595","Stimuli/Hangul_M25.bmp","188","image-keyboard-response","115","280572","0.0-8.0-1.1","test",",","",",","",""
"null","<div style=""color:white; font-size:60px;"">+</div>","null","html-keyboard-response","116","281574","0.0-8.0-0.2","fixation","","","","",""
"2822.134999994887","Stimuli/Hangul_F49.bmp","190","image-keyboard-response","117","284398","0.0-8.0-1.2","test",".","",".","",""
"null","<div style=""color:white; font-size:60px;"">+</div>","null","html-keyboard-response","118","285400","0.0-8.0-0.3","fixation","","","","",""
"2164.550000001327","Stimuli/Hangul_F31.bmp","188","image-keyboard-response","119","287566","0.0-8.0-1.3","test",".","",",","",""
"null","<div style=""color:white; font-size:60px;"">+</div>","null","html-keyboard-response","120","288568","0.0-8.0-0.4","fixation","","","","",""
"2835.529999996652","Stimuli/Hangul_F43.bmp","188","image-keyboard-response","121","291405","0.0-8.0-1.4","test",".","",",","",""
"null","<div style=""color:white; font-size:60px;"">+</div>","null","html-keyboard-response","122","292413","0.0-8.0-0.5","fixation","","","","",""
"939.5100000037928","Stimuli/Hangul_M33.bmp","190","image-keyboard-response","123","293354","0.0-8.0-1.5","test",",","",".","",""
"null","<div style=""color:white; font-size:60px;"">+</div>","null","html-keyboard-response","124","294357","0.0-8.0-0.6","fixation","","","","",""
"1446.2099999946076","Stimuli/Hangul_F46.bmp","190","image-keyboard-response","125","295805","0.0-8.0-1.6","test",".","",".","",""
"null","<div style=""color:white; font-size:60px;"">+</div>","null","html-keyboard-response","126","296807","0.0-8.0-0.7","fixation","","","","",""
"1466.3149999978486","Stimuli/Hangul_M28.bmp","190","image-keyboard-response","127","298275","0.0-8.0-1.7","test",",","",".","",""
"null","<div style=""color:white; font-size:60px;"">+</div>","null","html-keyboard-response","128","299277","0.0-8.0-0.8","fixation","","","","",""
"1021.9450000004144","Stimuli/Hangul_F26.bmp","188","image-keyboard-response","129","300300","0.0-8.0-1.8","test",".","",",","",""
"null","<div style=""color:white; font-size:60px;"">+</div>","null","html-keyboard-response","130","301303","0.0-8.0-0.9","fixation","","","","",""
"858.2200000018929","Stimuli/Hangul_M38.bmp","188","image-keyboard-response","131","302163","0.0-8.0-1.9","test",",","",",","",""
"null","<div style=""color:white; font-size:60px;"">+</div>","null","html-keyboard-response","132","303167","0.0-8.0-0.10","fixation","","","","",""
"411.52499999589054","Stimuli/Hangul_F39.bmp","188","image-keyboard-response","133","303580","0.0-8.0-1.10","test",".","",",","",""
"null","<div style=""color:white; font-size:60px;"">+</div>","null","html-keyboard-response","134","304582","0.0-8.0-0.11","fixation","","","","",""
"560.7749999981024","Stimuli/Hangul_F36.bmp","188","image-keyboard-response","135","305144","0.0-8.0-1.11","test",".","",",","",""
"null","<div style=""color:white; font-size:60px;"">+</div>","null","html-keyboard-response","136","306146","0.0-8.0-0.12","fixation","","","","",""
"688.4250000002794","Stimuli/Hangul_F44.bmp","188","image-keyboard-response","137","306836","0.0-8.0-1.12","test",".","",",","",""
"null","<div style=""color:white; font-size:60px;"">+</div>","null","html-keyboard-response","138","307838","0.0-8.0-0.13","fixation","","","","",""
"730.360000001383","Stimuli/Hangul_M45.bmp","190","image-keyboard-response","139","308570","0.0-8.0-1.13","test",",","",".","",""
"null","<div style=""color:white; font-size:60px;"">+</div>","null","html-keyboard-response","140","309573","0.0-8.0-0.14","fixation","","","","",""
"597.2299999993993","Stimuli/Hangul_M26.bmp","188","image-keyboard-response","141","310171","0.0-8.0-1.14","test",",","",",","",""
"null","<div style=""color:white; font-size:60px;"">+</div>","null","html-keyboard-response","142","311173","0.0-8.0-0.15","fixation","","","","",""
"1224.419999998645","Stimuli/Hangul_F33.bmp","190","image-keyboard-response","143","312398","0.0-8.0-1.15","test",".","",".","",""
"null","<div style=""color:white; font-size:60px;"">+</div>","null","html-keyboard-response","144","313401","0.0-8.0-0.16","fixation","","","","",""
"724.0799999999581","Stimuli/Hangul_M40.bmp","190","image-keyboard-response","145","314127","0.0-8.0-1.16","test",",","",".","",""
"null","<div style=""color:white; font-size:60px;"">+</div>","null","html-keyboard-response","146","315129","0.0-8.0-0.17","fixation","","","","",""
"453.58999999734806","Stimuli/Hangul_M34.bmp","190","image-keyboard-response","147","315584","0.0-8.0-1.17","test",",","",".","",""
"null","<div style=""color:white; font-size:60px;"">+</div>","null","html-keyboard-response","148","316586","0.0-8.0-0.18","fixation","","","","",""
"760.2699999988545","Stimuli/Hangul_F45.bmp","190","image-keyboard-response","149","317348","0.0-8.0-1.18","test",".","",".","",""
"null","<div style=""color:white; font-size:60px;"">+</div>","null","html-keyboard-response","150","318350","0.0-8.0-0.19","fixation","","","","",""
"495.150000002468","Stimuli/Hangul_M27.bmp","188","image-keyboard-response","151","318847","0.0-8.0-1.19","test",",","",",","",""
"null","<div style=""color:white; font-size:60px;"">+</div>","null","html-keyboard-response","152","319850","0.0-8.0-0.20","fixation","","","","",""
"1619.3100000018603","Stimuli/Hangul_M29.bmp","188","image-keyboard-response","153","321471","0.0-8.0-1.20","test",",","",",","",""
"null","<div style=""color:white; font-size:60px;"">+</div>","null","html-keyboard-response","154","322473","0.0-8.0-0.21","fixation","","","","",""
"1575.9850000031292","Stimuli/Hangul_F29.bmp","188","image-keyboard-response","155","324051","0.0-8.0-1.21","test",".","",",","",""
"null","<div style=""color:white; font-size:60px;"">+</div>","null","html-keyboard-response","156","325057","0.0-8.0-0.22","fixation","","","","",""
"284603.3400000014","Stimuli/Hangul_F37.bmp","188","image-keyboard-response","157","609662","0.0-8.0-1.22","test",".","",",","",""
"null","<div style=""color:white; font-size:60px;"">+</div>","null","html-keyboard-response","158","610665","0.0-8.0-0.23","fixation","","","","",""
"1723.4450000032084","Stimuli/Hangul_F40.bmp","188","image-keyboard-response","159","612392","0.0-8.0-1.23","test",".","",",","",""
"null","<div style=""color:white; font-size:60px;"">+</div>","null","html-keyboard-response","160","613395","0.0-8.0-0.24","fixation","","","","",""
"469.38000000233296","Stimuli/Hangul_M36.bmp","190","image-keyboard-response","161","613866","0.0-8.0-1.24","test",",","",".","",""
"null","<div style=""color:white; font-size:60px;"">+</div>","null","html-keyboard-response","162","614869","0.0-8.0-0.25","fixation","","","","",""
"49.49500000663102","Stimuli/Hangul_F28.bmp","190","image-keyboard-response","163","614921","0.0-8.0-1.25","test",".","",".","",""
"null","<div style=""color:white; font-size:60px;"">+</div>","null","html-keyboard-response","164","615923","0.0-8.0-0.26","fixation","","","","",""
"794.7349999959115","Stimuli/Hangul_M44.bmp","188","image-keyboard-response","165","616721","0.0-8.0-1.26","test",",","",",","",""
"null","<div style=""color:white; font-size:60px;"">+</div>","null","html-keyboard-response","166","617722","0.0-8.0-0.27","fixation","","","","",""
"538.4449999984354","Stimuli/Hangul_F34.bmp","188","image-keyboard-response","167","618262","0.0-8.0-1.27","test",".","",",","",""
"null","<div style=""color:white; font-size:60px;"">+</div>","null","html-keyboard-response","168","619263","0.0-8.0-0.28","fixation","","","","",""
"70.27499999816064","Stimuli/Hangul_M49.bmp","188","image-keyboard-response","169","619335","0.0-8.0-1.28","test",",","",",","",""
"null","<div style=""color:white; font-size:60px;"">+</div>","null","html-keyboard-response","170","620336","0.0-8.0-0.29","fixation","","","","",""
"546.1500000020023","Stimuli/Hangul_F47.bmp","188","image-keyboard-response","171","620888","0.0-8.0-1.29","test",".","",",","",""
"null","<div style=""color:white; font-size:60px;"">+</div>","null","html-keyboard-response","172","621890","0.0-8.0-0.30","fixation","","","","",""
"813.314999999362","Stimuli/Hangul_M47.bmp","190","image-keyboard-response","173","622705","0.0-8.0-1.30","test",",","",".","",""
"null","<div style=""color:white; font-size:60px;"">+</div>","null","html-keyboard-response","174","623707","0.0-8.0-0.31","fixation","","","","",""
"520.3900000050198","Stimuli/Hangul_F30.bmp","190","image-keyboard-response","175","624229","0.0-8.0-1.31","test",".","",".","",""
"null","<div style=""color:white; font-size:60px;"">+</div>","null","html-keyboard-response","176","625230","0.0-8.0-0.32","fixation","","","","",""
"878.3899999980349","Stimuli/Hangul_M46.bmp","188","image-keyboard-response","177","626110","0.0-8.0-1.32","test",",","",",","",""
"null","<div style=""color:white; font-size:60px;"">+</div>","null","html-keyboard-response","178","627111","0.0-8.0-0.33","fixation","","","","",""
"451.69999999774154","Stimuli/Hangul_M30.bmp","188","image-keyboard-response","179","627564","0.0-8.0-1.33","test",",","",",","",""
"null","<div style=""color:white; font-size:60px;"">+</div>","null","html-keyboard-response","180","628566","0.0-8.0-0.34","fixation","","","","",""
"404.7449999997625","Stimuli/Hangul_M41.bmp","188","image-keyboard-response","181","628972","0.0-8.0-1.34","test",",","",",","",""
"null","<div style=""color:white; font-size:60px;"">+</div>","null","html-keyboard-response","182","629973","0.0-8.0-0.35","fixation","","","","",""
"373.9900000001071","Stimuli/Hangul_M31.bmp","188","image-keyboard-response","183","630348","0.0-8.0-1.35","test",",","",",","",""
"null","<div style=""color:white; font-size:60px;"">+</div>","null","html-keyboard-response","184","631350","0.0-8.0-0.36","fixation","","","","",""
"173.5950000002049","Stimuli/Hangul_M42.bmp","188","image-keyboard-response","185","631525","0.0-8.0-1.36","test",",","",",","",""
"null","<div style=""color:white; font-size:60px;"">+</div>","null","html-keyboard-response","186","632529","0.0-8.0-0.37","fixation","","","","",""
"644.1899999990128","Stimuli/Hangul_M32.bmp","188","image-keyboard-response","187","633174","0.0-8.0-1.37","test",",","",",","",""
"null","<div style=""color:white; font-size:60px;"">+</div>","null","html-keyboard-response","188","634176","0.0-8.0-0.38","fixation","","","","",""
"944.3150000006426","Stimuli/Hangul_M48.bmp","190","image-keyboard-response","189","635121","0.0-8.0-1.38","test",",","",".","",""
"null","<div style=""color:white; font-size:60px;"">+</div>","null","html-keyboard-response","190","636123","0.0-8.0-0.39","fixation","","","","",""
"732.0949999992736","Stimuli/Hangul_M39.bmp","190","image-keyboard-response","191","636856","0.0-8.0-1.39","test",",","",".","",""
"null","<div style=""color:white; font-size:60px;"">+</div>","null","html-keyboard-response","192","637858","0.0-8.0-0.40","fixation","","","","",""
"318.6149999964982","Stimuli/Hangul_M43.bmp","190","image-keyboard-response","193","638178","0.0-8.0-1.40","test",",","",".","",""
"null","<div style=""color:white; font-size:60px;"">+</div>","null","html-keyboard-response","194","639180","0.0-8.0-0.41","fixation","","","","",""
"1146.820000001695","Stimuli/Hangul_F41.bmp","190","image-keyboard-response","195","640328","0.0-8.0-1.41","test",".","",".","",""
"null","<div style=""color:white; font-size:60px;"">+</div>","null","html-keyboard-response","196","641330","0.0-8.0-0.42","fixation","","","","",""
"432.24499999627005","Stimuli/Hangul_F25.bmp","190","image-keyboard-response","197","641763","0.0-8.0-1.42","test",".","",".","",""
"null","<div style=""color:white; font-size:60px;"">+</div>","null","html-keyboard-response","198","642765","0.0-8.0-0.43","fixation","","","","",""
"422.7099999987986","Stimuli/Hangul_F27.bmp","190","image-keyboard-response","199","643189","0.0-8.0-1.43","test",".","",".","",""
"null","<div style=""color:white; font-size:60px;"">+</div>","null","html-keyboard-response","200","644193","0.0-8.0-0.44","fixation","","","","",""
"131.25000000582077","Stimuli/Hangul_F42.bmp","190","image-keyboard-response","201","644325","0.0-8.0-1.44","test",".","",".","",""
"null","<div style=""color:white; font-size:60px;"">+</div>","null","html-keyboard-response","202","645328","0.0-8.0-0.45","fixation","","","","",""
"632.3150000026217","Stimuli/Hangul_F35.bmp","190","image-keyboard-response","203","645961","0.0-8.0-1.45","test",".","",".","",""
"null","<div style=""color:white; font-size:60px;"">+</div>","null","html-keyboard-response","204","646963","0.0-8.0-0.46","fixation","","","","",""
"58.635000001173466","Stimuli/Hangul_M35.bmp","190","image-keyboard-response","205","647022","0.0-8.0-1.46","test",",","",".","",""
"null","<div style=""color:white; font-size:60px;"">+</div>","null","html-keyboard-response","206","648024","0.0-8.0-0.47","fixation","","","","",""
"950.0400000032969","Stimuli/Hangul_F32.bmp","190","image-keyboard-response","207","648976","0.0-8.0-1.47","test",".","",".","",""
"null","<div style=""color:white; font-size:60px;"">+</div>","null","html-keyboard-response","208","649977","0.0-8.0-0.48","fixation","","","","",""
"163.31000000354834","Stimuli/Hangul_M37.bmp","188","image-keyboard-response","209","650142","0.0-8.0-1.48","test",",","",",","",""
"null","<div style=""color:white; font-size:60px;"">+</div>","null","html-keyboard-response","210","651144","0.0-8.0-0.49","fixation","","","","",""
"295.3750000015134","Stimuli/Hangul_F38.bmp","188","image-keyboard-response","211","651441","0.0-8.0-1.49","test",".","",",","",""
"5796.809999999823","<p style=""color:white;"">Half way there! Please take a moment to rest.</p> <p style=""color:white;"">When you are ready to continue with block 3 of 4, press the space bar.</p> ","32","html-keyboard-response","212","657240","0.0-9.0","","","","","",""
"null","<div style=""color:white; font-size:60px;"">+</div>","null","html-keyboard-response","213","660242","0.0-10.0-0.0","fixation","","","","",""
"560.3000000047032","Stimuli/Hangul_F58.bmp","188","image-keyboard-response","214","660805","0.0-10.0-1.0","test",".","",",","",""
"null","<div style=""color:white; font-size:60px;"">+</div>","null","html-keyboard-response","215","661808","0.0-10.0-0.1","fixation","","","","",""
"348.9250000056345","Stimuli/Hangul_M56.bmp","188","image-keyboard-response","216","662158","0.0-10.0-1.1","test",",","",",","",""
"null","<div style=""color:white; font-size:60px;"">+</div>","null","html-keyboard-response","217","663160","0.0-10.0-0.2","fixation","","","","",""
"379.2800000010757","Stimuli/Hangul_F73.bmp","188","image-keyboard-response","218","663540","0.0-10.0-1.2","test",".","",",","",""
"null","<div style=""color:white; font-size:60px;"">+</div>","null","html-keyboard-response","219","664543","0.0-10.0-0.3","fixation","","","","",""
"302.70999999623746","Stimuli/Hangul_F70.bmp","190","image-keyboard-response","220","664847","0.0-10.0-1.3","test",".","",".","",""
"null","<div style=""color:white; font-size:60px;"">+</div>","null","html-keyboard-response","221","665850","0.0-10.0-0.4","fixation","","","","",""
"324.3850000000093","Stimuli/Hangul_F71.bmp","190","image-keyboard-response","222","666175","0.0-10.0-1.4","test",".","",".","",""
"null","<div style=""color:white; font-size:60px;"">+</div>","null","html-keyboard-response","223","667177","0.0-10.0-0.5","fixation","","","","",""
"321.27999999641906","Stimuli/Hangul_F67.bmp","190","image-keyboard-response","224","667500","0.0-10.0-1.5","test",".","",".","",""
"null","<div style=""color:white; font-size:60px;"">+</div>","null","html-keyboard-response","225","668503","0.0-10.0-0.6","fixation","","","","",""
"307.2399999946356","Stimuli/Hangul_M65.bmp","188","image-keyboard-response","226","668812","0.0-10.0-1.6","test",",","",",","",""
"null","<div style=""color:white; font-size:60px;"">+</div>","null","html-keyboard-response","227","669814","0.0-10.0-0.7","fixation","","","","",""
"320.2450000025565","Stimuli/Hangul_F57.bmp","188","image-keyboard-response","228","670136","0.0-10.0-1.7","test",".","",",","",""
"null","<div style=""color:white; font-size:60px;"">+</div>","null","html-keyboard-response","229","671139","0.0-10.0-0.8","fixation","","","","",""
"316.64500000618864","Stimuli/Hangul_F74.bmp","190","image-keyboard-response","230","671456","0.0-10.0-1.8","test",".","",".","",""
"null","<div style=""color:white; font-size:60px;"">+</div>","null","html-keyboard-response","231","672459","0.0-10.0-0.9","fixation","","","","",""
"418.050000000163","Stimuli/Hangul_M74.bmp","190","image-keyboard-response","232","672878","0.0-10.0-1.9","test",",","",".","",""
"null","<div style=""color:white; font-size:60px;"">+</div>","null","html-keyboard-response","233","673881","0.0-10.0-0.10","fixation","","","","",""
"268.8850000050152","Stimuli/Hangul_M55.bmp","188","image-keyboard-response","234","674151","0.0-10.0-1.10","test",",","",",","",""
"null","<div style=""color:white; font-size:60px;"">+</div>","null","html-keyboard-response","235","675152","0.0-10.0-0.11","fixation","","","","",""
"190.86499999684747","Stimuli/Hangul_M70.bmp","188","image-keyboard-response","236","675344","0.0-10.0-1.11","test",",","",",","",""
"null","<div style=""color:white; font-size:60px;"">+</div>","null","html-keyboard-response","237","676348","0.0-10.0-0.12","fixation","","","","",""
"320.8900000026915","Stimuli/Hangul_M71.bmp","188","image-keyboard-response","238","676670","0.0-10.0-1.12","test",",","",",","",""
"null","<div style=""color:white; font-size:60px;"">+</div>","null","html-keyboard-response","239","677672","0.0-10.0-0.13","fixation","","","","",""
"328.2600000019884","Stimuli/Hangul_F62.bmp","188","image-keyboard-response","240","678001","0.0-10.0-1.13","test",".","",",","",""
"null","<div style=""color:white; font-size:60px;"">+</div>","null","html-keyboard-response","241","679003","0.0-10.0-0.14","fixation","","","","",""
"292.22499999729916","Stimuli/Hangul_M60.bmp","190","image-keyboard-response","242","679296","0.0-10.0-1.14","test",",","",".","",""
"null","<div style=""color:white; font-size:60px;"">+</div>","null","html-keyboard-response","243","680298","0.0-10.0-0.15","fixation","","","","",""
"187.49500000546686","Stimuli/Hangul_M58.bmp","190","image-keyboard-response","244","680486","0.0-10.0-1.15","test",",","",".","",""
"null","<div style=""color:white; font-size:60px;"">+</div>","null","html-keyboard-response","245","681489","0.0-10.0-0.16","fixation","","","","",""
"322.0450000007404","Stimuli/Hangul_M50.bmp","190","image-keyboard-response","246","681812","0.0-10.0-1.16","test",",","",".","",""
"null","<div style=""color:white; font-size:60px;"">+</div>","null","html-keyboard-response","247","682814","0.0-10.0-0.17","fixation","","","","",""
"296.4349999965634","Stimuli/Hangul_F63.bmp","188","image-keyboard-response","248","683112","0.0-10.0-1.17","test",".","",",","",""
"null","<div style=""color:white; font-size:60px;"">+</div>","null","html-keyboard-response","249","684114","0.0-10.0-0.18","fixation","","","","",""
"331.0199999976903","Stimuli/Hangul_M62.bmp","188","image-keyboard-response","250","684447","0.0-10.0-1.18","test",",","",",","",""
"null","<div style=""color:white; font-size:60px;"">+</div>","null","html-keyboard-response","251","685450","0.0-10.0-0.19","fixation","","","","",""
"343.9349999972619","Stimuli/Hangul_F56.bmp","190","image-keyboard-response","252","685795","0.0-10.0-1.19","test",".","",".","",""
"null","<div style=""color:white; font-size:60px;"">+</div>","null","html-keyboard-response","253","686797","0.0-10.0-0.20","fixation","","","","",""
"283.4000000001397","Stimuli/Hangul_M73.bmp","190","image-keyboard-response","254","687082","0.0-10.0-1.20","test",",","",".","",""
"null","<div style=""color:white; font-size:60px;"">+</div>","null","html-keyboard-response","255","688085","0.0-10.0-0.21","fixation","","","","",""
"211.0400000018999","Stimuli/Hangul_F60.bmp","190","image-keyboard-response","256","688297","0.0-10.0-1.21","test",".","",".","",""
"null","<div style=""color:white; font-size:60px;"">+</div>","null","html-keyboard-response","257","689299","0.0-10.0-0.22","fixation","","","","",""
"260.90000000118744","Stimuli/Hangul_M69.bmp","188","image-keyboard-response","258","689561","0.0-10.0-1.22","test",",","",",","",""
"null","<div style=""color:white; font-size:60px;"">+</div>","null","html-keyboard-response","259","690569","0.0-10.0-0.23","fixation","","","","",""
"218.18999999959487","Stimuli/Hangul_F66.bmp","188","image-keyboard-response","260","690788","0.0-10.0-1.23","test",".","",",","",""
"null","<div style=""color:white; font-size:60px;"">+</div>","null","html-keyboard-response","261","691790","0.0-10.0-0.24","fixation","","","","",""
"565.2350000019651","Stimuli/Hangul_F64.bmp","188","image-keyboard-response","262","692357","0.0-10.0-1.24","test",".","",",","",""
"null","<div style=""color:white; font-size:60px;"">+</div>","null","html-keyboard-response","263","693359","0.0-10.0-0.25","fixation","","","","",""
"329.91000000038184","Stimuli/Hangul_M72.bmp","190","image-keyboard-response","264","693690","0.0-10.0-1.25","test",",","",".","",""
"null","<div style=""color:white; font-size:60px;"">+</div>","null","html-keyboard-response","265","694693","0.0-10.0-0.26","fixation","","","","",""
"341.30500000179745","Stimuli/Hangul_M54.bmp","190","image-keyboard-response","266","695036","0.0-10.0-1.26","test",",","",".","",""
"null","<div style=""color:white; font-size:60px;"">+</div>","null","html-keyboard-response","267","696039","0.0-10.0-0.27","fixation","","","","",""
"467.7799999989802","Stimuli/Hangul_F69.bmp","190","image-keyboard-response","268","696507","0.0-10.0-1.27","test",".","",".","",""
"null","<div style=""color:white; font-size:60px;"">+</div>","null","html-keyboard-response","269","697510","0.0-10.0-0.28","fixation","","","","",""
"290.1999999958789","Stimuli/Hangul_F51.bmp","188","image-keyboard-response","270","697801","0.0-10.0-1.28","test",".","",",","",""
"null","<div style=""color:white; font-size:60px;"">+</div>","null","html-keyboard-response","271","698805","0.0-10.0-0.29","fixation","","","","",""
"403.12499999720603","Stimuli/Hangul_M52.bmp","188","image-keyboard-response","272","699209","0.0-10.0-1.29","test",",","",",","",""
"null","<div style=""color:white; font-size:60px;"">+</div>","null","html-keyboard-response","273","700211","0.0-10.0-0.30","fixation","","","","",""
"414.2050000010058","Stimuli/Hangul_M64.bmp","190","image-keyboard-response","274","700626","0.0-10.0-1.30","test",",","",".","",""
"null","<div style=""color:white; font-size:60px;"">+</div>","null","html-keyboard-response","275","701629","0.0-10.0-0.31","fixation","","","","",""
"322.0000000001164","Stimuli/Hangul_M51.bmp","190","image-keyboard-response","276","701952","0.0-10.0-1.31","test",",","",".","",""
"null","<div style=""color:white; font-size:60px;"">+</div>","null","html-keyboard-response","277","702954","0.0-10.0-0.32","fixation","","","","",""
"397.92499999748543","Stimuli/Hangul_M67.bmp","190","image-keyboard-response","278","703353","0.0-10.0-1.32","test",",","",".","",""
"null","<div style=""color:white; font-size:60px;"">+</div>","null","html-keyboard-response","279","704356","0.0-10.0-0.33","fixation","","","","",""
"363.18500000203494","Stimuli/Hangul_M63.bmp","188","image-keyboard-response","280","704720","0.0-10.0-1.33","test",",","",",","",""
"null","<div style=""color:white; font-size:60px;"">+</div>","null","html-keyboard-response","281","705722","0.0-10.0-0.34","fixation","","","","",""
"439.01999999803957","Stimuli/Hangul_F61.bmp","188","image-keyboard-response","282","706162","0.0-10.0-1.34","test",".","",",","",""
"null","<div style=""color:white; font-size:60px;"">+</div>","null","html-keyboard-response","283","707164","0.0-10.0-0.35","fixation","","","","",""
"601.300000002142","Stimuli/Hangul_F65.bmp","188","image-keyboard-response","284","707766","0.0-10.0-1.35","test",".","",",","",""
"null","<div style=""color:white; font-size:60px;"">+</div>","null","html-keyboard-response","285","708769","0.0-10.0-0.36","fixation","","","","",""
"387.9250000027241","Stimuli/Hangul_F52.bmp","188","image-keyboard-response","286","709159","0.0-10.0-1.36","test",".","",",","",""
"null","<div style=""color:white; font-size:60px;"">+</div>","null","html-keyboard-response","287","710161","0.0-10.0-0.37","fixation","","","","",""
"543.3249999987893","Stimuli/Hangul_F72.bmp","190","image-keyboard-response","288","710706","0.0-10.0-1.37","test",".","",".","",""
"null","<div style=""color:white; font-size:60px;"">+</div>","null","html-keyboard-response","289","711708","0.0-10.0-0.38","fixation","","","","",""
"330.75000000104774","Stimuli/Hangul_F59.bmp","190","image-keyboard-response","290","712040","0.0-10.0-1.38","test",".","",".","",""
"null","<div style=""color:white; font-size:60px;"">+</div>","null","html-keyboard-response","291","713041","0.0-10.0-0.39","fixation","","","","",""
"254.19500000134576","Stimuli/Hangul_M66.bmp","188","image-keyboard-response","292","713297","0.0-10.0-1.39","test",",","",",","",""
"null","<div style=""color:white; font-size:60px;"">+</div>","null","html-keyboard-response","293","714299","0.0-10.0-0.40","fixation","","","","",""
"386.0750000021653","Stimuli/Hangul_M53.bmp","188","image-keyboard-response","294","714687","0.0-10.0-1.40","test",",","",",","",""
"null","<div style=""color:white; font-size:60px;"">+</div>","null","html-keyboard-response","295","715689","0.0-10.0-0.41","fixation","","","","",""
"166.3699999989476","Stimuli/Hangul_F55.bmp","188","image-keyboard-response","296","715856","0.0-10.0-1.41","test",".","",",","",""
"null","<div style=""color:white; font-size:60px;"">+</div>","null","html-keyboard-response","297","716863","0.0-10.0-0.42","fixation","","","","",""
"366.55500000040047","Stimuli/Hangul_F53.bmp","188","image-keyboard-response","298","717231","0.0-10.0-1.42","test",".","",",","",""
"null","<div style=""color:white; font-size:60px;"">+</div>","null","html-keyboard-response","299","718233","0.0-10.0-0.43","fixation","","","","",""
"299.76499999605585","Stimuli/Hangul_M68.bmp","190","image-keyboard-response","300","718533","0.0-10.0-1.43","test",",","",".","",""
"null","<div style=""color:white; font-size:60px;"">+</div>","null","html-keyboard-response","301","719536","0.0-10.0-0.44","fixation","","","","",""
"229.4300000066869","Stimuli/Hangul_M61.bmp","190","image-keyboard-response","302","719767","0.0-10.0-1.44","test",",","",".","",""
"null","<div style=""color:white; font-size:60px;"">+</div>","null","html-keyboard-response","303","720769","0.0-10.0-0.45","fixation","","","","",""
"442.92500000295695","Stimuli/Hangul_F50.bmp","190","image-keyboard-response","304","721214","0.0-10.0-1.45","test",".","",".","",""
"null","<div style=""color:white; font-size:60px;"">+</div>","null","html-keyboard-response","305","722217","0.0-10.0-0.46","fixation","","","","",""
"307.8899999964051","Stimuli/Hangul_F54.bmp","188","image-keyboard-response","306","722527","0.0-10.0-1.46","test",".","",",","",""
"null","<div style=""color:white; font-size:60px;"">+</div>","null","html-keyboard-response","307","723529","0.0-10.0-0.47","fixation","","","","",""
"125.98499999882188","Stimuli/Hangul_M57.bmp","190","image-keyboard-response","308","723656","0.0-10.0-1.47","test",",","",".","",""
"null","<div style=""color:white; font-size:60px;"">+</div>","null","html-keyboard-response","309","724658","0.0-10.0-0.48","fixation","","","","",""
"1982.2650000059512","Stimuli/Hangul_M59.bmp","188","image-keyboard-response","310","726641","0.0-10.0-1.48","test",",","",",","",""
"null","<div style=""color:white; font-size:60px;"">+</div>","null","html-keyboard-response","311","727643","0.0-10.0-0.49","fixation","","","","",""
"1478.244999998482","Stimuli/Hangul_F68.bmp","190","image-keyboard-response","312","729122","0.0-10.0-1.49","test",".","",".","",""
"17761.335000002873","<p style=""color:white;"">One more block to go! Please take a moment to rest.</p> <p style=""color:white;"">When you are ready to continue with block 4 of 4, press the space bar.</p> ","32","html-keyboard-response","313","746885","0.0-11.0","","","","","",""
"null","<div style=""color:white; font-size:60px;"">+</div>","null","html-keyboard-response","314","749888","0.0-12.0-0.0","fixation","","","","",""
"1741.1499999944353","Stimuli/Hangul_F76.bmp","188","image-keyboard-response","315","751632","0.0-12.0-1.0","test",".","",",","",""
"null","<div style=""color:white; font-size:60px;"">+</div>","null","html-keyboard-response","316","752634","0.0-12.0-0.1","fixation","","","","",""
"891.0649999962188","Stimuli/Hangul_F88.bmp","188","image-keyboard-response","317","753527","0.0-12.0-1.1","test",".","",",","",""
"null","<div style=""color:white; font-size:60px;"">+</div>","null","html-keyboard-response","318","754529","0.0-12.0-0.2","fixation","","","","",""
"791.2500000019791","Stimuli/Hangul_F77.bmp","190","image-keyboard-response","319","755322","0.0-12.0-1.2","test",".","",".","",""
"null","<div style=""color:white; font-size:60px;"">+</div>","null","html-keyboard-response","320","756324","0.0-12.0-0.3","fixation","","","","",""
"599.6699999959674","Stimuli/Hangul_F75.bmp","190","image-keyboard-response","321","756925","0.0-12.0-1.3","test",".","",".","",""
"null","<div style=""color:white; font-size:60px;"">+</div>","null","html-keyboard-response","322","757927","0.0-12.0-0.4","fixation","","","","",""
"776.6950000004144","Stimuli/Hangul_M93.bmp","190","image-keyboard-response","323","758705","0.0-12.0-1.4","test",",","",".","",""
"null","<div style=""color:white; font-size:60px;"">+</div>","null","html-keyboard-response","324","759708","0.0-12.0-0.5","fixation","","","","",""
"633.7349999956787","Stimuli/Hangul_F89.bmp","188","image-keyboard-response","325","760343","0.0-12.0-1.5","test",".","",",","",""
"null","<div style=""color:white; font-size:60px;"">+</div>","null","html-keyboard-response","326","761346","0.0-12.0-0.6","fixation","","","","",""
"286.94499999983236","Stimuli/Hangul_F81.bmp","188","image-keyboard-response","327","761634","0.0-12.0-1.6","test",".","",",","",""
"null","<div style=""color:white; font-size:60px;"">+</div>","null","html-keyboard-response","328","762638","0.0-12.0-0.7","fixation","","","","",""
"836.9499999971595","Stimuli/Hangul_F93.bmp","188","image-keyboard-response","329","763476","0.0-12.0-1.7","test",".","",",","",""
"null","<div style=""color:white; font-size:60px;"">+</div>","null","html-keyboard-response","330","764477","0.0-12.0-0.8","fixation","","","","",""
"5.2100000029895455","Stimuli/Hangul_F91.bmp","190","image-keyboard-response","331","764483","0.0-12.0-1.8","test",".","",".","",""
"null","<div style=""color:white; font-size:60px;"">+</div>","null","html-keyboard-response","332","765485","0.0-12.0-0.9","fixation","","","","",""
"387.4149999973597","Stimuli/Hangul_M96.bmp","190","image-keyboard-response","333","765877","0.0-12.0-1.9","test",",","",".","",""
"null","<div style=""color:white; font-size:60px;"">+</div>","null","html-keyboard-response","334","766879","0.0-12.0-0.10","fixation","","","","",""
"619.7549999997718","Stimuli/Hangul_F92.bmp","190","image-keyboard-response","335","767500","0.0-12.0-1.10","test",".","",".","",""
"null","<div style=""color:white; font-size:60px;"">+</div>","null","html-keyboard-response","336","768503","0.0-12.0-0.11","fixation","","","","",""
"974.650000003865","Stimuli/Hangul_F79.bmp","188","image-keyboard-response","337","769479","0.0-12.0-1.11","test",".","",",","",""
"null","<div style=""color:white; font-size:60px;"">+</div>","null","html-keyboard-response","338","770482","0.0-12.0-0.12","fixation","","","","",""
"168.5349999971222","Stimuli/Hangul_M80.bmp","188","image-keyboard-response","339","770652","0.0-12.0-1.12","test",",","",",","",""
"null","<div style=""color:white; font-size:60px;"">+</div>","null","html-keyboard-response","340","771655","0.0-12.0-0.13","fixation","","","","",""
"1032.1000000040513","Stimuli/Hangul_M88.bmp","190","image-keyboard-response","341","772688","0.0-12.0-1.13","test",",","",".","",""
"null","<div style=""color:white; font-size:60px;"">+</div>","null","html-keyboard-response","342","773690","0.0-12.0-0.14","fixation","","","","",""
"334.4950000029057","Stimuli/Hangul_M94.bmp","190","image-keyboard-response","343","774026","0.0-12.0-1.14","test",",","",".","",""
"null","<div style=""color:white; font-size:60px;"">+</div>","null","html-keyboard-response","344","775028","0.0-12.0-0.15","fixation","","","","",""
"101.9349999986589","Stimuli/Hangul_M86.bmp","190","image-keyboard-response","345","775131","0.0-12.0-1.15","test",",","",".","",""
"null","<div style=""color:white; font-size:60px;"">+</div>","null","html-keyboard-response","346","776133","0.0-12.0-0.16","fixation","","","","",""
"854.9449999991339","Stimuli/Hangul_F94.bmp","188","image-keyboard-response","347","776989","0.0-12.0-1.16","test",".","",",","",""
"null","<div style=""color:white; font-size:60px;"">+</div>","null","html-keyboard-response","348","777991","0.0-12.0-0.17","fixation","","","","",""
"633.6749999972526","Stimuli/Hangul_M98.bmp","188","image-keyboard-response","349","778626","0.0-12.0-1.17","test",",","",",","",""
"null","<div style=""color:white; font-size:60px;"">+</div>","null","html-keyboard-response","350","779628","0.0-12.0-0.18","fixation","","","","",""
"481.31499999726657","Stimuli/Hangul_F86.bmp","188","image-keyboard-response","351","780110","0.0-12.0-1.18","test",".","",",","",""
"null","<div style=""color:white; font-size:60px;"">+</div>","null","html-keyboard-response","352","781114","0.0-12.0-0.19","fixation","","","","",""
"591.2299999982351","Stimuli/Hangul_M83.bmp","188","image-keyboard-response","353","781707","0.0-12.0-1.19","test",",","",",","",""
"null","<div style=""color:white; font-size:60px;"">+</div>","null","html-keyboard-response","354","782708","0.0-12.0-0.20","fixation","","","","",""
"266.79999999760184","Stimuli/Hangul_M99.bmp","190","image-keyboard-response","355","782976","0.0-12.0-1.20","test",",","",".","",""
"null","<div style=""color:white; font-size:60px;"">+</div>","null","html-keyboard-response","356","783978","0.0-12.0-0.21","fixation","","","","",""
"1302.6549999994459","Stimuli/Hangul_F78.bmp","190","image-keyboard-response","357","785282","0.0-12.0-1.21","test",".","",".","",""
"null","<div style=""color:white; font-size:60px;"">+</div>","null","html-keyboard-response","358","786284","0.0-12.0-0.22","fixation","","","","",""
"599.5350000011967","Stimuli/Hangul_F98.bmp","190","image-keyboard-response","359","786885","0.0-12.0-1.22","test",".","",".","",""
"null","<div style=""color:white; font-size:60px;"">+</div>","null","html-keyboard-response","360","787886","0.0-12.0-0.23","fixation","","","","",""
"931.6949999992503","Stimuli/Hangul_M85.bmp","190","image-keyboard-response","361","788819","0.0-12.0-1.23","test",",","",".","",""
"null","<div style=""color:white; font-size:60px;"">+</div>","null","html-keyboard-response","362","789821","0.0-12.0-0.24","fixation","","","","",""
"246.92499999934807","Stimuli/Hangul_M90.bmp","188","image-keyboard-response","363","790070","0.0-12.0-1.24","test",",","",",","",""
"null","<div style=""color:white; font-size:60px;"">+</div>","null","html-keyboard-response","364","791072","0.0-12.0-0.25","fixation","","","","",""
"593.3850000001257","Stimuli/Hangul_M81.bmp","188","image-keyboard-response","365","791666","0.0-12.0-1.25","test",",","",",","",""
"null","<div style=""color:white; font-size:60px;"">+</div>","null","html-keyboard-response","366","792669","0.0-12.0-0.26","fixation","","","","",""
"876.9850000025472","Stimuli/Hangul_M77.bmp","188","image-keyboard-response","367","793548","0.0-12.0-1.26","test",",","",",","",""
"null","<div style=""color:white; font-size:60px;"">+</div>","null","html-keyboard-response","368","794549","0.0-12.0-0.27","fixation","","","","",""
"905.8000000003958","Stimuli/Hangul_M95.bmp","190","image-keyboard-response","369","795456","0.0-12.0-1.27","test",",","",".","",""
"null","<div style=""color:white; font-size:60px;"">+</div>","null","html-keyboard-response","370","796459","0.0-12.0-0.28","fixation","","","","",""
"637.8049999984214","Stimuli/Hangul_M75.bmp","188","image-keyboard-response","371","797098","0.0-12.0-1.28","test",",","",",","",""
"null","<div style=""color:white; font-size:60px;"">+</div>","null","html-keyboard-response","372","798101","0.0-12.0-0.29","fixation","","","","",""
"1117.3349999953061","Stimuli/Hangul_M91.bmp","190","image-keyboard-response","373","799220","0.0-12.0-1.29","test",",","",".","",""
"null","<div style=""color:white; font-size:60px;"">+</div>","null","html-keyboard-response","374","800222","0.0-12.0-0.30","fixation","","","","",""
"440.65499999851454","Stimuli/Hangul_F90.bmp","190","image-keyboard-response","375","800664","0.0-12.0-1.30","test",".","",".","",""
"null","<div style=""color:white; font-size:60px;"">+</div>","null","html-keyboard-response","376","801666","0.0-12.0-0.31","fixation","","","","",""
"174.3849999983795","Stimuli/Hangul_M78.bmp","188","image-keyboard-response","377","801843","0.0-12.0-1.31","test",",","",",","",""
"null","<div style=""color:white; font-size:60px;"">+</div>","null","html-keyboard-response","378","802846","0.0-12.0-0.32","fixation","","","","",""
"778.7449999959208","Stimuli/Hangul_F83.bmp","188","image-keyboard-response","379","803626","0.0-12.0-1.32","test",".","",",","",""
"null","<div style=""color:white; font-size:60px;"">+</div>","null","html-keyboard-response","380","804628","0.0-12.0-0.33","fixation","","","","",""
"675.620000001858","Stimuli/Hangul_M89.bmp","188","image-keyboard-response","381","805305","0.0-12.0-1.33","test",",","",",","",""
"null","<div style=""color:white; font-size:60px;"">+</div>","null","html-keyboard-response","382","806307","0.0-12.0-0.34","fixation","","","","",""
"560.9399999957532","Stimuli/Hangul_F87.bmp","190","image-keyboard-response","383","806870","0.0-12.0-1.34","test",".","",".","",""
"null","<div style=""color:white; font-size:60px;"">+</div>","null","html-keyboard-response","384","807872","0.0-12.0-0.35","fixation","","","","",""
"774.3649999974295","Stimuli/Hangul_F84.bmp","188","image-keyboard-response","385","808648","0.0-12.0-1.35","test",".","",",","",""
"null","<div style=""color:white; font-size:60px;"">+</div>","null","html-keyboard-response","386","809653","0.0-12.0-0.36","fixation","","","","",""
"521.1650000056252","Stimuli/Hangul_M92.bmp","188","image-keyboard-response","387","810176","0.0-12.0-1.36","test",",","",",","",""
"null","<div style=""color:white; font-size:60px;"">+</div>","null","html-keyboard-response","388","811178","0.0-12.0-0.37","fixation","","","","",""
"851.1650000000373","Stimuli/Hangul_M87.bmp","190","image-keyboard-response","389","812030","0.0-12.0-1.37","test",",","",".","",""
"null","<div style=""color:white; font-size:60px;"">+</div>","null","html-keyboard-response","390","813033","0.0-12.0-0.38","fixation","","","","",""
"80.5049999980256","Stimuli/Hangul_M76.bmp","190","image-keyboard-response","391","813115","0.0-12.0-1.38","test",",","",".","",""
"null","<div style=""color:white; font-size:60px;"">+</div>","null","html-keyboard-response","392","814122","0.0-12.0-0.39","fixation","","","","",""
"163.98499999917112","Stimuli/Hangul_M82.bmp","188","image-keyboard-response","393","814289","0.0-12.0-1.39","test",",","",",","",""
"null","<div style=""color:white; font-size:60px;"">+</div>","null","html-keyboard-response","394","815291","0.0-12.0-0.40","fixation","","","","",""
"399.7400000008056","Stimuli/Hangul_F85.bmp","188","image-keyboard-response","395","815692","0.0-12.0-1.40","test",".","",",","",""
"null","<div style=""color:white; font-size:60px;"">+</div>","null","html-keyboard-response","396","816694","0.0-12.0-0.41","fixation","","","","",""
"22.38999999826774","Stimuli/Hangul_F96.bmp","190","image-keyboard-response","397","816718","0.0-12.0-1.41","test",".","",".","",""
"null","<div style=""color:white; font-size:60px;"">+</div>","null","html-keyboard-response","398","817719","0.0-12.0-0.42","fixation","","","","",""
"98.79499999806285","Stimuli/Hangul_F95.bmp","190","image-keyboard-response","399","817819","0.0-12.0-1.42","test",".","",".","",""
"null","<div style=""color:white; font-size:60px;"">+</div>","null","html-keyboard-response","400","818821","0.0-12.0-0.43","fixation","","","","",""
"93.00000000081491","Stimuli/Hangul_F82.bmp","190","image-keyboard-response","401","818916","0.0-12.0-1.43","test",".","",".","",""
"null","<div style=""color:white; font-size:60px;"">+</div>","null","html-keyboard-response","402","819919","0.0-12.0-0.44","fixation","","","","",""
"698.2349999962607","Stimuli/Hangul_M97.bmp","190","image-keyboard-response","403","820619","0.0-12.0-1.44","test",",","",".","",""
"null","<div style=""color:white; font-size:60px;"">+</div>","null","html-keyboard-response","404","821621","0.0-12.0-0.45","fixation","","","","",""
"300.20499999960884","Stimuli/Hangul_M79.bmp","190","image-keyboard-response","405","821922","0.0-12.0-1.45","test",",","",".","",""
"null","<div style=""color:white; font-size:60px;"">+</div>","null","html-keyboard-response","406","822924","0.0-12.0-0.46","fixation","","","","",""
"367.54500000097323","Stimuli/Hangul_F99.bmp","190","image-keyboard-response","407","823293","0.0-12.0-1.46","test",".","",".","",""
"null","<div style=""color:white; font-size:60px;"">+</div>","null","html-keyboard-response","408","824298","0.0-12.0-0.47","fixation","","","","",""
"200.28000000456814","Stimuli/Hangul_F97.bmp","188","image-keyboard-response","409","824499","0.0-12.0-1.47","test",".","",",","",""
"null","<div style=""color:white; font-size:60px;"">+</div>","null","html-keyboard-response","410","825501","0.0-12.0-0.48","fixation","","","","",""
"1395.150000003865","Stimuli/Hangul_M84.bmp","190","image-keyboard-response","411","826898","0.0-12.0-1.48","test",",","",".","",""
"null","<div style=""color:white; font-size:60px;"">+</div>","null","html-keyboard-response","412","827899","0.0-12.0-0.49","fixation","","","","",""
"481.6399999981513","Stimuli/Hangul_F80.bmp","190","image-keyboard-response","413","828383","0.0-12.0-1.49","test",".","",".","",""
"7959.9450000023935","<p style=""color:white;"">Phase I of the experiment is complete.</p> <p style=""color:white;"">Press the space bar to proceed to Phase II of the experiment.</p> ","32","html-keyboard-response","414","836345","0.0-13.0","","","","","",""
"25896.96499999985","<p style=""color:white;"">Now we are interested in how well you can predict patterns in the series of figures. You will be asked to predict whether the next figure in the series is more male-like or female-like. When you see the <q>Next Figure</q> prompt, press the corresponding response keys to indicate your prediction: </p><p style=""color:white;""> Male &#8594 <q>,</q> (comma)</p><p style=""color:white;""> Female &#8594 <q>.</q> (period)</p><p style=""color:white;"">The actual figure will then appear on the screen. After you see the figure, please guess the assigned gender with response keys. </p><p style=""color:white;"">As before, you will receive 2 cents for correctly classifying each figure.</p><p style=""color:white;"">Press either response keys to continue.</p>","188","html-keyboard-response","415","864246","0.0-14.0","","","","","",""
"27869.940000004135","<p style=""color:white;"">PREDICTION BONUS</p> <p style=""color:white;"">Your prediction accuracy is the total number of correct predictions you make over the 200 trials.</p> <p style=""color:white;"">In addition to the 2 cents per correct figure classification, you have the chance to receive a bonus of 40 dollars IF your accuracy is above average relative to previous participants.</p><p style=""color:white;"">If your accuracy is below average relative to previous participants, then you will not receive the 40 dollar bonus.</p><p style=""color:white;"">Press the space bar to continue.</p>","32","html-keyboard-response","416","892117","0.0-15.0","","","","","",""
"4719.734999998822","<p style=""color:white;"">Here are some examples.</p> <p style=""color:white;"">For each, predict whether the next figure looks more male-like or female-like. Then, when the figure appears, guess whether it looks more male-like or female-like and indicate your choice.</p> <p style=""color:white;"">Press the space bar to continue.</p>","32","html-keyboard-response","417","896839","0.0-16.0","","","","","",""
"761.1550000002608","<p style=""color:white;""> Next Figure: Male or Female? </p>","188","html-keyboard-response","418","899607","0.0-17.0-0.0","prediction_train","","","",",",""
"null","<div style=""color:white; font-size:60px;"">+</div>","null","html-keyboard-response","419","900609","0.0-17.0-1.0","fixation","","","","",""
"1831.3750000015134","Stimuli/Hangul_E0.bmp","188","image-keyboard-response","420","902441","0.0-17.0-2.0","c2_train",",","","","",","
"2278.124999996973","<p style=""color:white;""> Next Figure: Male or Female? </p>","188","html-keyboard-response","421","904721","0.0-17.0-0.1","prediction_train","","","",",",""
"null","<div style=""color:white; font-size:60px;"">+</div>","null","html-keyboard-response","422","905722","0.0-17.0-1.1","fixation","","","","",""
"2524.9649999969406","Stimuli/Hangul_E1.bmp","190","image-keyboard-response","423","908250","0.0-17.0-2.1","c2_train",",","","","","."
"626.6600000016624","<p style=""color:white;""> Next Figure: Male or Female? </p>","190","html-keyboard-response","424","908878","0.0-17.0-0.2","prediction_train","","","",".",""
"null","<div style=""color:white; font-size:60px;"">+</div>","null","html-keyboard-response","425","909881","0.0-17.0-1.2","fixation","","","","",""
"954.9800000023097","Stimuli/Hangul_E2.bmp","190","image-keyboard-response","426","910838","0.0-17.0-2.2","c2_train",".","","","","."
"3619.6500000006054","<p style=""color:white;"">Let us begin! Press the space bar when you are ready to start block 1 of 4.</p> ","32","html-keyboard-response","427","914460","0.0-18.0","","","","","",""
"795.3150000029709","<p style=""color:white;""> Next Figure: Male or Female? </p>","188","html-keyboard-response","428","917258","0.0-19.0-0.0","prediction","","","",",",""
"null","<div style=""color:white; font-size:60px;"">+</div>","null","html-keyboard-response","429","918262","0.0-19.0-1.0","fixation","","","","",""
"216.38000000535976","Stimuli/Hangul_M24.bmp","188","image-keyboard-response","430","918480","0.0-19.0-2.0","c2_test",",","","","",","
"1961.29999999539","<p style=""color:white;""> Next Figure: Male or Female? </p>","188","html-keyboard-response","431","920443","0.0-19.0-0.1","prediction","","","",",",""
"null","<div style=""color:white; font-size:60px;"">+</div>","null","html-keyboard-response","432","921445","0.0-19.0-1.1","fixation","","","","",""
"753.4250000026077","Stimuli/Hangul_F15.bmp","188","image-keyboard-response","433","922200","0.0-19.0-2.1","c2_test",".","","","",","
"532.8599999992875","<p style=""color:white;""> Next Figure: Male or Female? </p>","188","html-keyboard-response","434","922734","0.0-19.0-0.2","prediction","","","",",",""
"null","<div style=""color:white; font-size:60px;"">+</div>","null","html-keyboard-response","435","923737","0.0-19.0-1.2","fixation","","","","",""
"805.3549999968382","Stimuli/Hangul_F12.bmp","190","image-keyboard-response","436","924545","0.0-19.0-2.2","c2_test",".","","","","."
"692.1499999952503","<p style=""color:white;""> Next Figure: Male or Female? </p>","190","html-keyboard-response","437","925238","0.0-19.0-0.3","prediction","","","",".",""
"null","<div style=""color:white; font-size:60px;"">+</div>","null","html-keyboard-response","438","926240","0.0-19.0-1.3","fixation","","","","",""
"157.85499999765307","Stimuli/Hangul_M6.bmp","190","image-keyboard-response","439","926400","0.0-19.0-2.3","c2_test",",","","","","."
"624.6400000017602","<p style=""color:white;""> Next Figure: Male or Female? </p>","190","html-keyboard-response","440","927027","0.0-19.0-0.4","prediction","","","",".",""
"null","<div style=""color:white; font-size:60px;"">+</div>","null","html-keyboard-response","441","928029","0.0-19.0-1.4","fixation","","","","",""
"484.91500000085216","Stimuli/Hangul_F2.bmp","190","image-keyboard-response","442","928515","0.0-19.0-2.4","c2_test",".","","","","."
"953.5699999977369","<p style=""color:white;""> Next Figure: Male or Female? </p>","190","html-keyboard-response","443","929470","0.0-19.0-0.5","prediction","","","",".",""
"null","<div style=""color:white; font-size:60px;"">+</div>","null","html-keyboard-response","444","930472","0.0-19.0-1.5","fixation","","","","",""
"293.63999999617226","Stimuli/Hangul_M15.bmp","190","image-keyboard-response","445","930768","0.0-19.0-2.5","c2_test",",","","","","."
"708.6649999981746","<p style=""color:white;""> Next Figure: Male or Female? </p>","190","html-keyboard-response","446","931478","0.0-19.0-0.6","prediction","","","",".",""
"null","<div style=""color:white; font-size:60px;"">+</div>","null","html-keyboard-response","447","932481","0.0-19.0-1.6","fixation","","","","",""
"381.3900000023423","Stimuli/Hangul_F23.bmp","188","image-keyboard-response","448","932864","0.0-19.0-2.6","c2_test",".","","","",","
"677.2049999999581","<p style=""color:white;""> Next Figure: Male or Female? </p>","188","html-keyboard-response","449","933542","0.0-19.0-0.7","prediction","","","",",",""
"null","<div style=""color:white; font-size:60px;"">+</div>","null","html-keyboard-response","450","934545","0.0-19.0-1.7","fixation","","","","",""
"387.53000000002794","Stimuli/Hangul_M20.bmp","188","image-keyboard-response","451","934933","0.0-19.0-2.7","c2_test",",","","","",","
"691.8650000006892","<p style=""color:white;""> Next Figure: Male or Female? </p>","188","html-keyboard-response","452","935627","0.0-19.0-0.8","prediction","","","",",",""
"null","<div style=""color:white; font-size:60px;"">+</div>","null","html-keyboard-response","453","936630","0.0-19.0-1.8","fixation","","","","",""
"645.8000000056345","Stimuli/Hangul_M23.bmp","188","image-keyboard-response","454","937277","0.0-19.0-2.8","c2_test",",","","","",","
"816.6549999951385","<p style=""color:white;""> Next Figure: Male or Female? </p>","188","html-keyboard-response","455","938095","0.0-19.0-0.9","prediction","","","",",",""
"null","<div style=""color:white; font-size:60px;"">+</div>","null","html-keyboard-response","456","939097","0.0-19.0-1.9","fixation","","","","",""
"386.56999999505933","Stimuli/Hangul_M3.bmp","190","image-keyboard-response","457","939486","0.0-19.0-2.9","c2_test",",","","","","."
"577.0799999955343","<p style=""color:white;""> Next Figure: Male or Female? </p>","190","html-keyboard-response","458","940064","0.0-19.0-0.10","prediction","","","",".",""
"null","<div style=""color:white; font-size:60px;"">+</div>","null","html-keyboard-response","459","941066","0.0-19.0-1.10","fixation","","","","",""
"272.47000000358094","Stimuli/Hangul_F9.bmp","190","image-keyboard-response","460","941340","0.0-19.0-2.10","c2_test",".","","","","."
"740.3649999978952","<p style=""color:white;""> Next Figure: Male or Female? </p>","190","html-keyboard-response","461","942082","0.0-19.0-0.11","prediction","","","",".",""
"null","<div style=""color:white; font-size:60px;"">+</div>","null","html-keyboard-response","462","943084","0.0-19.0-1.11","fixation","","","","",""
"438.67499999771826","Stimuli/Hangul_M19.bmp","190","image-keyboard-response","463","943525","0.0-19.0-2.11","c2_test",",","","","","."
"727.165000003879","<p style=""color:white;""> Next Figure: Male or Female? </p>","190","html-keyboard-response","464","944254","0.0-19.0-0.12","prediction","","","",".",""
"null","<div style=""color:white; font-size:60px;"">+</div>","null","html-keyboard-response","465","945256","0.0-19.0-1.12","fixation","","","","",""
"1004.8950000053737","Stimuli/Hangul_M21.bmp","188","image-keyboard-response","466","946262","0.0-19.0-2.12","c2_test",",","","","",","
"491.76499999896623","<p style=""color:white;""> Next Figure: Male or Female? </p>","188","html-keyboard-response","467","946755","0.0-19.0-0.13","prediction","","","",",",""
"null","<div style=""color:white; font-size:60px;"">+</div>","null","html-keyboard-response","468","947756","0.0-19.0-1.13","fixation","","","","",""
"586.410000003525","Stimuli/Hangul_F13.bmp","188","image-keyboard-response","469","948344","0.0-19.0-2.13","c2_test",".","","","",","
"778.9750000010245","<p style=""color:white;""> Next Figure: Male or Female? </p>","188","html-keyboard-response","470","949126","0.0-19.0-0.14","prediction","","","",",",""
"null","<div style=""color:white; font-size:60px;"">+</div>","null","html-keyboard-response","471","950128","0.0-19.0-1.14","fixation","","","","",""
"727.9599999964703","Stimuli/Hangul_M4.bmp","188","image-keyboard-response","472","950858","0.0-19.0-2.14","c2_test",",","","","",","
"747.71999999939","<p style=""color:white;""> Next Figure: Male or Female? </p>","188","html-keyboard-response","473","951607","0.0-19.0-0.15","prediction","","","",",",""
"null","<div style=""color:white; font-size:60px;"">+</div>","null","html-keyboard-response","474","952610","0.0-19.0-1.15","fixation","","","","",""
"551.6999999962281","Stimuli/Hangul_M16.bmp","190","image-keyboard-response","475","953163","0.0-19.0-2.15","c2_test",",","","","","."
"530.049999993993","<p style=""color:white;""> Next Figure: Male or Female? </p>","190","html-keyboard-response","476","953695","0.0-19.0-0.16","prediction","","","",".",""
"null","<div style=""color:white; font-size:60px;"">+</div>","null","html-keyboard-response","477","954700","0.0-19.0-1.16","fixation","","","","",""
"193.40000000374857","Stimuli/Hangul_F11.bmp","190","image-keyboard-response","478","954895","0.0-19.0-2.16","c2_test",".","","","","."
"654.4699999940349","<p style=""color:white;""> Next Figure: Male or Female? </p>","188","html-keyboard-response","479","955550","0.0-19.0-0.17","prediction","","","",",",""
"null","<div style=""color:white; font-size:60px;"">+</div>","null","html-keyboard-response","480","956554","0.0-19.0-1.17","fixation","","","","",""
"496.0149999971036","Stimuli/Hangul_F21.bmp","188","image-keyboard-response","481","957051","0.0-19.0-2.17","c2_test",".","","","",","
"1076.4099999940954","<p style=""color:white;""> Next Figure: Male or Female? </p>","188","html-keyboard-response","482","958129","0.0-19.0-0.18","prediction","","","",",",""
"null","<div style=""color:white; font-size:60px;"">+</div>","null","html-keyboard-response","483","959132","0.0-19.0-1.18","fixation","","","","",""
"367.035000002943","Stimuli/Hangul_F4.bmp","188","image-keyboard-response","484","959501","0.0-19.0-2.18","c2_test",".","","","",","
"652.1950000023935","<p style=""color:white;""> Next Figure: Male or Female? </p>","188","html-keyboard-response","485","960155","0.0-19.0-0.19","prediction","","","",",",""
"null","<div style=""color:white; font-size:60px;"">+</div>","null","html-keyboard-response","486","961157","0.0-19.0-1.19","fixation","","","","",""
"884.5050000018673","Stimuli/Hangul_F19.bmp","188","image-keyboard-response","487","962043","0.0-19.0-2.19","c2_test",".","","","",","
"779.8899999980349","<p style=""color:white;""> Next Figure: Male or Female? </p>","188","html-keyboard-response","488","962824","0.0-19.0-0.20","prediction","","","",",",""
"null","<div style=""color:white; font-size:60px;"">+</div>","null","html-keyboard-response","489","963828","0.0-19.0-1.20","fixation","","","","",""
"43.78000000002794","Stimuli/Hangul_F17.bmp","190","image-keyboard-response","490","963873","0.0-19.0-2.20","c2_test",".","","","","."
"784.0749999958789","<p style=""color:white;""> Next Figure: Male or Female? </p>","190","html-keyboard-response","491","964659","0.0-19.0-0.21","prediction","","","",".",""
"null","<div style=""color:white; font-size:60px;"">+</div>","null","html-keyboard-response","492","965662","0.0-19.0-1.21","fixation","","","","",""
"629.580000000773","Stimuli/Hangul_M7.bmp","190","image-keyboard-response","493","966293","0.0-19.0-2.21","c2_test",",","","","","."
"783.3699999973178","<p style=""color:white;""> Next Figure: Male or Female? </p>","190","html-keyboard-response","494","967078","0.0-19.0-0.22","prediction","","","",".",""
"null","<div style=""color:white; font-size:60px;"">+</div>","null","html-keyboard-response","495","968079","0.0-19.0-1.22","fixation","","","","",""
"313.5099999998929","Stimuli/Hangul_F0.bmp","190","image-keyboard-response","496","968394","0.0-19.0-2.22","c2_test",".","","","","."
"676.4850000035949","<p style=""color:white;""> Next Figure: Male or Female? </p>","190","html-keyboard-response","497","969072","0.0-19.0-0.23","prediction","","","",".",""
"null","<div style=""color:white; font-size:60px;"">+</div>","null","html-keyboard-response","498","970074","0.0-19.0-1.23","fixation","","","","",""
"550.949999997043","Stimuli/Hangul_F10.bmp","190","image-keyboard-response","499","970627","0.0-19.0-2.23","c2_test",".","","","","."
"915.7100000011269","<p style=""color:white;""> Next Figure: Male or Female? </p>","190","html-keyboard-response","500","971544","0.0-19.0-0.24","prediction","","","",".",""
"null","<div style=""color:white; font-size:60px;"">+</div>","null","html-keyboard-response","501","972547","0.0-19.0-1.24","fixation","","","","",""
"263.39500000176486","Stimuli/Hangul_M9.bmp","190","image-keyboard-response","502","972812","0.0-19.0-2.24","c2_test",",","","","","."
"837.0450000001583","<p style=""color:white;""> Next Figure: Male or Female? </p>","188","html-keyboard-response","503","973651","0.0-19.0-0.25","prediction","","","",",",""
"null","<div style=""color:white; font-size:60px;"">+</div>","null","html-keyboard-response","504","974653","0.0-19.0-1.25","fixation","","","","",""
"844.7550000054762","Stimuli/Hangul_F16.bmp","188","image-keyboard-response","505","975499","0.0-19.0-2.25","c2_test",".","","","",","
"2481.9600000046194","<p style=""color:white;""> Next Figure: Male or Female? </p>","188","html-keyboard-response","506","977982","0.0-19.0-0.26","prediction","","","",",",""
"null","<div style=""color:white; font-size:60px;"">+</div>","null","html-keyboard-response","507","978984","0.0-19.0-1.26","fixation","","","","",""
"440.41500000457745","Stimuli/Hangul_M14.bmp","190","image-keyboard-response","508","979427","0.0-19.0-2.26","c2_test",",","","","","."
"810.9499999990221","<p style=""color:white;""> Next Figure: Male or Female? </p>","190","html-keyboard-response","509","980240","0.0-19.0-0.27","prediction","","","",".",""
"null","<div style=""color:white; font-size:60px;"">+</div>","null","html-keyboard-response","510","981242","0.0-19.0-1.27","fixation","","","","",""
"563.1649999995716","Stimuli/Hangul_M22.bmp","188","image-keyboard-response","511","981808","0.0-19.0-2.27","c2_test",",","","","",","
"654.2199999967124","<p style=""color:white;""> Next Figure: Male or Female? </p>","188","html-keyboard-response","512","982463","0.0-19.0-0.28","prediction","","","",",",""
"null","<div style=""color:white; font-size:60px;"">+</div>","null","html-keyboard-response","513","983466","0.0-19.0-1.28","fixation","","","","",""
"713.1200000003446","Stimuli/Hangul_F8.bmp","188","image-keyboard-response","514","984180","0.0-19.0-2.28","c2_test",".","","","",","
"846.4150000000373","<p style=""color:white;""> Next Figure: Male or Female? </p>","188","html-keyboard-response","515","985028","0.0-19.0-0.29","prediction","","","",",",""
"null","<div style=""color:white; font-size:60px;"">+</div>","null","html-keyboard-response","516","986030","0.0-19.0-1.29","fixation","","","","",""
"640.9249999996973","Stimuli/Hangul_F14.bmp","188","image-keyboard-response","517","986672","0.0-19.0-2.29","c2_test",".","","","",","
"695.4849999964936","<p style=""color:white;""> Next Figure: Male or Female? </p>","190","html-keyboard-response","518","987369","0.0-19.0-0.30","prediction","","","",".",""
"null","<div style=""color:white; font-size:60px;"">+</div>","null","html-keyboard-response","519","988370","0.0-19.0-1.30","fixation","","","","",""
"700.1949999976205","Stimuli/Hangul_M1.bmp","190","image-keyboard-response","520","989073","0.0-19.0-2.30","c2_test",",","","","","."
"1027.9399999999441","<p style=""color:white;""> Next Figure: Male or Female? </p>","190","html-keyboard-response","521","990102","0.0-19.0-0.31","prediction","","","",".",""
"null","<div style=""color:white; font-size:60px;"">+</div>","null","html-keyboard-response","522","991104","0.0-19.0-1.31","fixation","","","","",""
"627.5750000057742","Stimuli/Hangul_F7.bmp","190","image-keyboard-response","523","991733","0.0-19.0-2.31","c2_test",".","","","","."
"769.0649999930756","<p style=""color:white;""> Next Figure: Male or Female? </p>","190","html-keyboard-response","524","992504","0.0-19.0-0.32","prediction","","","",".",""
"null","<div style=""color:white; font-size:60px;"">+</div>","null","html-keyboard-response","525","993507","0.0-19.0-1.32","fixation","","","","",""
"519.4400000036694","Stimuli/Hangul_M10.bmp","190","image-keyboard-response","526","994028","0.0-19.0-2.32","c2_test",",","","","","."
"786.5499999970198","<p style=""color:white;""> Next Figure: Male or Female? </p>","190","html-keyboard-response","527","994816","0.0-19.0-0.33","prediction","","","",".",""
"null","<div style=""color:white; font-size:60px;"">+</div>","null","html-keyboard-response","528","995818","0.0-19.0-1.33","fixation","","","","",""
"244.6300000010524","Stimuli/Hangul_F18.bmp","190","image-keyboard-response","529","996064","0.0-19.0-2.33","c2_test",".","","","","."
"599.5850000035716","<p style=""color:white;""> Next Figure: Male or Female? </p>","188","html-keyboard-response","530","996665","0.0-19.0-0.34","prediction","","","",",",""
"null","<div style=""color:white; font-size:60px;"">+</div>","null","html-keyboard-response","531","997667","0.0-19.0-1.34","fixation","","","","",""
"382.2900000013178","Stimuli/Hangul_F1.bmp","188","image-keyboard-response","532","998050","0.0-19.0-2.34","c2_test",".","","","",","
"717.8850000054808","<p style=""color:white;""> Next Figure: Male or Female? </p>","188","html-keyboard-response","533","998770","0.0-19.0-0.35","prediction","","","",",",""
"null","<div style=""color:white; font-size:60px;"">+</div>","null","html-keyboard-response","534","999772","0.0-19.0-1.35","fixation","","","","",""
"462.3349999964703","Stimuli/Hangul_F6.bmp","188","image-keyboard-response","535","1000236","0.0-19.0-2.35","c2_test",".","","","",","
"731.0300000027055","<p style=""color:white;""> Next Figure: Male or Female? </p>","188","html-keyboard-response","536","1000970","0.0-19.0-0.36","prediction","","","",",",""
"null","<div style=""color:white; font-size:60px;"">+</div>","null","html-keyboard-response","537","1001971","0.0-19.0-1.36","fixation","","","","",""
"373.03999999852385","Stimuli/Hangul_F3.bmp","188","image-keyboard-response","538","1002345","0.0-19.0-2.36","c2_test",".","","","",","
"652.7399999977788","<p style=""color:white;""> Next Figure: Male or Female? </p>","188","html-keyboard-response","539","1003000","0.0-19.0-0.37","prediction","","","",",",""
"null","<div style=""color:white; font-size:60px;"">+</div>","null","html-keyboard-response","540","1004001","0.0-19.0-1.37","fixation","","","","",""
"816.8850000001257","Stimuli/Hangul_M13.bmp","188","image-keyboard-response","541","1004820","0.0-19.0-2.37","c2_test",",","","","",","
"518.1150000062771","<p style=""color:white;""> Next Figure: Male or Female? </p>","188","html-keyboard-response","542","1005339","0.0-19.0-0.38","prediction","","","",",",""
"null","<div style=""color:white; font-size:60px;"">+</div>","null","html-keyboard-response","543","1006342","0.0-19.0-1.38","fixation","","","","",""
"222.32000000076368","Stimuli/Hangul_M8.bmp","188","image-keyboard-response","544","1006566","0.0-19.0-2.38","c2_test",",","","","",","
"685.7700000036275","<p style=""color:white;""> Next Figure: Male or Female? </p>","188","html-keyboard-response","545","1007253","0.0-19.0-0.39","prediction","","","",",",""
"null","<div style=""color:white; font-size:60px;"">+</div>","null","html-keyboard-response","546","1008255","0.0-19.0-1.39","fixation","","","","",""
"499.44500000134576","Stimuli/Hangul_F20.bmp","188","image-keyboard-response","547","1008756","0.0-19.0-2.39","c2_test",".","","","",","
"897.2700000011828","<p style=""color:white;""> Next Figure: Male or Female? </p>","188","html-keyboard-response","548","1009655","0.0-19.0-0.40","prediction","","","",",",""
"null","<div style=""color:white; font-size:60px;"">+</div>","null","html-keyboard-response","549","1010658","0.0-19.0-1.40","fixation","","","","",""
"459.82999999972526","Stimuli/Hangul_M18.bmp","188","image-keyboard-response","550","1011120","0.0-19.0-2.40","c2_test",",","","","",","
"791.5699999940116","<p style=""color:white;""> Next Figure: Male or Female? </p>","188","html-keyboard-response","551","1011913","0.0-19.0-0.41","prediction","","","",",",""
"null","<div style=""color:white; font-size:60px;"">+</div>","null","html-keyboard-response","552","1012917","0.0-19.0-1.41","fixation","","","","",""
"223.0550000021467","Stimuli/Hangul_M17.bmp","188","image-keyboard-response","553","1013141","0.0-19.0-2.41","c2_test",",","","","",","
"691.0250000000233","<p style=""color:white;""> Next Figure: Male or Female? </p>","188","html-keyboard-response","554","1013836","0.0-19.0-0.42","prediction","","","",",",""
"null","<div style=""color:white; font-size:60px;"">+</div>","null","html-keyboard-response","555","1014838","0.0-19.0-1.42","fixation","","","","",""
"644.8549999985844","Stimuli/Hangul_F22.bmp","190","image-keyboard-response","556","1015485","0.0-19.0-2.42","c2_test",".","","","","."
"552.0850000029895","<p style=""color:white;""> Next Figure: Male or Female? </p>","190","html-keyboard-response","557","1016038","0.0-19.0-0.43","prediction","","","",".",""
"null","<div style=""color:white; font-size:60px;"">+</div>","null","html-keyboard-response","558","1017040","0.0-19.0-1.43","fixation","","","","",""
"220.71000000147615","Stimuli/Hangul_F5.bmp","190","image-keyboard-response","559","1017262","0.0-19.0-2.43","c2_test",".","","","","."
"753.5599999974947","<p style=""color:white;""> Next Figure: Male or Female? </p>","190","html-keyboard-response","560","1018017","0.0-19.0-0.44","prediction","","","",".",""
"null","<div style=""color:white; font-size:60px;"">+</div>","null","html-keyboard-response","561","1019018","0.0-19.0-1.44","fixation","","","","",""
"353.2550000017509","Stimuli/Hangul_M5.bmp","190","image-keyboard-response","562","1019373","0.0-19.0-2.44","c2_test",",","","","","."
"920.5650000002934","<p style=""color:white;""> Next Figure: Male or Female? </p>","190","html-keyboard-response","563","1020294","0.0-19.0-0.45","prediction","","","",".",""
"null","<div style=""color:white; font-size:60px;"">+</div>","null","html-keyboard-response","564","1021296","0.0-19.0-1.45","fixation","","","","",""
"640.179999994929","Stimuli/Hangul_M2.bmp","188","image-keyboard-response","565","1021938","0.0-19.0-2.45","c2_test",",","","","",","
"657.274999997695","<p style=""color:white;""> Next Figure: Male or Female? </p>","188","html-keyboard-response","566","1022596","0.0-19.0-0.46","prediction","","","",",",""
"null","<div style=""color:white; font-size:60px;"">+</div>","null","html-keyboard-response","567","1023598","0.0-19.0-1.46","fixation","","","","",""
"538.1500000003725","Stimuli/Hangul_F24.bmp","188","image-keyboard-response","568","1024138","0.0-19.0-2.46","c2_test",".","","","",","
"858.9050000009593","<p style=""color:white;""> Next Figure: Male or Female? </p>","188","html-keyboard-response","569","1024998","0.0-19.0-0.47","prediction","","","",",",""
"null","<div style=""color:white; font-size:60px;"">+</div>","null","html-keyboard-response","570","1026000","0.0-19.0-1.47","fixation","","","","",""
"307.505000004312","Stimuli/Hangul_M11.bmp","188","image-keyboard-response","571","1026309","0.0-19.0-2.47","c2_test",",","","","",","
"590.3150000012247","<p style=""color:white;""> Next Figure: Male or Female? </p>","188","html-keyboard-response","572","1026901","0.0-19.0-0.48","prediction","","","",",",""
"null","<div style=""color:white; font-size:60px;"">+</div>","null","html-keyboard-response","573","1027903","0.0-19.0-1.48","fixation","","","","",""
"1431.4549999982119","Stimuli/Hangul_M12.bmp","190","image-keyboard-response","574","1029336","0.0-19.0-2.48","c2_test",",","","","","."
"519.290000003879","<p style=""color:white;""> Next Figure: Male or Female? </p>","190","html-keyboard-response","575","1029857","0.0-19.0-0.49","prediction","","","",".",""
"null","<div style=""color:white; font-size:60px;"">+</div>","null","html-keyboard-response","576","1030860","0.0-19.0-1.49","fixation","","","","",""
"529.4499999945983","Stimuli/Hangul_M0.bmp","190","image-keyboard-response","577","1031391","0.0-19.0-2.49","c2_test",",","","","","."
"5770.430000004126","<p style=""color:white;"">Good job, block 1 complete! Please take a moment to rest.</p> <p style=""color:white;"">When you are ready to continue with block 2 of 4, press the space bar.</p> ","32","html-keyboard-response","578","1037164","0.0-20.0","","","","","",""
"417.6900000020396","<p style=""color:white;""> Next Figure: Male or Female? </p>","188","html-keyboard-response","579","1039584","0.0-21.0-0.0","prediction","","","",",",""
"null","<div style=""color:white; font-size:60px;"">+</div>","null","html-keyboard-response","580","1040586","0.0-21.0-1.0","fixation","","","","",""
"1413.880000000121","Stimuli/Hangul_M34.bmp","188","image-keyboard-response","581","1042002","0.0-21.0-2.0","c2_test",",","","","",","
"457.5150000017602","<p style=""color:white;""> Next Figure: Male or Female? </p>","188","html-keyboard-response","582","1042460","0.0-21.0-0.1","prediction","","","",",",""
"null","<div style=""color:white; font-size:60px;"">+</div>","null","html-keyboard-response","583","1043462","0.0-21.0-1.1","fixation","","","","",""
"628.5199999983888","Stimuli/Hangul_M30.bmp","188","image-keyboard-response","584","1044092","0.0-21.0-2.1","c2_test",",","","","",","
"411.7400000032503","<p style=""color:white;""> Next Figure: Male or Female? </p>","188","html-keyboard-response","585","1044506","0.0-21.0-0.2","prediction","","","",",",""
"null","<div style=""color:white; font-size:60px;"">+</div>","null","html-keyboard-response","586","1045509","0.0-21.0-1.2","fixation","","","","",""
"503.16499999468215","Stimuli/Hangul_M32.bmp","188","image-keyboard-response","587","1046013","0.0-21.0-2.2","c2_test",",","","","",","
"445.7600000023376","<p style=""color:white;""> Next Figure: Male or Female? </p>","188","html-keyboard-response","588","1046460","0.0-21.0-0.3","prediction","","","",",",""
"null","<div style=""color:white; font-size:60px;"">+</div>","null","html-keyboard-response","589","1047461","0.0-21.0-1.3","fixation","","","","",""
"914.0449999975972","Stimuli/Hangul_M46.bmp","188","image-keyboard-response","590","1048377","0.0-21.0-2.3","c2_test",",","","","",","
"574.0650000008754","<p style=""color:white;""> Next Figure: Male or Female? </p>","188","html-keyboard-response","591","1048952","0.0-21.0-0.4","prediction","","","",",",""
"null","<div style=""color:white; font-size:60px;"">+</div>","null","html-keyboard-response","592","1049954","0.0-21.0-1.4","fixation","","","","",""
"1021.7350000019651","Stimuli/Hangul_M28.bmp","190","image-keyboard-response","593","1050977","0.0-21.0-2.4","c2_test",",","","","","."
"462.03999999840744","<p style=""color:white;""> Next Figure: Male or Female? </p>","190","html-keyboard-response","594","1051442","0.0-21.0-0.5","prediction","","","",".",""
"null","<div style=""color:white; font-size:60px;"">+</div>","null","html-keyboard-response","595","1052445","0.0-21.0-1.5","fixation","","","","",""
"20.649999998509884","Stimuli/Hangul_M45.bmp","190","image-keyboard-response","596","1052468","0.0-21.0-2.5","c2_test",",","","","","."
"612.3799999984913","<p style=""color:white;""> Next Figure: Male or Female? </p>","190","html-keyboard-response","597","1053082","0.0-21.0-0.6","prediction","","","",".",""
"null","<div style=""color:white; font-size:60px;"">+</div>","null","html-keyboard-response","598","1054083","0.0-21.0-1.6","fixation","","","","",""
"573.6800000015646","Stimuli/Hangul_M35.bmp","188","image-keyboard-response","599","1054659","0.0-21.0-2.6","c2_test",",","","","",","
"558.9249999974854","<p style=""color:white;""> Next Figure: Male or Female? </p>","188","html-keyboard-response","600","1055219","0.0-21.0-0.7","prediction","","","",",",""
"null","<div style=""color:white; font-size:60px;"">+</div>","null","html-keyboard-response","601","1056223","0.0-21.0-1.7","fixation","","","","",""
"318.2299999971874","Stimuli/Hangul_F43.bmp","188","image-keyboard-response","602","1056543","0.0-21.0-2.7","c2_test",".","","","",","
"665.744999998482","<p style=""color:white;""> Next Figure: Male or Female? </p>","188","html-keyboard-response","603","1057210","0.0-21.0-0.8","prediction","","","",",",""
"null","<div style=""color:white; font-size:60px;"">+</div>","null","html-keyboard-response","604","1058213","0.0-21.0-1.8","fixation","","","","",""
"671.0450000027195","Stimuli/Hangul_M47.bmp","188","image-keyboard-response","605","1058886","0.0-21.0-2.8","c2_test",",","","","",","
"664.9149999937508","<p style=""color:white;""> Next Figure: Male or Female? </p>","188","html-keyboard-response","606","1059553","0.0-21.0-0.9","prediction","","","",",",""
"null","<div style=""color:white; font-size:60px;"">+</div>","null","html-keyboard-response","607","1060554","0.0-21.0-1.9","fixation","","","","",""
"323.9650000031106","Stimuli/Hangul_F25.bmp","188","image-keyboard-response","608","1060879","0.0-21.0-2.9","c2_test",".","","","",","
"1365.714999999851","<p style=""color:white;""> Next Figure: Male or Female? </p>","190","html-keyboard-response","609","1062246","0.0-21.0-0.10","prediction","","","",".",""
"null","<div style=""color:white; font-size:60px;"">+</div>","null","html-keyboard-response","610","1063248","0.0-21.0-1.10","fixation","","","","",""
"584.000000002794","Stimuli/Hangul_F35.bmp","190","image-keyboard-response","611","1063833","0.0-21.0-2.10","c2_test",".","","","","."
"666.855000003241","<p style=""color:white;""> Next Figure: Male or Female? </p>","190","html-keyboard-response","612","1064502","0.0-21.0-0.11","prediction","","","",".",""
"null","<div style=""color:white; font-size:60px;"">+</div>","null","html-keyboard-response","613","1065505","0.0-21.0-1.11","fixation","","","","",""
"222.43499999586493","Stimuli/Hangul_M41.bmp","190","image-keyboard-response","614","1065728","0.0-21.0-2.11","c2_test",",","","","","."
"521.0250000017695","<p style=""color:white;""> Next Figure: Male or Female? </p>","190","html-keyboard-response","615","1066250","0.0-21.0-0.12","prediction","","","",".",""
"null","<div style=""color:white; font-size:60px;"">+</div>","null","html-keyboard-response","616","1067253","0.0-21.0-1.12","fixation","","","","",""
"446.6199999952223","Stimuli/Hangul_M25.bmp","188","image-keyboard-response","617","1067701","0.0-21.0-2.12","c2_test",",","","","",","
"723.6850000044797","<p style=""color:white;""> Next Figure: Male or Female? </p>","188","html-keyboard-response","618","1068426","0.0-21.0-0.13","prediction","","","",",",""
"null","<div style=""color:white; font-size:60px;"">+</div>","null","html-keyboard-response","619","1069429","0.0-21.0-1.13","fixation","","","","",""
"89.03499999712221","Stimuli/Hangul_M38.bmp","188","image-keyboard-response","620","1069519","0.0-21.0-2.13","c2_test",",","","","",","
"921.795000002021","<p style=""color:white;""> Next Figure: Male or Female? </p>","188","html-keyboard-response","621","1070443","0.0-21.0-0.14","prediction","","","",",",""
"null","<div style=""color:white; font-size:60px;"">+</div>","null","html-keyboard-response","622","1071446","0.0-21.0-1.14","fixation","","","","",""
"252.62500000093132","Stimuli/Hangul_M43.bmp","188","image-keyboard-response","623","1071700","0.0-21.0-2.14","c2_test",",","","","",","
"485.40000000502914","<p style=""color:white;""> Next Figure: Male or Female? </p>","188","html-keyboard-response","624","1072190","0.0-21.0-0.15","prediction","","","",",",""
"null","<div style=""color:white; font-size:60px;"">+</div>","null","html-keyboard-response","625","1073192","0.0-21.0-1.15","fixation","","","","",""
"190.2600000030361","Stimuli/Hangul_F30.bmp","188","image-keyboard-response","626","1073383","0.0-21.0-2.15","c2_test",".","","","",","
"925.3699999973178","<p style=""color:white;""> Next Figure: Male or Female? </p>","188","html-keyboard-response","627","1074310","0.0-21.0-0.16","prediction","","","",",",""
"null","<div style=""color:white; font-size:60px;"">+</div>","null","html-keyboard-response","628","1075311","0.0-21.0-1.16","fixation","","","","",""
"19.03999999910593","Stimuli/Hangul_M27.bmp","188","image-keyboard-response","629","1075331","0.0-21.0-2.16","c2_test",",","","","",","
"651.6149999951012","<p style=""color:white;""> Next Figure: Male or Female? </p>","190","html-keyboard-response","630","1075984","0.0-21.0-0.17","prediction","","","",".",""
"null","<div style=""color:white; font-size:60px;"">+</div>","null","html-keyboard-response","631","1076986","0.0-21.0-1.17","fixation","","","","",""
"298.1249999939464","Stimuli/Hangul_F39.bmp","190","image-keyboard-response","632","1077285","0.0-21.0-2.17","c2_test",".","","","","."
"707.3299999975134","<p style=""color:white;""> Next Figure: Male or Female? </p>","190","html-keyboard-response","633","1077994","0.0-21.0-0.18","prediction","","","",".",""
"null","<div style=""color:white; font-size:60px;"">+</div>","null","html-keyboard-response","634","1078995","0.0-21.0-1.18","fixation","","","","",""
"3541.2350000040606","Stimuli/Hangul_M42.bmp","190","image-keyboard-response","635","1082537","0.0-21.0-2.18","c2_test",",","","","","."
"589.8850000011735","<p style=""color:white;""> Next Figure: Male or Female? </p>","190","html-keyboard-response","636","1083128","0.0-21.0-0.19","prediction","","","",".",""
"null","<div style=""color:white; font-size:60px;"">+</div>","null","html-keyboard-response","637","1084131","0.0-21.0-1.19","fixation","","","","",""
"578.7500000006985","Stimuli/Hangul_F28.bmp","190","image-keyboard-response","638","1084713","0.0-21.0-2.19","c2_test",".","","","","."
"546.2449999977835","<p style=""color:white;""> Next Figure: Male or Female? </p>","190","html-keyboard-response","639","1085261","0.0-21.0-0.20","prediction","","","",".",""
"null","<div style=""color:white; font-size:60px;"">+</div>","null","html-keyboard-response","640","1086264","0.0-21.0-1.20","fixation","","","","",""
"801.509999997681","Stimuli/Hangul_F47.bmp","188","image-keyboard-response","641","1087067","0.0-21.0-2.20","c2_test",".","","","",","
"498.9449999993667","<p style=""color:white;""> Next Figure: Male or Female? </p>","188","html-keyboard-response","642","1087567","0.0-21.0-0.21","prediction","","","",",",""
"null","<div style=""color:white; font-size:60px;"">+</div>","null","html-keyboard-response","643","1088570","0.0-21.0-1.21","fixation","","","","",""
"265.1350000014063","Stimuli/Hangul_F49.bmp","188","image-keyboard-response","644","1088836","0.0-21.0-2.21","c2_test",".","","","",","
"547.6950000009965","<p style=""color:white;""> Next Figure: Male or Female? </p>","188","html-keyboard-response","645","1089385","0.0-21.0-0.22","prediction","","","",",",""
"null","<div style=""color:white; font-size:60px;"">+</div>","null","html-keyboard-response","646","1090388","0.0-21.0-1.22","fixation","","","","",""
"68.82000000053085","Stimuli/Hangul_F45.bmp","188","image-keyboard-response","647","1090458","0.0-21.0-2.22","c2_test",".","","","",","
"518.759999999078","<p style=""color:white;""> Next Figure: Male or Female? </p>","188","html-keyboard-response","648","1090978","0.0-21.0-0.23","prediction","","","",",",""
"null","<div style=""color:white; font-size:60px;"">+</div>","null","html-keyboard-response","649","1091981","0.0-21.0-1.23","fixation","","","","",""
"7.649999999674037","Stimuli/Hangul_F42.bmp","188","image-keyboard-response","650","1091990","0.0-21.0-2.23","c2_test",".","","","",","
"510.0549999990035","<p style=""color:white;""> Next Figure: Male or Female? </p>","188","html-keyboard-response","651","1092501","0.0-21.0-0.24","prediction","","","",",",""
"null","<div style=""color:white; font-size:60px;"">+</div>","null","html-keyboard-response","652","1093504","0.0-21.0-1.24","fixation","","","","",""
"189.05000000074506","Stimuli/Hangul_F32.bmp","188","image-keyboard-response","653","1093694","0.0-21.0-2.24","c2_test",".","","","",","
"491.5250000047963","<p style=""color:white;""> Next Figure: Male or Female? </p>","188","html-keyboard-response","654","1094188","0.0-21.0-0.25","prediction","","","",",",""
"null","<div style=""color:white; font-size:60px;"">+</div>","null","html-keyboard-response","655","1095191","0.0-21.0-1.25","fixation","","","","",""
"2.2949999982956797","Stimuli/Hangul_M49.bmp","188","image-keyboard-response","656","1095196","0.0-21.0-2.25","c2_test",",","","","",","
