"rt","stimulus","key_press","trial_type","trial_index","time_elapsed","internal_node_id","test_part","correct_response","C1_train","C1","A","C2"
"1851.92499999539","<p style=""color:white;"">Welcome to the experiment! Press any key to begin.</p>","32","html-keyboard-response","0","1863","0.0-0.0","","","","","",""
"19607.30999999214","<p style=""color:white;"">You will see a series of abstract figures. They are adaptations of signs in the Korean alphabet, but that is not important for this study. </p><p style=""color:white;"">Abstract figures sometimes have a more masculine or feminine shape. Here, each figure has already been assigned a gender as <q>Male</q> or <q>Female</q> by a panel of respondents in a pilot study. The respondents were not given specific instructions on how to do this, but were only told to use their intuition and to take into account the entire configuration of the stimulus. </p><p style=""color:white;"">Your task now is to guess the assigned gender of each figure. Please press the corresponding response keys to indicate your choice: </p><p style=""color:white;""> Male &#8594 <q>,</q> (comma)</p><p style=""color:white;""> Female &#8594 <q>.</q> (period)</p><p style=""color:white;"">Press either response keys to continue.</p>","188","html-keyboard-response","1","21474","0.0-1.0","","","","","",""
"10868.705000000773","<p style=""color:white;"">Your choice is correct if it matches the gender assigned by the majority of respondents in the pilot study.</p> <p style=""color:white;"">For each correct choice you will receive 2 cents. There will be 200 trials divided into 4 blocks of 50 trials. You will be able to take a break after every 50 trials.</p> <p style=""color:white;"">Press the space bar to continue.</p>","32","html-keyboard-response","2","32345","0.0-2.0","","","","","",""
"2866.7049999930896","<p style=""color:white;"">Here are some examples.</p> <p style=""color:white;"">For each, guess whether the assigned figure is male-like or female-like and indicate your choice by pressing either response keys.</p> <p style=""color:white;"">Press the space bar to continue.</p>","32","html-keyboard-response","3","35213","0.0-3.0","","","","","",""
"null","<div style=""color:white; font-size:60px;"">+</div>","null","html-keyboard-response","4","38218","0.0-4.0-0.0","fixation","","","","",""
"4481.794999999693","Stimuli/Hangul_E1.bmp","190","image-keyboard-response","5","42703","0.0-4.0-1.0","c1_train",",",".","","",""
"null","<div style=""color:white; font-size:60px;"">+</div>","null","html-keyboard-response","6","43708","0.0-4.0-0.1","fixation","","","","",""
"1668.9799999876413","Stimuli/Hangul_E0.bmp","188","image-keyboard-response","7","45378","0.0-4.0-1.1","c1_train",",",",","","",""
"null","<div style=""color:white; font-size:60px;"">+</div>","null","html-keyboard-response","8","46380","0.0-4.0-0.2","fixation","","","","",""
"2391.6900000185706","Stimuli/Hangul_E2.bmp","190","image-keyboard-response","9","48772","0.0-4.0-1.2","c1_train",".",".","","",""
"2793.455000006361","<p style=""color:white;"">Let us begin! Press the space bar when you are ready to start block 1 of 4.</p> ","32","html-keyboard-response","10","51568","0.0-5.0","","","","","",""
"null","<div style=""color:white; font-size:60px;"">+</div>","null","html-keyboard-response","11","54572","0.0-6.0-0.0","fixation","","","","",""
"2388.4499999985565","Stimuli/Hangul_F21.bmp","190","image-keyboard-response","12","56963","0.0-6.0-1.0","test",".","",".","",""
"null","<div style=""color:white; font-size:60px;"">+</div>","null","html-keyboard-response","13","57967","0.0-6.0-0.1","fixation","","","","",""
"2055.8149999997113","Stimuli/Hangul_M19.bmp","190","image-keyboard-response","14","60025","0.0-6.0-1.1","test",",","",".","",""
"null","<div style=""color:white; font-size:60px;"">+</div>","null","html-keyboard-response","15","61027","0.0-6.0-0.2","fixation","","","","",""
"1573.5200000053737","Stimuli/Hangul_M2.bmp","188","image-keyboard-response","16","62603","0.0-6.0-1.2","test",",","",",","",""
"null","<div style=""color:white; font-size:60px;"">+</div>","null","html-keyboard-response","17","63604","0.0-6.0-0.3","fixation","","","","",""
"1432.0449999941047","Stimuli/Hangul_M23.bmp","190","image-keyboard-response","18","65038","0.0-6.0-1.3","test",",","",".","",""
"null","<div style=""color:white; font-size:60px;"">+</div>","null","html-keyboard-response","19","66039","0.0-6.0-0.4","fixation","","","","",""
"1678.6799999827053","Stimuli/Hangul_M0.bmp","188","image-keyboard-response","20","67720","0.0-6.0-1.4","test",",","",",","",""
"null","<div style=""color:white; font-size:60px;"">+</div>","null","html-keyboard-response","21","68725","0.0-6.0-0.5","fixation","","","","",""
"1756.9500000099652","Stimuli/Hangul_F0.bmp","190","image-keyboard-response","22","70484","0.0-6.0-1.5","test",".","",".","",""
"null","<div style=""color:white; font-size:60px;"">+</div>","null","html-keyboard-response","23","71486","0.0-6.0-0.6","fixation","","","","",""
"1509.9800000025425","Stimuli/Hangul_F3.bmp","188","image-keyboard-response","24","72997","0.0-6.0-1.6","test",".","",",","",""
"null","<div style=""color:white; font-size:60px;"">+</div>","null","html-keyboard-response","25","74001","0.0-6.0-0.7","fixation","","","","",""
"1526.2449999863748","Stimuli/Hangul_M8.bmp","188","image-keyboard-response","26","75528","0.0-6.0-1.7","test",",","",",","",""
"null","<div style=""color:white; font-size:60px;"">+</div>","null","html-keyboard-response","27","76531","0.0-6.0-0.8","fixation","","","","",""
"2923.964999994496","Stimuli/Hangul_M11.bmp","188","image-keyboard-response","28","79456","0.0-6.0-1.8","test",",","",",","",""
"null","<div style=""color:white; font-size:60px;"">+</div>","null","html-keyboard-response","29","80457","0.0-6.0-0.9","fixation","","","","",""
"1646.1849999905098","Stimuli/Hangul_M7.bmp","188","image-keyboard-response","30","82105","0.0-6.0-1.9","test",",","",",","",""
"null","<div style=""color:white; font-size:60px;"">+</div>","null","html-keyboard-response","31","83109","0.0-6.0-0.10","fixation","","","","",""
"1435.50999998115","Stimuli/Hangul_M3.bmp","188","image-keyboard-response","32","84547","0.0-6.0-1.10","test",",","",",","",""
"null","<div style=""color:white; font-size:60px;"">+</div>","null","html-keyboard-response","33","85549","0.0-6.0-0.11","fixation","","","","",""
"1397.0550000085495","Stimuli/Hangul_F8.bmp","188","image-keyboard-response","34","86948","0.0-6.0-1.11","test",".","",",","",""
"null","<div style=""color:white; font-size:60px;"">+</div>","null","html-keyboard-response","35","87951","0.0-6.0-0.12","fixation","","","","",""
"1726.760000019567","Stimuli/Hangul_M13.bmp","188","image-keyboard-response","36","89679","0.0-6.0-1.12","test",",","",",","",""
"null","<div style=""color:white; font-size:60px;"">+</div>","null","html-keyboard-response","37","90681","0.0-6.0-0.13","fixation","","","","",""
"1307.925000000978","Stimuli/Hangul_F4.bmp","190","image-keyboard-response","38","91993","0.0-6.0-1.13","test",".","",".","",""
"null","<div style=""color:white; font-size:60px;"">+</div>","null","html-keyboard-response","39","92996","0.0-6.0-0.14","fixation","","","","",""
"1630.3999999945518","Stimuli/Hangul_F16.bmp","188","image-keyboard-response","40","94627","0.0-6.0-1.14","test",".","",",","",""
"null","<div style=""color:white; font-size:60px;"">+</div>","null","html-keyboard-response","41","95630","0.0-6.0-0.15","fixation","","","","",""
"1480.6649999809451","Stimuli/Hangul_M10.bmp","188","image-keyboard-response","42","97111","0.0-6.0-1.15","test",",","",",","",""
"null","<div style=""color:white; font-size:60px;"">+</div>","null","html-keyboard-response","43","98113","0.0-6.0-0.16","fixation","","","","",""
"1291.079999995418","Stimuli/Hangul_M12.bmp","188","image-keyboard-response","44","99405","0.0-6.0-1.16","test",",","",",","",""
"null","<div style=""color:white; font-size:60px;"">+</div>","null","html-keyboard-response","45","100408","0.0-6.0-0.17","fixation","","","","",""
"1849.9949999968521","Stimuli/Hangul_F24.bmp","188","image-keyboard-response","46","102260","0.0-6.0-1.17","test",".","",",","",""
"null","<div style=""color:white; font-size:60px;"">+</div>","null","html-keyboard-response","47","103263","0.0-6.0-0.18","fixation","","","","",""
"1284.0699999942444","Stimuli/Hangul_F10.bmp","190","image-keyboard-response","48","104548","0.0-6.0-1.18","test",".","",".","",""
"null","<div style=""color:white; font-size:60px;"">+</div>","null","html-keyboard-response","49","105551","0.0-6.0-0.19","fixation","","","","",""
"1400.7399999827612","Stimuli/Hangul_M18.bmp","188","image-keyboard-response","50","106953","0.0-6.0-1.19","test",",","",",","",""
"null","<div style=""color:white; font-size:60px;"">+</div>","null","html-keyboard-response","51","107955","0.0-6.0-0.20","fixation","","","","",""
"1578.5350000078324","Stimuli/Hangul_M14.bmp","188","image-keyboard-response","52","109546","0.0-6.0-1.20","test",",","",",","",""
"null","<div style=""color:white; font-size:60px;"">+</div>","null","html-keyboard-response","53","110549","0.0-6.0-0.21","fixation","","","","",""
"1198.145000002114","Stimuli/Hangul_M6.bmp","188","image-keyboard-response","54","111748","0.0-6.0-1.21","test",",","",",","",""
"null","<div style=""color:white; font-size:60px;"">+</div>","null","html-keyboard-response","55","112749","0.0-6.0-0.22","fixation","","","","",""
"1371.1699999985285","Stimuli/Hangul_F7.bmp","188","image-keyboard-response","56","114122","0.0-6.0-1.22","test",".","",",","",""
"null","<div style=""color:white; font-size:60px;"">+</div>","null","html-keyboard-response","57","115124","0.0-6.0-0.23","fixation","","","","",""
"1731.5650000236928","Stimuli/Hangul_F23.bmp","188","image-keyboard-response","58","116856","0.0-6.0-1.23","test",".","",",","",""
"null","<div style=""color:white; font-size:60px;"">+</div>","null","html-keyboard-response","59","117860","0.0-6.0-0.24","fixation","","","","",""
"3852.600000012899","Stimuli/Hangul_F12.bmp","188","image-keyboard-response","60","121714","0.0-6.0-1.24","test",".","",",","",""
"null","<div style=""color:white; font-size:60px;"">+</div>","null","html-keyboard-response","61","122718","0.0-6.0-0.25","fixation","","","","",""
"1643.9400000090245","Stimuli/Hangul_F17.bmp","188","image-keyboard-response","62","124363","0.0-6.0-1.25","test",".","",",","",""
"null","<div style=""color:white; font-size:60px;"">+</div>","null","html-keyboard-response","63","125364","0.0-6.0-0.26","fixation","","","","",""
"1175.375000020722","Stimuli/Hangul_M22.bmp","188","image-keyboard-response","64","126541","0.0-6.0-1.26","test",",","",",","",""
"null","<div style=""color:white; font-size:60px;"">+</div>","null","html-keyboard-response","65","127543","0.0-6.0-0.27","fixation","","","","",""
"1308.9400000171736","Stimuli/Hangul_F6.bmp","188","image-keyboard-response","66","128854","0.0-6.0-1.27","test",".","",",","",""
"null","<div style=""color:white; font-size:60px;"">+</div>","null","html-keyboard-response","67","129856","0.0-6.0-0.28","fixation","","","","",""
"1299.7350000077859","Stimuli/Hangul_F2.bmp","188","image-keyboard-response","68","131158","0.0-6.0-1.28","test",".","",",","",""
"null","<div style=""color:white; font-size:60px;"">+</div>","null","html-keyboard-response","69","132162","0.0-6.0-0.29","fixation","","","","",""
"1455.4700000153389","Stimuli/Hangul_F1.bmp","190","image-keyboard-response","70","133620","0.0-6.0-1.29","test",".","",".","",""
"null","<div style=""color:white; font-size:60px;"">+</div>","null","html-keyboard-response","71","134623","0.0-6.0-0.30","fixation","","","","",""
"3155.804999987595","Stimuli/Hangul_F18.bmp","190","image-keyboard-response","72","137780","0.0-6.0-1.30","test",".","",".","",""
"null","<div style=""color:white; font-size:60px;"">+</div>","null","html-keyboard-response","73","138783","0.0-6.0-0.31","fixation","","","","",""
"1353.4949999884702","Stimuli/Hangul_F14.bmp","190","image-keyboard-response","74","140141","0.0-6.0-1.31","test",".","",".","",""
"null","<div style=""color:white; font-size:60px;"">+</div>","null","html-keyboard-response","75","141144","0.0-6.0-0.32","fixation","","","","",""
"2616.600000008475","Stimuli/Hangul_F20.bmp","190","image-keyboard-response","76","143762","0.0-6.0-1.32","test",".","",".","",""
"null","<div style=""color:white; font-size:60px;"">+</div>","null","html-keyboard-response","77","144764","0.0-6.0-0.33","fixation","","","","",""
"1817.5249999912921","Stimuli/Hangul_M1.bmp","188","image-keyboard-response","78","146584","0.0-6.0-1.33","test",",","",",","",""
"null","<div style=""color:white; font-size:60px;"">+</div>","null","html-keyboard-response","79","147585","0.0-6.0-0.34","fixation","","","","",""
"1967.4899999808986","Stimuli/Hangul_M24.bmp","188","image-keyboard-response","80","149554","0.0-6.0-1.34","test",",","",",","",""
"null","<div style=""color:white; font-size:60px;"">+</div>","null","html-keyboard-response","81","150557","0.0-6.0-0.35","fixation","","","","",""
"1121.6549999953713","Stimuli/Hangul_M16.bmp","188","image-keyboard-response","82","151680","0.0-6.0-1.35","test",",","",",","",""
"null","<div style=""color:white; font-size:60px;"">+</div>","null","html-keyboard-response","83","152682","0.0-6.0-0.36","fixation","","","","",""
"1203.0899999954272","Stimuli/Hangul_M5.bmp","188","image-keyboard-response","84","153887","0.0-6.0-1.36","test",",","",",","",""
"null","<div style=""color:white; font-size:60px;"">+</div>","null","html-keyboard-response","85","154891","0.0-6.0-0.37","fixation","","","","",""
"1254.5200000167824","Stimuli/Hangul_F22.bmp","190","image-keyboard-response","86","156147","0.0-6.0-1.37","test",".","",".","",""
"null","<div style=""color:white; font-size:60px;"">+</div>","null","html-keyboard-response","87","157149","0.0-6.0-0.38","fixation","","","","",""
"1149.4149999925867","Stimuli/Hangul_F19.bmp","190","image-keyboard-response","88","158300","0.0-6.0-1.38","test",".","",".","",""
"null","<div style=""color:white; font-size:60px;"">+</div>","null","html-keyboard-response","89","159301","0.0-6.0-0.39","fixation","","","","",""
"1553.070000023581","Stimuli/Hangul_M4.bmp","188","image-keyboard-response","90","160855","0.0-6.0-1.39","test",",","",",","",""
"null","<div style=""color:white; font-size:60px;"">+</div>","null","html-keyboard-response","91","161857","0.0-6.0-0.40","fixation","","","","",""
"1297.0550000027288","Stimuli/Hangul_M17.bmp","188","image-keyboard-response","92","163156","0.0-6.0-1.40","test",",","",",","",""
"null","<div style=""color:white; font-size:60px;"">+</div>","null","html-keyboard-response","93","164158","0.0-6.0-0.41","fixation","","","","",""
"1392.6900000078604","Stimuli/Hangul_F9.bmp","188","image-keyboard-response","94","165551","0.0-6.0-1.41","test",".","",",","",""
"null","<div style=""color:white; font-size:60px;"">+</div>","null","html-keyboard-response","95","166552","0.0-6.0-0.42","fixation","","","","",""
"1296.2949999782722","Stimuli/Hangul_F5.bmp","188","image-keyboard-response","96","167849","0.0-6.0-1.42","test",".","",",","",""
"null","<div style=""color:white; font-size:60px;"">+</div>","null","html-keyboard-response","97","168852","0.0-6.0-0.43","fixation","","","","",""
"1191.049999993993","Stimuli/Hangul_F13.bmp","188","image-keyboard-response","98","170044","0.0-6.0-1.43","test",".","",",","",""
"null","<div style=""color:white; font-size:60px;"">+</div>","null","html-keyboard-response","99","171047","0.0-6.0-0.44","fixation","","","","",""
"1432.7899999916553","Stimuli/Hangul_M21.bmp","188","image-keyboard-response","100","172482","0.0-6.0-1.44","test",",","",",","",""
"null","<div style=""color:white; font-size:60px;"">+</div>","null","html-keyboard-response","101","173484","0.0-6.0-0.45","fixation","","","","",""
"1315.7550000178162","Stimuli/Hangul_F11.bmp","188","image-keyboard-response","102","174801","0.0-6.0-1.45","test",".","",",","",""
"null","<div style=""color:white; font-size:60px;"">+</div>","null","html-keyboard-response","103","175803","0.0-6.0-0.46","fixation","","","","",""
"1241.8149999866728","Stimuli/Hangul_M20.bmp","188","image-keyboard-response","104","177047","0.0-6.0-1.46","test",",","",",","",""
"null","<div style=""color:white; font-size:60px;"">+</div>","null","html-keyboard-response","105","178049","0.0-6.0-0.47","fixation","","","","",""
"1242.6649999979418","Stimuli/Hangul_F15.bmp","188","image-keyboard-response","106","179293","0.0-6.0-1.47","test",".","",",","",""
"null","<div style=""color:white; font-size:60px;"">+</div>","null","html-keyboard-response","107","180296","0.0-6.0-0.48","fixation","","","","",""
"1300.004999997327","Stimuli/Hangul_M9.bmp","188","image-keyboard-response","108","181598","0.0-6.0-1.48","test",",","",",","",""
"null","<div style=""color:white; font-size:60px;"">+</div>","null","html-keyboard-response","109","182600","0.0-6.0-0.49","fixation","","","","",""
"1297.5700000242796","Stimuli/Hangul_M15.bmp","188","image-keyboard-response","110","183900","0.0-6.0-1.49","test",",","",",","",""
"6484.72499998752","<p style=""color:white;"">Good job, block 1 complete! Please take a moment to rest.</p> <p style=""color:white;"">When you are ready to continue with block 2 of 4, press the space bar.</p> ","32","html-keyboard-response","111","190386","0.0-7.0","","","","","",""
"null","<div style=""color:white; font-size:60px;"">+</div>","null","html-keyboard-response","112","193388","0.0-8.0-0.0","fixation","","","","",""
"2044.4050000223797","Stimuli/Hangul_F40.bmp","190","image-keyboard-response","113","195434","0.0-8.0-1.0","test",".","",".","",""
"null","<div style=""color:white; font-size:60px;"">+</div>","null","html-keyboard-response","114","196436","0.0-8.0-0.1","fixation","","","","",""
"1275.6050000025425","Stimuli/Hangul_F34.bmp","190","image-keyboard-response","115","197713","0.0-8.0-1.1","test",".","",".","",""
"null","<div style=""color:white; font-size:60px;"">+</div>","null","html-keyboard-response","116","198715","0.0-8.0-0.2","fixation","","","","",""
"1520.5149999819696","Stimuli/Hangul_M42.bmp","188","image-keyboard-response","117","200237","0.0-8.0-1.2","test",",","",",","",""
"null","<div style=""color:white; font-size:60px;"">+</div>","null","html-keyboard-response","118","201249","0.0-8.0-0.3","fixation","","","","",""
"1537.9700000048615","Stimuli/Hangul_F32.bmp","190","image-keyboard-response","119","202789","0.0-8.0-1.3","test",".","",".","",""
"null","<div style=""color:white; font-size:60px;"">+</div>","null","html-keyboard-response","120","203791","0.0-8.0-0.4","fixation","","","","",""
"1402.3650000162888","Stimuli/Hangul_M27.bmp","188","image-keyboard-response","121","205195","0.0-8.0-1.4","test",",","",",","",""
"null","<div style=""color:white; font-size:60px;"">+</div>","null","html-keyboard-response","122","206199","0.0-8.0-0.5","fixation","","","","",""
"1451.1699999857228","Stimuli/Hangul_M39.bmp","188","image-keyboard-response","123","207651","0.0-8.0-1.5","test",",","",",","",""
"null","<div style=""color:white; font-size:60px;"">+</div>","null","html-keyboard-response","124","208653","0.0-8.0-0.6","fixation","","","","",""
"1237.649999995483","Stimuli/Hangul_M45.bmp","188","image-keyboard-response","125","209892","0.0-8.0-1.6","test",",","",",","",""
"null","<div style=""color:white; font-size:60px;"">+</div>","null","html-keyboard-response","126","210895","0.0-8.0-0.7","fixation","","","","",""
"1233.795000007376","Stimuli/Hangul_M40.bmp","188","image-keyboard-response","127","212130","0.0-8.0-1.7","test",",","",",","",""
"null","<div style=""color:white; font-size:60px;"">+</div>","null","html-keyboard-response","128","213134","0.0-8.0-0.8","fixation","","","","",""
"1951.8000000098255","Stimuli/Hangul_F36.bmp","188","image-keyboard-response","129","215087","0.0-8.0-1.8","test",".","",",","",""
"null","<div style=""color:white; font-size:60px;"">+</div>","null","html-keyboard-response","130","216088","0.0-8.0-0.9","fixation","","","","",""
"1456.9650000194088","Stimuli/Hangul_M35.bmp","190","image-keyboard-response","131","217548","0.0-8.0-1.9","test",",","",".","",""
"null","<div style=""color:white; font-size:60px;"">+</div>","null","html-keyboard-response","132","218550","0.0-8.0-0.10","fixation","","","","",""
"1362.970000016503","Stimuli/Hangul_F45.bmp","190","image-keyboard-response","133","219914","0.0-8.0-1.10","test",".","",".","",""
"null","<div style=""color:white; font-size:60px;"">+</div>","null","html-keyboard-response","134","220917","0.0-8.0-0.11","fixation","","","","",""
"1751.4800000062678","Stimuli/Hangul_F39.bmp","190","image-keyboard-response","135","222669","0.0-8.0-1.11","test",".","",".","",""
"null","<div style=""color:white; font-size:60px;"">+</div>","null","html-keyboard-response","136","223675","0.0-8.0-0.12","fixation","","","","",""
"1390.6849999912083","Stimuli/Hangul_F37.bmp","190","image-keyboard-response","137","225068","0.0-8.0-1.12","test",".","",".","",""
"null","<div style=""color:white; font-size:60px;"">+</div>","null","html-keyboard-response","138","226071","0.0-8.0-0.13","fixation","","","","",""
"1358.5599999933038","Stimuli/Hangul_F31.bmp","190","image-keyboard-response","139","227430","0.0-8.0-1.13","test",".","",".","",""
"null","<div style=""color:white; font-size:60px;"">+</div>","null","html-keyboard-response","140","228433","0.0-8.0-0.14","fixation","","","","",""
"1351.9699999887962","Stimuli/Hangul_F26.bmp","188","image-keyboard-response","141","229785","0.0-8.0-1.14","test",".","",",","",""
"null","<div style=""color:white; font-size:60px;"">+</div>","null","html-keyboard-response","142","230787","0.0-8.0-0.15","fixation","","","","",""
"1248.105000006035","Stimuli/Hangul_F29.bmp","190","image-keyboard-response","143","232037","0.0-8.0-1.15","test",".","",".","",""
"null","<div style=""color:white; font-size:60px;"">+</div>","null","html-keyboard-response","144","233038","0.0-8.0-0.16","fixation","","","","",""
"1583.9299999934155","Stimuli/Hangul_F46.bmp","188","image-keyboard-response","145","234623","0.0-8.0-1.16","test",".","",",","",""
"null","<div style=""color:white; font-size:60px;"">+</div>","null","html-keyboard-response","146","235625","0.0-8.0-0.17","fixation","","","","",""
"1288.170000014361","Stimuli/Hangul_M41.bmp","188","image-keyboard-response","147","236914","0.0-8.0-1.17","test",",","",",","",""
"null","<div style=""color:white; font-size:60px;"">+</div>","null","html-keyboard-response","148","237916","0.0-8.0-0.18","fixation","","","","",""
"1289.4700000179","Stimuli/Hangul_M38.bmp","188","image-keyboard-response","149","239207","0.0-8.0-1.18","test",",","",",","",""
"null","<div style=""color:white; font-size:60px;"">+</div>","null","html-keyboard-response","150","240210","0.0-8.0-0.19","fixation","","","","",""
"1275.2000000036787","Stimuli/Hangul_M36.bmp","188","image-keyboard-response","151","241486","0.0-8.0-1.19","test",",","",",","",""
"null","<div style=""color:white; font-size:60px;"">+</div>","null","html-keyboard-response","152","242488","0.0-8.0-0.20","fixation","","","","",""
"1250.4500000213739","Stimuli/Hangul_M32.bmp","188","image-keyboard-response","153","243739","0.0-8.0-1.20","test",",","",",","",""
"null","<div style=""color:white; font-size:60px;"">+</div>","null","html-keyboard-response","154","244741","0.0-8.0-0.21","fixation","","","","",""
"1525.419999990845","Stimuli/Hangul_M28.bmp","188","image-keyboard-response","155","246267","0.0-8.0-1.21","test",",","",",","",""
"null","<div style=""color:white; font-size:60px;"">+</div>","null","html-keyboard-response","156","247269","0.0-8.0-0.22","fixation","","","","",""
"1334.8450000048615","Stimuli/Hangul_F30.bmp","190","image-keyboard-response","157","248605","0.0-8.0-1.22","test",".","",".","",""
"null","<div style=""color:white; font-size:60px;"">+</div>","null","html-keyboard-response","158","249607","0.0-8.0-0.23","fixation","","","","",""
"1369.3750000093132","Stimuli/Hangul_F42.bmp","190","image-keyboard-response","159","250979","0.0-8.0-1.23","test",".","",".","",""
"null","<div style=""color:white; font-size:60px;"">+</div>","null","html-keyboard-response","160","251982","0.0-8.0-0.24","fixation","","","","",""
"1379.594999976689","Stimuli/Hangul_F41.bmp","190","image-keyboard-response","161","253363","0.0-8.0-1.24","test",".","",".","",""
"null","<div style=""color:white; font-size:60px;"">+</div>","null","html-keyboard-response","162","254364","0.0-8.0-0.25","fixation","","","","",""
"1682.7549999870826","Stimuli/Hangul_M46.bmp","188","image-keyboard-response","163","256048","0.0-8.0-1.25","test",",","",",","",""
"null","<div style=""color:white; font-size:60px;"">+</div>","null","html-keyboard-response","164","257050","0.0-8.0-0.26","fixation","","","","",""
"1477.1599999803584","Stimuli/Hangul_F35.bmp","190","image-keyboard-response","165","258529","0.0-8.0-1.26","test",".","",".","",""
"null","<div style=""color:white; font-size:60px;"">+</div>","null","html-keyboard-response","166","259530","0.0-8.0-0.27","fixation","","","","",""
"1327.994999999646","Stimuli/Hangul_F33.bmp","190","image-keyboard-response","167","260859","0.0-8.0-1.27","test",".","",".","",""
"null","<div style=""color:white; font-size:60px;"">+</div>","null","html-keyboard-response","168","261861","0.0-8.0-0.28","fixation","","","","",""
"1579.1749999916647","Stimuli/Hangul_M31.bmp","190","image-keyboard-response","169","263441","0.0-8.0-1.28","test",",","",".","",""
"null","<div style=""color:white; font-size:60px;"">+</div>","null","html-keyboard-response","170","264442","0.0-8.0-0.29","fixation","","","","",""
"1402.5449999899138","Stimuli/Hangul_F48.bmp","188","image-keyboard-response","171","265846","0.0-8.0-1.29","test",".","",",","",""
"null","<div style=""color:white; font-size:60px;"">+</div>","null","html-keyboard-response","172","266847","0.0-8.0-0.30","fixation","","","","",""
"1439.075000002049","Stimuli/Hangul_F38.bmp","188","image-keyboard-response","173","268287","0.0-8.0-1.30","test",".","",",","",""
"null","<div style=""color:white; font-size:60px;"">+</div>","null","html-keyboard-response","174","269288","0.0-8.0-0.31","fixation","","","","",""
"1312.9250000056345","Stimuli/Hangul_M47.bmp","188","image-keyboard-response","175","270603","0.0-8.0-1.31","test",",","",",","",""
"null","<div style=""color:white; font-size:60px;"">+</div>","null","html-keyboard-response","176","271606","0.0-8.0-0.32","fixation","","","","",""
"2045.0549999950454","Stimuli/Hangul_F43.bmp","188","image-keyboard-response","177","273653","0.0-8.0-1.32","test",".","",",","",""
"null","<div style=""color:white; font-size:60px;"">+</div>","null","html-keyboard-response","178","274655","0.0-8.0-0.33","fixation","","","","",""
"1513.4649999963585","Stimuli/Hangul_F47.bmp","188","image-keyboard-response","179","276169","0.0-8.0-1.33","test",".","",",","",""
"null","<div style=""color:white; font-size:60px;"">+</div>","null","html-keyboard-response","180","277171","0.0-8.0-0.34","fixation","","","","",""
"1244.8049999948125","Stimuli/Hangul_M37.bmp","188","image-keyboard-response","181","278417","0.0-8.0-1.34","test",",","",",","",""
"null","<div style=""color:white; font-size:60px;"">+</div>","null","html-keyboard-response","182","279418","0.0-8.0-0.35","fixation","","","","",""
"1493.2149999949615","Stimuli/Hangul_F44.bmp","190","image-keyboard-response","183","280912","0.0-8.0-1.35","test",".","",".","",""
"null","<div style=""color:white; font-size:60px;"">+</div>","null","html-keyboard-response","184","281915","0.0-8.0-0.36","fixation","","","","",""
"1668.8650000141934","Stimuli/Hangul_M29.bmp","188","image-keyboard-response","185","283587","0.0-8.0-1.36","test",",","",",","",""
"null","<div style=""color:white; font-size:60px;"">+</div>","null","html-keyboard-response","186","284589","0.0-8.0-0.37","fixation","","","","",""
"1261.1949999991339","Stimuli/Hangul_M33.bmp","188","image-keyboard-response","187","285851","0.0-8.0-1.37","test",",","",",","",""
"null","<div style=""color:white; font-size:60px;"">+</div>","null","html-keyboard-response","188","286853","0.0-8.0-0.38","fixation","","","","",""
"1338.0900000047404","Stimuli/Hangul_F49.bmp","188","image-keyboard-response","189","288192","0.0-8.0-1.38","test",".","",",","",""
"null","<div style=""color:white; font-size:60px;"">+</div>","null","html-keyboard-response","190","289194","0.0-8.0-0.39","fixation","","","","",""
"1194.034999993164","Stimuli/Hangul_F25.bmp","188","image-keyboard-response","191","290389","0.0-8.0-1.39","test",".","",",","",""
"null","<div style=""color:white; font-size:60px;"">+</div>","null","html-keyboard-response","192","291391","0.0-8.0-0.40","fixation","","","","",""
"1467.9049999976996","Stimuli/Hangul_M25.bmp","188","image-keyboard-response","193","292861","0.0-8.0-1.40","test",",","",",","",""
"null","<div style=""color:white; font-size:60px;"">+</div>","null","html-keyboard-response","194","293862","0.0-8.0-0.41","fixation","","","","",""
"1435.3750000009313","Stimuli/Hangul_M49.bmp","188","image-keyboard-response","195","295300","0.0-8.0-1.41","test",",","",",","",""
"null","<div style=""color:white; font-size:60px;"">+</div>","null","html-keyboard-response","196","296303","0.0-8.0-0.42","fixation","","","","",""
"1671.3250000029802","Stimuli/Hangul_F28.bmp","190","image-keyboard-response","197","297975","0.0-8.0-1.42","test",".","",".","",""
"null","<div style=""color:white; font-size:60px;"">+</div>","null","html-keyboard-response","198","298976","0.0-8.0-0.43","fixation","","","","",""
"1487.7400000113994","Stimuli/Hangul_M44.bmp","188","image-keyboard-response","199","300466","0.0-8.0-1.43","test",",","",",","",""
"null","<div style=""color:white; font-size:60px;"">+</div>","null","html-keyboard-response","200","301468","0.0-8.0-0.44","fixation","","","","",""
"1765.8749999827705","Stimuli/Hangul_M26.bmp","188","image-keyboard-response","201","303235","0.0-8.0-1.44","test",",","",",","",""
"null","<div style=""color:white; font-size:60px;"">+</div>","null","html-keyboard-response","202","304237","0.0-8.0-0.45","fixation","","","","",""
"1125.964999984717","Stimuli/Hangul_M43.bmp","188","image-keyboard-response","203","305365","0.0-8.0-1.45","test",",","",",","",""
"null","<div style=""color:white; font-size:60px;"">+</div>","null","html-keyboard-response","204","306367","0.0-8.0-0.46","fixation","","","","",""
"1228.034999978263","Stimuli/Hangul_M34.bmp","188","image-keyboard-response","205","307596","0.0-8.0-1.46","test",",","",",","",""
"null","<div style=""color:white; font-size:60px;"">+</div>","null","html-keyboard-response","206","308597","0.0-8.0-0.47","fixation","","","","",""
"1138.6099999945145","Stimuli/Hangul_F27.bmp","188","image-keyboard-response","207","309737","0.0-8.0-1.47","test",".","",",","",""
"null","<div style=""color:white; font-size:60px;"">+</div>","null","html-keyboard-response","208","310740","0.0-8.0-0.48","fixation","","","","",""
"1354.3550000176765","Stimuli/Hangul_M48.bmp","188","image-keyboard-response","209","312096","0.0-8.0-1.48","test",",","",",","",""
"null","<div style=""color:white; font-size:60px;"">+</div>","null","html-keyboard-response","210","313098","0.0-8.0-0.49","fixation","","","","",""
"1168.7649999803398","Stimuli/Hangul_M30.bmp","188","image-keyboard-response","211","314268","0.0-8.0-1.49","test",",","",",","",""
"102982.03499999363","<p style=""color:white;"">Half way there! Please take a moment to rest.</p> <p style=""color:white;"">When you are ready to continue with block 3 of 4, press the space bar.</p> ","32","html-keyboard-response","212","417253","0.0-9.0","","","","","",""
"null","<div style=""color:white; font-size:60px;"">+</div>","null","html-keyboard-response","213","420258","0.0-10.0-0.0","fixation","","","","",""
"3029.195000010077","Stimuli/Hangul_M52.bmp","188","image-keyboard-response","214","423292","0.0-10.0-1.0","test",",","",",","",""
"null","<div style=""color:white; font-size:60px;"">+</div>","null","html-keyboard-response","215","424295","0.0-10.0-0.1","fixation","","","","",""
"1645.554999995511","Stimuli/Hangul_M72.bmp","188","image-keyboard-response","216","425942","0.0-10.0-1.1","test",",","",",","",""
"null","<div style=""color:white; font-size:60px;"">+</div>","null","html-keyboard-response","217","426944","0.0-10.0-0.2","fixation","","","","",""
"1213.2449999917299","Stimuli/Hangul_F56.bmp","190","image-keyboard-response","218","428159","0.0-10.0-1.2","test",".","",".","",""
"null","<div style=""color:white; font-size:60px;"">+</div>","null","html-keyboard-response","219","429163","0.0-10.0-0.3","fixation","","","","",""
"1392.4299999780487","Stimuli/Hangul_F62.bmp","188","image-keyboard-response","220","430557","0.0-10.0-1.3","test",".","",",","",""
"null","<div style=""color:white; font-size:60px;"">+</div>","null","html-keyboard-response","221","431560","0.0-10.0-0.4","fixation","","","","",""
"1302.815000002738","Stimuli/Hangul_F67.bmp","188","image-keyboard-response","222","432864","0.0-10.0-1.4","test",".","",",","",""
"null","<div style=""color:white; font-size:60px;"">+</div>","null","html-keyboard-response","223","433868","0.0-10.0-0.5","fixation","","","","",""
"1391.1099999968428","Stimuli/Hangul_M63.bmp","188","image-keyboard-response","224","435263","0.0-10.0-1.5","test",",","",",","",""
"null","<div style=""color:white; font-size:60px;"">+</div>","null","html-keyboard-response","225","436264","0.0-10.0-0.6","fixation","","","","",""
"1227.8499999956694","Stimuli/Hangul_F53.bmp","190","image-keyboard-response","226","437493","0.0-10.0-1.6","test",".","",".","",""
"null","<div style=""color:white; font-size:60px;"">+</div>","null","html-keyboard-response","227","438497","0.0-10.0-0.7","fixation","","","","",""
"1453.9349999977276","Stimuli/Hangul_F58.bmp","190","image-keyboard-response","228","439952","0.0-10.0-1.7","test",".","",".","",""
"null","<div style=""color:white; font-size:60px;"">+</div>","null","html-keyboard-response","229","440954","0.0-10.0-0.8","fixation","","","","",""
"1268.3100000140257","Stimuli/Hangul_F50.bmp","190","image-keyboard-response","230","442223","0.0-10.0-1.8","test",".","",".","",""
"null","<div style=""color:white; font-size:60px;"">+</div>","null","html-keyboard-response","231","443225","0.0-10.0-0.9","fixation","","","","",""
"1232.1550000051502","Stimuli/Hangul_F63.bmp","188","image-keyboard-response","232","444459","0.0-10.0-1.9","test",".","",",","",""
"null","<div style=""color:white; font-size:60px;"">+</div>","null","html-keyboard-response","233","445461","0.0-10.0-0.10","fixation","","","","",""
"1597.2699999983888","Stimuli/Hangul_M68.bmp","188","image-keyboard-response","234","447060","0.0-10.0-1.10","test",",","",",","",""
"null","<div style=""color:white; font-size:60px;"">+</div>","null","html-keyboard-response","235","448063","0.0-10.0-0.11","fixation","","","","",""
"1325.9149999939837","Stimuli/Hangul_M53.bmp","188","image-keyboard-response","236","449391","0.0-10.0-1.11","test",",","",",","",""
"null","<div style=""color:white; font-size:60px;"">+</div>","null","html-keyboard-response","237","450394","0.0-10.0-0.12","fixation","","","","",""
"1234.165000001667","Stimuli/Hangul_M74.bmp","188","image-keyboard-response","238","451629","0.0-10.0-1.12","test",",","",",","",""
"null","<div style=""color:white; font-size:60px;"">+</div>","null","html-keyboard-response","239","452630","0.0-10.0-0.13","fixation","","","","",""
"1437.3349999950733","Stimuli/Hangul_F68.bmp","190","image-keyboard-response","240","454069","0.0-10.0-1.13","test",".","",".","",""
"null","<div style=""color:white; font-size:60px;"">+</div>","null","html-keyboard-response","241","455071","0.0-10.0-0.14","fixation","","","","",""
"1366.5249999903608","Stimuli/Hangul_M55.bmp","188","image-keyboard-response","242","456439","0.0-10.0-1.14","test",",","",",","",""
"null","<div style=""color:white; font-size:60px;"">+</div>","null","html-keyboard-response","243","457442","0.0-10.0-0.15","fixation","","","","",""
"1304.854999994859","Stimuli/Hangul_F59.bmp","190","image-keyboard-response","244","458748","0.0-10.0-1.15","test",".","",".","",""
"null","<div style=""color:white; font-size:60px;"">+</div>","null","html-keyboard-response","245","459750","0.0-10.0-0.16","fixation","","","","",""
"1230.9100000129547","Stimuli/Hangul_M71.bmp","188","image-keyboard-response","246","460982","0.0-10.0-1.16","test",",","",",","",""
"null","<div style=""color:white; font-size:60px;"">+</div>","null","html-keyboard-response","247","461983","0.0-10.0-0.17","fixation","","","","",""
"1213.6049999971874","Stimuli/Hangul_M58.bmp","188","image-keyboard-response","248","463198","0.0-10.0-1.17","test",",","",",","",""
"null","<div style=""color:white; font-size:60px;"">+</div>","null","html-keyboard-response","249","464200","0.0-10.0-0.18","fixation","","","","",""
"1251.7649999936111","Stimuli/Hangul_F69.bmp","190","image-keyboard-response","250","465453","0.0-10.0-1.18","test",".","",".","",""
"null","<div style=""color:white; font-size:60px;"">+</div>","null","html-keyboard-response","251","466455","0.0-10.0-0.19","fixation","","","","",""
"1310.4799999855459","Stimuli/Hangul_M56.bmp","188","image-keyboard-response","252","467766","0.0-10.0-1.19","test",",","",",","",""
"null","<div style=""color:white; font-size:60px;"">+</div>","null","html-keyboard-response","253","468769","0.0-10.0-0.20","fixation","","","","",""
"1322.8449999878649","Stimuli/Hangul_F51.bmp","190","image-keyboard-response","254","470093","0.0-10.0-1.20","test",".","",".","",""
"null","<div style=""color:white; font-size:60px;"">+</div>","null","html-keyboard-response","255","471095","0.0-10.0-0.21","fixation","","","","",""
"1255.139999993844","Stimuli/Hangul_F74.bmp","190","image-keyboard-response","256","472352","0.0-10.0-1.21","test",".","",".","",""
"null","<div style=""color:white; font-size:60px;"">+</div>","null","html-keyboard-response","257","473353","0.0-10.0-0.22","fixation","","","","",""
"1245.425000000978","Stimuli/Hangul_F71.bmp","190","image-keyboard-response","258","474600","0.0-10.0-1.22","test",".","",".","",""
"null","<div style=""color:white; font-size:60px;"">+</div>","null","html-keyboard-response","259","475601","0.0-10.0-0.23","fixation","","","","",""
"1223.0350000027101","Stimuli/Hangul_F57.bmp","190","image-keyboard-response","260","476825","0.0-10.0-1.23","test",".","",".","",""
"null","<div style=""color:white; font-size:60px;"">+</div>","null","html-keyboard-response","261","477828","0.0-10.0-0.24","fixation","","","","",""
"1796.780000004219","Stimuli/Hangul_F72.bmp","190","image-keyboard-response","262","479626","0.0-10.0-1.24","test",".","",".","",""
"null","<div style=""color:white; font-size:60px;"">+</div>","null","html-keyboard-response","263","480629","0.0-10.0-0.25","fixation","","","","",""
"1286.8449999950826","Stimuli/Hangul_F60.bmp","190","image-keyboard-response","264","481917","0.0-10.0-1.25","test",".","",".","",""
"null","<div style=""color:white; font-size:60px;"">+</div>","null","html-keyboard-response","265","482920","0.0-10.0-0.26","fixation","","","","",""
"3175.519999989774","Stimuli/Hangul_M64.bmp","188","image-keyboard-response","266","486096","0.0-10.0-1.26","test",",","",",","",""
"null","<div style=""color:white; font-size:60px;"">+</div>","null","html-keyboard-response","267","487100","0.0-10.0-0.27","fixation","","","","",""
"1287.4299999966752","Stimuli/Hangul_M65.bmp","188","image-keyboard-response","268","488390","0.0-10.0-1.27","test",",","",",","",""
"null","<div style=""color:white; font-size:60px;"">+</div>","null","html-keyboard-response","269","489393","0.0-10.0-0.28","fixation","","","","",""
"1181.3850000035018","Stimuli/Hangul_M57.bmp","188","image-keyboard-response","270","490576","0.0-10.0-1.28","test",",","",",","",""
"null","<div style=""color:white; font-size:60px;"">+</div>","null","html-keyboard-response","271","491579","0.0-10.0-0.29","fixation","","","","",""
"1189.299999998184","Stimuli/Hangul_F54.bmp","188","image-keyboard-response","272","492770","0.0-10.0-1.29","test",".","",",","",""
"null","<div style=""color:white; font-size:60px;"">+</div>","null","html-keyboard-response","273","493772","0.0-10.0-0.30","fixation","","","","",""
"1420.894999988377","Stimuli/Hangul_M50.bmp","190","image-keyboard-response","274","495194","0.0-10.0-1.30","test",",","",".","",""
"null","<div style=""color:white; font-size:60px;"">+</div>","null","html-keyboard-response","275","496195","0.0-10.0-0.31","fixation","","","","",""
"1281.7999999970198","Stimuli/Hangul_M69.bmp","188","image-keyboard-response","276","497478","0.0-10.0-1.31","test",",","",",","",""
"null","<div style=""color:white; font-size:60px;"">+</div>","null","html-keyboard-response","277","498482","0.0-10.0-0.32","fixation","","","","",""
"1360.465000005206","Stimuli/Hangul_M67.bmp","190","image-keyboard-response","278","499844","0.0-10.0-1.32","test",",","",".","",""
"null","<div style=""color:white; font-size:60px;"">+</div>","null","html-keyboard-response","279","500846","0.0-10.0-0.33","fixation","","","","",""
"1626.689999975497","Stimuli/Hangul_F70.bmp","190","image-keyboard-response","280","502475","0.0-10.0-1.33","test",".","",".","",""
"null","<div style=""color:white; font-size:60px;"">+</div>","null","html-keyboard-response","281","503477","0.0-10.0-0.34","fixation","","","","",""
"1375.094999995781","Stimuli/Hangul_F55.bmp","188","image-keyboard-response","282","504854","0.0-10.0-1.34","test",".","",",","",""
"null","<div style=""color:white; font-size:60px;"">+</div>","null","html-keyboard-response","283","505856","0.0-10.0-0.35","fixation","","","","",""
"1350.3850000270177","Stimuli/Hangul_M66.bmp","188","image-keyboard-response","284","507209","0.0-10.0-1.35","test",",","",",","",""
"null","<div style=""color:white; font-size:60px;"">+</div>","null","html-keyboard-response","285","508211","0.0-10.0-0.36","fixation","","","","",""
"1318.6050000076648","Stimuli/Hangul_M60.bmp","188","image-keyboard-response","286","509531","0.0-10.0-1.36","test",",","",",","",""
"null","<div style=""color:white; font-size:60px;"">+</div>","null","html-keyboard-response","287","510533","0.0-10.0-0.37","fixation","","","","",""
"1380.9049999981653","Stimuli/Hangul_F65.bmp","190","image-keyboard-response","288","511915","0.0-10.0-1.37","test",".","",".","",""
"null","<div style=""color:white; font-size:60px;"">+</div>","null","html-keyboard-response","289","512917","0.0-10.0-0.38","fixation","","","","",""
"1321.0350000008475","Stimuli/Hangul_M59.bmp","188","image-keyboard-response","290","514241","0.0-10.0-1.38","test",",","",",","",""
"null","<div style=""color:white; font-size:60px;"">+</div>","null","html-keyboard-response","291","515243","0.0-10.0-0.39","fixation","","","","",""
"1273.3550000120886","Stimuli/Hangul_M73.bmp","188","image-keyboard-response","292","516518","0.0-10.0-1.39","test",",","",",","",""
"null","<div style=""color:white; font-size:60px;"">+</div>","null","html-keyboard-response","293","517520","0.0-10.0-0.40","fixation","","","","",""
"1301.1000000115018","Stimuli/Hangul_F66.bmp","190","image-keyboard-response","294","518822","0.0-10.0-1.40","test",".","",".","",""
"null","<div style=""color:white; font-size:60px;"">+</div>","null","html-keyboard-response","295","519824","0.0-10.0-0.41","fixation","","","","",""
"1623.619999998482","Stimuli/Hangul_F64.bmp","190","image-keyboard-response","296","521450","0.0-10.0-1.41","test",".","",".","",""
"null","<div style=""color:white; font-size:60px;"">+</div>","null","html-keyboard-response","297","522452","0.0-10.0-0.42","fixation","","","","",""
"1230.875000008382","Stimuli/Hangul_M70.bmp","190","image-keyboard-response","298","523685","0.0-10.0-1.42","test",",","",".","",""
"null","<div style=""color:white; font-size:60px;"">+</div>","null","html-keyboard-response","299","524688","0.0-10.0-0.43","fixation","","","","",""
"1373.315000004368","Stimuli/Hangul_M51.bmp","188","image-keyboard-response","300","526062","0.0-10.0-1.43","test",",","",",","",""
"null","<div style=""color:white; font-size:60px;"">+</div>","null","html-keyboard-response","301","527064","0.0-10.0-0.44","fixation","","","","",""
"1149.955000000773","Stimuli/Hangul_M54.bmp","188","image-keyboard-response","302","528215","0.0-10.0-1.44","test",",","",",","",""
"null","<div style=""color:white; font-size:60px;"">+</div>","null","html-keyboard-response","303","529218","0.0-10.0-0.45","fixation","","","","",""
"1212.5449999875855","Stimuli/Hangul_M62.bmp","188","image-keyboard-response","304","530431","0.0-10.0-1.45","test",",","",",","",""
"null","<div style=""color:white; font-size:60px;"">+</div>","null","html-keyboard-response","305","531433","0.0-10.0-0.46","fixation","","","","",""
"1385.1300000096671","Stimuli/Hangul_M61.bmp","188","image-keyboard-response","306","532819","0.0-10.0-1.46","test",",","",",","",""
"null","<div style=""color:white; font-size:60px;"">+</div>","null","html-keyboard-response","307","533820","0.0-10.0-0.47","fixation","","","","",""
"1306.0050000203773","Stimuli/Hangul_F73.bmp","190","image-keyboard-response","308","535127","0.0-10.0-1.47","test",".","",".","",""
"null","<div style=""color:white; font-size:60px;"">+</div>","null","html-keyboard-response","309","536129","0.0-10.0-0.48","fixation","","","","",""
"1367.0850000053179","Stimuli/Hangul_F61.bmp","190","image-keyboard-response","310","537497","0.0-10.0-1.48","test",".","",".","",""
"null","<div style=""color:white; font-size:60px;"">+</div>","null","html-keyboard-response","311","538500","0.0-10.0-0.49","fixation","","","","",""
"1385.9750000119675","Stimuli/Hangul_F52.bmp","188","image-keyboard-response","312","539887","0.0-10.0-1.49","test",".","",",","",""
"2542.394999996759","<p style=""color:white;"">One more block to go! Please take a moment to rest.</p> <p style=""color:white;"">When you are ready to continue with block 4 of 4, press the space bar.</p> ","32","html-keyboard-response","313","542431","0.0-11.0","","","","","",""
"null","<div style=""color:white; font-size:60px;"">+</div>","null","html-keyboard-response","314","545434","0.0-12.0-0.0","fixation","","","","",""
"1942.2400000039488","Stimuli/Hangul_M85.bmp","188","image-keyboard-response","315","547378","0.0-12.0-1.0","test",",","",",","",""
"null","<div style=""color:white; font-size:60px;"">+</div>","null","html-keyboard-response","316","548380","0.0-12.0-0.1","fixation","","","","",""
"1378.3750000002328","Stimuli/Hangul_M92.bmp","188","image-keyboard-response","317","549759","0.0-12.0-1.1","test",",","",",","",""
"null","<div style=""color:white; font-size:60px;"">+</div>","null","html-keyboard-response","318","550761","0.0-12.0-0.2","fixation","","","","",""
"1280.9750000014901","Stimuli/Hangul_F93.bmp","190","image-keyboard-response","319","552044","0.0-12.0-1.2","test",".","",".","",""
"null","<div style=""color:white; font-size:60px;"">+</div>","null","html-keyboard-response","320","553046","0.0-12.0-0.3","fixation","","","","",""
"1275.259999994887","Stimuli/Hangul_F75.bmp","190","image-keyboard-response","321","554323","0.0-12.0-1.3","test",".","",".","",""
"null","<div style=""color:white; font-size:60px;"">+</div>","null","html-keyboard-response","322","555325","0.0-12.0-0.4","fixation","","","","",""
"1616.5599999949336","Stimuli/Hangul_M98.bmp","188","image-keyboard-response","323","556943","0.0-12.0-1.4","test",",","",",","",""
"null","<div style=""color:white; font-size:60px;"">+</div>","null","html-keyboard-response","324","557945","0.0-12.0-0.5","fixation","","","","",""
"1823.2549999956973","Stimuli/Hangul_M80.bmp","188","image-keyboard-response","325","559771","0.0-12.0-1.5","test",",","",",","",""
"null","<div style=""color:white; font-size:60px;"">+</div>","null","html-keyboard-response","326","560773","0.0-12.0-0.6","fixation","","","","",""
"2034.7900000051595","Stimuli/Hangul_M95.bmp","190","image-keyboard-response","327","562809","0.0-12.0-1.6","test",",","",".","",""
"null","<div style=""color:white; font-size:60px;"">+</div>","null","html-keyboard-response","328","563811","0.0-12.0-0.7","fixation","","","","",""
"1784.2349999991711","Stimuli/Hangul_M84.bmp","190","image-keyboard-response","329","565596","0.0-12.0-1.7","test",",","",".","",""
"null","<div style=""color:white; font-size:60px;"">+</div>","null","html-keyboard-response","330","566599","0.0-12.0-0.8","fixation","","","","",""
"1285.9600000083447","Stimuli/Hangul_M94.bmp","188","image-keyboard-response","331","567886","0.0-12.0-1.8","test",",","",",","",""
"null","<div style=""color:white; font-size:60px;"">+</div>","null","html-keyboard-response","332","568887","0.0-12.0-0.9","fixation","","","","",""
"1289.8500000010245","Stimuli/Hangul_F92.bmp","190","image-keyboard-response","333","570179","0.0-12.0-1.9","test",".","",".","",""
"null","<div style=""color:white; font-size:60px;"">+</div>","null","html-keyboard-response","334","571183","0.0-12.0-0.10","fixation","","","","",""
"1272.610000014538","Stimuli/Hangul_M78.bmp","188","image-keyboard-response","335","572456","0.0-12.0-1.10","test",",","",",","",""
"null","<div style=""color:white; font-size:60px;"">+</div>","null","html-keyboard-response","336","573458","0.0-12.0-0.11","fixation","","","","",""
"1197.9149999970105","Stimuli/Hangul_M91.bmp","188","image-keyboard-response","337","574658","0.0-12.0-1.11","test",",","",",","",""
"null","<div style=""color:white; font-size:60px;"">+</div>","null","html-keyboard-response","338","575660","0.0-12.0-0.12","fixation","","","","",""
"1278.4349999856204","Stimuli/Hangul_M79.bmp","188","image-keyboard-response","339","576939","0.0-12.0-1.12","test",",","",",","",""
"null","<div style=""color:white; font-size:60px;"">+</div>","null","html-keyboard-response","340","577941","0.0-12.0-0.13","fixation","","","","",""
"1203.4550000098534","Stimuli/Hangul_M99.bmp","188","image-keyboard-response","341","579145","0.0-12.0-1.13","test",",","",",","",""
"null","<div style=""color:white; font-size:60px;"">+</div>","null","html-keyboard-response","342","580147","0.0-12.0-0.14","fixation","","","","",""
"1168.4749999840278","Stimuli/Hangul_F97.bmp","190","image-keyboard-response","343","581316","0.0-12.0-1.14","test",".","",".","",""
"null","<div style=""color:white; font-size:60px;"">+</div>","null","html-keyboard-response","344","582319","0.0-12.0-0.15","fixation","","","","",""
"1195.2649999875575","Stimuli/Hangul_M97.bmp","188","image-keyboard-response","345","583515","0.0-12.0-1.15","test",",","",",","",""
"null","<div style=""color:white; font-size:60px;"">+</div>","null","html-keyboard-response","346","584518","0.0-12.0-0.16","fixation","","","","",""
"1650.580000015907","Stimuli/Hangul_F95.bmp","190","image-keyboard-response","347","586169","0.0-12.0-1.16","test",".","",".","",""
"null","<div style=""color:white; font-size:60px;"">+</div>","null","html-keyboard-response","348","587172","0.0-12.0-0.17","fixation","","","","",""
"1238.7199999939185","Stimuli/Hangul_F86.bmp","190","image-keyboard-response","349","588411","0.0-12.0-1.17","test",".","",".","",""
"null","<div style=""color:white; font-size:60px;"">+</div>","null","html-keyboard-response","350","589414","0.0-12.0-0.18","fixation","","","","",""
"1239.369999995688","Stimuli/Hangul_F99.bmp","188","image-keyboard-response","351","590654","0.0-12.0-1.18","test",".","",",","",""
"null","<div style=""color:white; font-size:60px;"">+</div>","null","html-keyboard-response","352","591656","0.0-12.0-0.19","fixation","","","","",""
"1224.3000000016764","Stimuli/Hangul_F78.bmp","190","image-keyboard-response","353","592883","0.0-12.0-1.19","test",".","",".","",""
"null","<div style=""color:white; font-size:60px;"">+</div>","null","html-keyboard-response","354","593886","0.0-12.0-0.20","fixation","","","","",""
"1116.2350000231527","Stimuli/Hangul_M87.bmp","190","image-keyboard-response","355","595004","0.0-12.0-1.20","test",",","",".","",""
"null","<div style=""color:white; font-size:60px;"">+</div>","null","html-keyboard-response","356","596007","0.0-12.0-0.21","fixation","","","","",""
"1154.9799999920651","Stimuli/Hangul_F85.bmp","190","image-keyboard-response","357","597163","0.0-12.0-1.21","test",".","",".","",""
"null","<div style=""color:white; font-size:60px;"">+</div>","null","html-keyboard-response","358","598166","0.0-12.0-0.22","fixation","","","","",""
"1214.5199999795295","Stimuli/Hangul_F84.bmp","190","image-keyboard-response","359","599382","0.0-12.0-1.22","test",".","",".","",""
"null","<div style=""color:white; font-size:60px;"">+</div>","null","html-keyboard-response","360","600385","0.0-12.0-0.23","fixation","","","","",""
"1218.1500000006054","Stimuli/Hangul_F79.bmp","190","image-keyboard-response","361","601604","0.0-12.0-1.23","test",".","",".","",""
"null","<div style=""color:white; font-size:60px;"">+</div>","null","html-keyboard-response","362","602605","0.0-12.0-0.24","fixation","","","","",""
"1090.3499999840278","Stimuli/Hangul_F76.bmp","190","image-keyboard-response","363","603697","0.0-12.0-1.24","test",".","",".","",""
"null","<div style=""color:white; font-size:60px;"">+</div>","null","html-keyboard-response","364","604699","0.0-12.0-0.25","fixation","","","","",""
"1067.269999999553","Stimuli/Hangul_F81.bmp","190","image-keyboard-response","365","605768","0.0-12.0-1.25","test",".","",".","",""
"null","<div style=""color:white; font-size:60px;"">+</div>","null","html-keyboard-response","366","606770","0.0-12.0-0.26","fixation","","","","",""
"1222.1800000115763","Stimuli/Hangul_M89.bmp","188","image-keyboard-response","367","607993","0.0-12.0-1.26","test",",","",",","",""
"null","<div style=""color:white; font-size:60px;"">+</div>","null","html-keyboard-response","368","608995","0.0-12.0-0.27","fixation","","","","",""
"1306.0349999868777","Stimuli/Hangul_F87.bmp","190","image-keyboard-response","369","610302","0.0-12.0-1.27","test",".","",".","",""
"null","<div style=""color:white; font-size:60px;"">+</div>","null","html-keyboard-response","370","611303","0.0-12.0-0.28","fixation","","","","",""
"1237.0750000118278","Stimuli/Hangul_M96.bmp","188","image-keyboard-response","371","612541","0.0-12.0-1.28","test",",","",",","",""
"null","<div style=""color:white; font-size:60px;"">+</div>","null","html-keyboard-response","372","613542","0.0-12.0-0.29","fixation","","","","",""
"1233.2649999880232","Stimuli/Hangul_F94.bmp","190","image-keyboard-response","373","614777","0.0-12.0-1.29","test",".","",".","",""
"null","<div style=""color:white; font-size:60px;"">+</div>","null","html-keyboard-response","374","615779","0.0-12.0-0.30","fixation","","","","",""
"1560.620000003837","Stimuli/Hangul_F91.bmp","188","image-keyboard-response","375","617342","0.0-12.0-1.30","test",".","",",","",""
"null","<div style=""color:white; font-size:60px;"">+</div>","null","html-keyboard-response","376","618344","0.0-12.0-0.31","fixation","","","","",""
"1090.1249999878928","Stimuli/Hangul_F82.bmp","190","image-keyboard-response","377","619437","0.0-12.0-1.31","test",".","",".","",""
"null","<div style=""color:white; font-size:60px;"">+</div>","null","html-keyboard-response","378","620440","0.0-12.0-0.32","fixation","","","","",""
"1452.595000009751","Stimuli/Hangul_F90.bmp","190","image-keyboard-response","379","621893","0.0-12.0-1.32","test",".","",".","",""
"null","<div style=""color:white; font-size:60px;"">+</div>","null","html-keyboard-response","380","622896","0.0-12.0-0.33","fixation","","","","",""
"2043.6249999911524","Stimuli/Hangul_M93.bmp","188","image-keyboard-response","381","624941","0.0-12.0-1.33","test",",","",",","",""
"null","<div style=""color:white; font-size:60px;"">+</div>","null","html-keyboard-response","382","625944","0.0-12.0-0.34","fixation","","","","",""
"1603.2950000080746","Stimuli/Hangul_M90.bmp","188","image-keyboard-response","383","627550","0.0-12.0-1.34","test",",","",",","",""
"null","<div style=""color:white; font-size:60px;"">+</div>","null","html-keyboard-response","384","628552","0.0-12.0-0.35","fixation","","","","",""
"1229.7450000187382","Stimuli/Hangul_M76.bmp","188","image-keyboard-response","385","629783","0.0-12.0-1.35","test",",","",",","",""
"null","<div style=""color:white; font-size:60px;"">+</div>","null","html-keyboard-response","386","630787","0.0-12.0-0.36","fixation","","","","",""
"1078.8400000019465","Stimuli/Hangul_M81.bmp","188","image-keyboard-response","387","631867","0.0-12.0-1.36","test",",","",",","",""
"null","<div style=""color:white; font-size:60px;"">+</div>","null","html-keyboard-response","388","632869","0.0-12.0-0.37","fixation","","","","",""
"1172.3849999834783","Stimuli/Hangul_M88.bmp","188","image-keyboard-response","389","634043","0.0-12.0-1.37","test",",","",",","",""
"null","<div style=""color:white; font-size:60px;"">+</div>","null","html-keyboard-response","390","635044","0.0-12.0-0.38","fixation","","","","",""
"1094.104999996489","Stimuli/Hangul_M83.bmp","188","image-keyboard-response","391","636140","0.0-12.0-1.38","test",",","",",","",""
"null","<div style=""color:white; font-size:60px;"">+</div>","null","html-keyboard-response","392","637142","0.0-12.0-0.39","fixation","","","","",""
"1353.060000023106","Stimuli/Hangul_F98.bmp","190","image-keyboard-response","393","638496","0.0-12.0-1.39","test",".","",".","",""
"null","<div style=""color:white; font-size:60px;"">+</div>","null","html-keyboard-response","394","639500","0.0-12.0-0.40","fixation","","","","",""
"1248.1749999860767","Stimuli/Hangul_F83.bmp","190","image-keyboard-response","395","640749","0.0-12.0-1.40","test",".","",".","",""
"null","<div style=""color:white; font-size:60px;"">+</div>","null","html-keyboard-response","396","641755","0.0-12.0-0.41","fixation","","","","",""
"1339.6800000045914","Stimuli/Hangul_M75.bmp","188","image-keyboard-response","397","643096","0.0-12.0-1.41","test",",","",",","",""
"null","<div style=""color:white; font-size:60px;"">+</div>","null","html-keyboard-response","398","644100","0.0-12.0-0.42","fixation","","","","",""
"1127.3999999975786","Stimuli/Hangul_M77.bmp","188","image-keyboard-response","399","645228","0.0-12.0-1.42","test",",","",",","",""
"null","<div style=""color:white; font-size:60px;"">+</div>","null","html-keyboard-response","400","646231","0.0-12.0-0.43","fixation","","","","",""
"1442.929999990156","Stimuli/Hangul_F88.bmp","190","image-keyboard-response","401","647674","0.0-12.0-1.43","test",".","",".","",""
"null","<div style=""color:white; font-size:60px;"">+</div>","null","html-keyboard-response","402","648676","0.0-12.0-0.44","fixation","","","","",""
"1225.7349999854341","Stimuli/Hangul_F77.bmp","190","image-keyboard-response","403","649903","0.0-12.0-1.44","test",".","",".","",""
"null","<div style=""color:white; font-size:60px;"">+</div>","null","html-keyboard-response","404","650904","0.0-12.0-0.45","fixation","","","","",""
"1186.809999984689","Stimuli/Hangul_F80.bmp","190","image-keyboard-response","405","652092","0.0-12.0-1.45","test",".","",".","",""
"null","<div style=""color:white; font-size:60px;"">+</div>","null","html-keyboard-response","406","653094","0.0-12.0-0.46","fixation","","","","",""
"1188.4199999913108","Stimuli/Hangul_M82.bmp","188","image-keyboard-response","407","654283","0.0-12.0-1.46","test",",","",",","",""
"null","<div style=""color:white; font-size:60px;"">+</div>","null","html-keyboard-response","408","655285","0.0-12.0-0.47","fixation","","","","",""
"1455.5200000177138","Stimuli/Hangul_M86.bmp","188","image-keyboard-response","409","656742","0.0-12.0-1.47","test",",","",",","",""
"null","<div style=""color:white; font-size:60px;"">+</div>","null","html-keyboard-response","410","657743","0.0-12.0-0.48","fixation","","","","",""
"1292.7850000269245","Stimuli/Hangul_F96.bmp","190","image-keyboard-response","411","659039","0.0-12.0-1.48","test",".","",".","",""
"null","<div style=""color:white; font-size:60px;"">+</div>","null","html-keyboard-response","412","660041","0.0-12.0-0.49","fixation","","","","",""
"1322.9550000105519","Stimuli/Hangul_F89.bmp","190","image-keyboard-response","413","661365","0.0-12.0-1.49","test",".","",".","",""
"16526.519999984885","<p style=""color:white;"">Phase I of the experiment is complete.</p> <p style=""color:white;"">Press the space bar to proceed to Phase II of the experiment.</p> ","32","html-keyboard-response","414","677893","0.0-13.0","","","","","",""
"20390.340000012657","<p style=""color:white;"">Now we are interested in how well you can predict patterns in the series of figures. You will be asked to predict whether the next figure in the series is more male-like or female-like. When you see the <q>Next Figure</q> prompt, press the corresponding response keys to indicate your prediction: </p><p style=""color:white;""> Male &#8594 <q>,</q> (comma)</p><p style=""color:white;""> Female &#8594 <q>.</q> (period)</p><p style=""color:white;"">The actual figure will then appear on the screen. After you see the figure, please guess the assigned gender with response keys. </p><p style=""color:white;"">As before, you will receive 2 cents for correctly classifying each figure.</p><p style=""color:white;"">Press either response keys to continue.</p>","188","html-keyboard-response","415","700285","0.0-14.0","","","","","",""
"27095.624999987194","<p style=""color:white;"">PREDICTION BONUS</p> <p style=""color:white;"">Your prediction accuracy is the total number of correct predictions you make over the 200 trials.</p> <p style=""color:white;"">In addition to the 2 cents per correct figure classification, you have the chance to receive a bonus of 40 dollars IF your accuracy is above average relative to previous participants.</p><p style=""color:white;"">If your accuracy is below average relative to previous participants, then you will not receive the 40 dollar bonus.</p><p style=""color:white;"">Press the space bar to continue.</p>","32","html-keyboard-response","416","727382","0.0-15.0","","","","","",""
"8901.385000004666","<p style=""color:white;"">Here are some examples.</p> <p style=""color:white;"">For each, predict whether the next figure looks more male-like or female-like. Then, when the figure appears, guess whether it looks more male-like or female-like and indicate your choice.</p> <p style=""color:white;"">Press the space bar to continue.</p>","32","html-keyboard-response","417","736284","0.0-16.0","","","","","",""
"2217.4700000032317","<p style=""color:white;""> Next Figure: Male or Female? </p>","188","html-keyboard-response","418","740505","0.0-17.0-0.0","prediction_train","","","",",",""
"null","<div style=""color:white; font-size:60px;"">+</div>","null","html-keyboard-response","419","741506","0.0-17.0-1.0","fixation","","","","",""
"3978.000000002794","Stimuli/Hangul_E1.bmp","188","image-keyboard-response","420","745485","0.0-17.0-2.0","c2_train",",","","","",","
"1851.3000000093598","<p style=""color:white;""> Next Figure: Male or Female? </p>","188","html-keyboard-response","421","747341","0.0-17.0-0.1","prediction_train","","","",",",""
"null","<div style=""color:white; font-size:60px;"">+</div>","null","html-keyboard-response","422","748343","0.0-17.0-1.1","fixation","","","","",""
"2134.730000019772","Stimuli/Hangul_E2.bmp","190","image-keyboard-response","423","750480","0.0-17.0-2.1","c2_train",".","","","","."
"2879.595000005793","<p style=""color:white;""> Next Figure: Male or Female? </p>","188","html-keyboard-response","424","753362","0.0-17.0-0.2","prediction_train","","","",",",""
"null","<div style=""color:white; font-size:60px;"">+</div>","null","html-keyboard-response","425","754363","0.0-17.0-1.2","fixation","","","","",""
"1274.9049999983981","Stimuli/Hangul_E0.bmp","188","image-keyboard-response","426","755639","0.0-17.0-2.2","c2_train",",","","","",","
"2494.574999989709","<p style=""color:white;"">Let us begin! Press the space bar when you are ready to start block 1 of 4.</p> ","32","html-keyboard-response","427","758137","0.0-18.0","","","","","",""
"2452.5999999896158","<p style=""color:white;""> Next Figure: Male or Female? </p>","188","html-keyboard-response","428","762592","0.0-19.0-0.0","prediction","","","",",",""
"null","<div style=""color:white; font-size:60px;"">+</div>","null","html-keyboard-response","429","763595","0.0-19.0-1.0","fixation","","","","",""
"1273.7749999796506","Stimuli/Hangul_M7.bmp","188","image-keyboard-response","430","764871","0.0-19.0-2.0","c2_test",",","","","",","
"1247.6549999846611","<p style=""color:white;""> Next Figure: Male or Female? </p>","190","html-keyboard-response","431","766120","0.0-19.0-0.1","prediction","","","",".",""
"null","<div style=""color:white; font-size:60px;"">+</div>","null","html-keyboard-response","432","767123","0.0-19.0-1.1","fixation","","","","",""
"645.539999997709","Stimuli/Hangul_M9.bmp","188","image-keyboard-response","433","767770","0.0-19.0-2.1","c2_test",",","","","",","
"1996.5200000151526","<p style=""color:white;""> Next Figure: Male or Female? </p>","188","html-keyboard-response","434","769768","0.0-19.0-0.2","prediction","","","",",",""
"null","<div style=""color:white; font-size:60px;"">+</div>","null","html-keyboard-response","435","770769","0.0-19.0-1.2","fixation","","","","",""
"2042.394999996759","Stimuli/Hangul_M0.bmp","188","image-keyboard-response","436","772813","0.0-19.0-2.2","c2_test",",","","","",","
"1684.8900000040885","<p style=""color:white;""> Next Figure: Male or Female? </p>","188","html-keyboard-response","437","774500","0.0-19.0-0.3","prediction","","","",",",""
"null","<div style=""color:white; font-size:60px;"">+</div>","null","html-keyboard-response","438","775502","0.0-19.0-1.3","fixation","","","","",""
"643.6049999902025","Stimuli/Hangul_M15.bmp","188","image-keyboard-response","439","776147","0.0-19.0-2.3","c2_test",",","","","",","
"1155.1699999836273","<p style=""color:white;""> Next Figure: Male or Female? </p>","188","html-keyboard-response","440","777303","0.0-19.0-0.4","prediction","","","",",",""
"null","<div style=""color:white; font-size:60px;"">+</div>","null","html-keyboard-response","441","778306","0.0-19.0-1.4","fixation","","","","",""
"1216.0499999881722","Stimuli/Hangul_F23.bmp","188","image-keyboard-response","442","779523","0.0-19.0-2.4","c2_test",".","","","",","
"703.3349999983329","<p style=""color:white;""> Next Figure: Male or Female? </p>","188","html-keyboard-response","443","780229","0.0-19.0-0.5","prediction","","","",",",""
"null","<div style=""color:white; font-size:60px;"">+</div>","null","html-keyboard-response","444","781231","0.0-19.0-1.5","fixation","","","","",""
"1141.910000005737","Stimuli/Hangul_M10.bmp","188","image-keyboard-response","445","782374","0.0-19.0-2.5","c2_test",",","","","",","
"824.0999999979977","<p style=""color:white;""> Next Figure: Male or Female? </p>","188","html-keyboard-response","446","783201","0.0-19.0-0.6","prediction","","","",",",""
"null","<div style=""color:white; font-size:60px;"">+</div>","null","html-keyboard-response","447","784204","0.0-19.0-1.6","fixation","","","","",""
"1159.990000014659","Stimuli/Hangul_M22.bmp","188","image-keyboard-response","448","785365","0.0-19.0-2.6","c2_test",",","","","",","
"420.5000000074506","<p style=""color:white;""> Next Figure: Male or Female? </p>","190","html-keyboard-response","449","785787","0.0-19.0-0.7","prediction","","","",".",""
"null","<div style=""color:white; font-size:60px;"">+</div>","null","html-keyboard-response","450","786789","0.0-19.0-1.7","fixation","","","","",""
"1301.4799999946263","Stimuli/Hangul_F3.bmp","188","image-keyboard-response","451","788094","0.0-19.0-2.7","c2_test",".","","","",","
"1639.0099999844097","<p style=""color:white;""> Next Figure: Male or Female? </p>","188","html-keyboard-response","452","789735","0.0-19.0-0.8","prediction","","","",",",""
"null","<div style=""color:white; font-size:60px;"">+</div>","null","html-keyboard-response","453","790737","0.0-19.0-1.8","fixation","","","","",""
"1159.1849999967963","Stimuli/Hangul_F6.bmp","188","image-keyboard-response","454","791899","0.0-19.0-2.8","c2_test",".","","","",","
"453.4350000030827","<p style=""color:white;""> Next Figure: Male or Female? </p>","190","html-keyboard-response","455","792356","0.0-19.0-0.9","prediction","","","",".",""
"null","<div style=""color:white; font-size:60px;"">+</div>","null","html-keyboard-response","456","793359","0.0-19.0-1.9","fixation","","","","",""
"729.5950000116136","Stimuli/Hangul_F5.bmp","188","image-keyboard-response","457","794089","0.0-19.0-2.9","c2_test",".","","","",","
"596.7900000105146","<p style=""color:white;""> Next Figure: Male or Female? </p>","188","html-keyboard-response","458","794688","0.0-19.0-0.10","prediction","","","",",",""
"null","<div style=""color:white; font-size:60px;"">+</div>","null","html-keyboard-response","459","795690","0.0-19.0-1.10","fixation","","","","",""
"1373.1400000106078","Stimuli/Hangul_F2.bmp","188","image-keyboard-response","460","797065","0.0-19.0-2.10","c2_test",".","","","",","
"681.4700000104494","<p style=""color:white;""> Next Figure: Male or Female? </p>","188","html-keyboard-response","461","797749","0.0-19.0-0.11","prediction","","","",",",""
"null","<div style=""color:white; font-size:60px;"">+</div>","null","html-keyboard-response","462","798751","0.0-19.0-1.11","fixation","","","","",""
"1343.2949999987613","Stimuli/Hangul_F18.bmp","190","image-keyboard-response","463","800096","0.0-19.0-2.11","c2_test",".","","","","."
"1121.3600000191946","<p style=""color:white;""> Next Figure: Male or Female? </p>","190","html-keyboard-response","464","801219","0.0-19.0-0.12","prediction","","","",".",""
"null","<div style=""color:white; font-size:60px;"">+</div>","null","html-keyboard-response","465","802221","0.0-19.0-1.12","fixation","","","","",""
"1278.599999990547","Stimuli/Hangul_M4.bmp","188","image-keyboard-response","466","803500","0.0-19.0-2.12","c2_test",",","","","",","
"637.3700000112876","<p style=""color:white;""> Next Figure: Male or Female? </p>","188","html-keyboard-response","467","804141","0.0-19.0-0.13","prediction","","","",",",""
"null","<div style=""color:white; font-size:60px;"">+</div>","null","html-keyboard-response","468","805144","0.0-19.0-1.13","fixation","","","","",""
"1514.40499999444","Stimuli/Hangul_M1.bmp","188","image-keyboard-response","469","806661","0.0-19.0-2.13","c2_test",",","","","",","
"1022.8700000152458","<p style=""color:white;""> Next Figure: Male or Female? </p>","188","html-keyboard-response","470","807687","0.0-19.0-0.14","prediction","","","",",",""
"null","<div style=""color:white; font-size:60px;"">+</div>","null","html-keyboard-response","471","808690","0.0-19.0-1.14","fixation","","","","",""
"1412.865000020247","Stimuli/Hangul_F19.bmp","190","image-keyboard-response","472","810105","0.0-19.0-2.14","c2_test",".","","","","."
"1107.369999983348","<p style=""color:white;""> Next Figure: Male or Female? </p>","188","html-keyboard-response","473","811215","0.0-19.0-0.15","prediction","","","",",",""
"null","<div style=""color:white; font-size:60px;"">+</div>","null","html-keyboard-response","474","812217","0.0-19.0-1.15","fixation","","","","",""
"1218.764999997802","Stimuli/Hangul_M8.bmp","188","image-keyboard-response","475","813436","0.0-19.0-2.15","c2_test",",","","","",","
"780.9699999925215","<p style=""color:white;""> Next Figure: Male or Female? </p>","188","html-keyboard-response","476","814218","0.0-19.0-0.16","prediction","","","",",",""
"null","<div style=""color:white; font-size:60px;"">+</div>","null","html-keyboard-response","477","815220","0.0-19.0-1.16","fixation","","","","",""
"1192.4500000022817","Stimuli/Hangul_M3.bmp","188","image-keyboard-response","478","816414","0.0-19.0-2.16","c2_test",",","","","",","
"1037.7600000065286","<p style=""color:white;""> Next Figure: Male or Female? </p>","190","html-keyboard-response","479","817453","0.0-19.0-0.17","prediction","","","",".",""
"null","<div style=""color:white; font-size:60px;"">+</div>","null","html-keyboard-response","480","818455","0.0-19.0-1.17","fixation","","","","",""
"1636.0350000031758","Stimuli/Hangul_F9.bmp","190","image-keyboard-response","481","820093","0.0-19.0-2.17","c2_test",".","","","","."
"1283.3000000100583","<p style=""color:white;""> Next Figure: Male or Female? </p>","188","html-keyboard-response","482","821379","0.0-19.0-0.18","prediction","","","",",",""
"null","<div style=""color:white; font-size:60px;"">+</div>","null","html-keyboard-response","483","822381","0.0-19.0-1.18","fixation","","","","",""
"1248.6799999896903","Stimuli/Hangul_F13.bmp","188","image-keyboard-response","484","823632","0.0-19.0-2.18","c2_test",".","","","",","
"975.3400000045076","<p style=""color:white;""> Next Figure: Male or Female? </p>","188","html-keyboard-response","485","824609","0.0-19.0-0.19","prediction","","","",",",""
"null","<div style=""color:white; font-size:60px;"">+</div>","null","html-keyboard-response","486","825612","0.0-19.0-1.19","fixation","","","","",""
"1238.7949999829289","Stimuli/Hangul_M11.bmp","188","image-keyboard-response","487","826851","0.0-19.0-2.19","c2_test",",","","","",","
"705.3350000060163","<p style=""color:white;""> Next Figure: Male or Female? </p>","188","html-keyboard-response","488","827558","0.0-19.0-0.20","prediction","","","",",",""
"null","<div style=""color:white; font-size:60px;"">+</div>","null","html-keyboard-response","489","828561","0.0-19.0-1.20","fixation","","","","",""
"1347.3749999830034","Stimuli/Hangul_F12.bmp","188","image-keyboard-response","490","829909","0.0-19.0-2.20","c2_test",".","","","",","
"1054.5149999961723","<p style=""color:white;""> Next Figure: Male or Female? </p>","188","html-keyboard-response","491","830965","0.0-19.0-0.21","prediction","","","",",",""
"null","<div style=""color:white; font-size:60px;"">+</div>","null","html-keyboard-response","492","831967","0.0-19.0-1.21","fixation","","","","",""
"1646.470000006957","Stimuli/Hangul_F16.bmp","190","image-keyboard-response","493","833614","0.0-19.0-2.21","c2_test",".","","","","."
"961.7250000010245","<p style=""color:white;""> Next Figure: Male or Female? </p>","190","html-keyboard-response","494","834577","0.0-19.0-0.22","prediction","","","",".",""
"null","<div style=""color:white; font-size:60px;"">+</div>","null","html-keyboard-response","495","835578","0.0-19.0-1.22","fixation","","","","",""
"1506.9150000053924","Stimuli/Hangul_M24.bmp","188","image-keyboard-response","496","837087","0.0-19.0-2.22","c2_test",",","","","",","
"953.3249999803957","<p style=""color:white;""> Next Figure: Male or Female? </p>","188","html-keyboard-response","497","838042","0.0-19.0-0.23","prediction","","","",",",""
"null","<div style=""color:white; font-size:60px;"">+</div>","null","html-keyboard-response","498","839043","0.0-19.0-1.23","fixation","","","","",""
"1509.794999990845","Stimuli/Hangul_F0.bmp","188","image-keyboard-response","499","840555","0.0-19.0-2.23","c2_test",".","","","",","
"944.1349999979138","<p style=""color:white;""> Next Figure: Male or Female? </p>","188","html-keyboard-response","500","841501","0.0-19.0-0.24","prediction","","","",",",""
"null","<div style=""color:white; font-size:60px;"">+</div>","null","html-keyboard-response","501","842503","0.0-19.0-1.24","fixation","","","","",""
"1493.0250000033993","Stimuli/Hangul_M13.bmp","188","image-keyboard-response","502","843997","0.0-19.0-2.24","c2_test",",","","","",","
"1086.3249999820255","<p style=""color:white;""> Next Figure: Male or Female? </p>","188","html-keyboard-response","503","845084","0.0-19.0-0.25","prediction","","","",",",""
"null","<div style=""color:white; font-size:60px;"">+</div>","null","html-keyboard-response","504","846086","0.0-19.0-1.25","fixation","","","","",""
"1868.205000006128","Stimuli/Hangul_M20.bmp","188","image-keyboard-response","505","847955","0.0-19.0-2.25","c2_test",",","","","",","
"643.4949999966193","<p style=""color:white;""> Next Figure: Male or Female? </p>","190","html-keyboard-response","506","848602","0.0-19.0-0.26","prediction","","","",".",""
"null","<div style=""color:white; font-size:60px;"">+</div>","null","html-keyboard-response","507","849604","0.0-19.0-1.26","fixation","","","","",""
"1204.1500000050291","Stimuli/Hangul_F15.bmp","188","image-keyboard-response","508","850811","0.0-19.0-2.26","c2_test",".","","","",","
"748.1100000150036","<p style=""color:white;""> Next Figure: Male or Female? </p>","188","html-keyboard-response","509","851561","0.0-19.0-0.27","prediction","","","",",",""
"null","<div style=""color:white; font-size:60px;"">+</div>","null","html-keyboard-response","510","852563","0.0-19.0-1.27","fixation","","","","",""
"1276.2499999953434","Stimuli/Hangul_F7.bmp","188","image-keyboard-response","511","853840","0.0-19.0-2.27","c2_test",".","","","",","
"640.0700000231154","<p style=""color:white;""> Next Figure: Male or Female? </p>","190","html-keyboard-response","512","854482","0.0-19.0-0.28","prediction","","","",".",""
"null","<div style=""color:white; font-size:60px;"">+</div>","null","html-keyboard-response","513","855485","0.0-19.0-1.28","fixation","","","","",""
"1870.9649999800604","Stimuli/Hangul_F24.bmp","190","image-keyboard-response","514","857357","0.0-19.0-2.28","c2_test",".","","","","."
"643.7849999929313","<p style=""color:white;""> Next Figure: Male or Female? </p>","188","html-keyboard-response","515","858002","0.0-19.0-0.29","prediction","","","",",",""
"null","<div style=""color:white; font-size:60px;"">+</div>","null","html-keyboard-response","516","859005","0.0-19.0-1.29","fixation","","","","",""
"1388.7249999970663","Stimuli/Hangul_M5.bmp","188","image-keyboard-response","517","860395","0.0-19.0-2.29","c2_test",",","","","",","
"933.164999994915","<p style=""color:white;""> Next Figure: Male or Female? </p>","188","html-keyboard-response","518","861329","0.0-19.0-0.30","prediction","","","",",",""
"null","<div style=""color:white; font-size:60px;"">+</div>","null","html-keyboard-response","519","862331","0.0-19.0-1.30","fixation","","","","",""
"1193.5449999873526","Stimuli/Hangul_M6.bmp","188","image-keyboard-response","520","863526","0.0-19.0-2.30","c2_test",",","","","",","
"628.3950000070035","<p style=""color:white;""> Next Figure: Male or Female? </p>","188","html-keyboard-response","521","864156","0.0-19.0-0.31","prediction","","","",",",""
"null","<div style=""color:white; font-size:60px;"">+</div>","null","html-keyboard-response","522","865157","0.0-19.0-1.31","fixation","","","","",""
"1256.2050000124145","Stimuli/Hangul_F14.bmp","190","image-keyboard-response","523","866415","0.0-19.0-2.31","c2_test",".","","","","."
"602.485000010347","<p style=""color:white;""> Next Figure: Male or Female? </p>","190","html-keyboard-response","524","867019","0.0-19.0-0.32","prediction","","","",".",""
"null","<div style=""color:white; font-size:60px;"">+</div>","null","html-keyboard-response","525","868022","0.0-19.0-1.32","fixation","","","","",""
"1201.6500000027008","Stimuli/Hangul_F11.bmp","188","image-keyboard-response","526","869224","0.0-19.0-2.32","c2_test",".","","","",","
"764.5699999993667","<p style=""color:white;""> Next Figure: Male or Female? </p>","188","html-keyboard-response","527","869990","0.0-19.0-0.33","prediction","","","",",",""
"null","<div style=""color:white; font-size:60px;"">+</div>","null","html-keyboard-response","528","870992","0.0-19.0-1.33","fixation","","","","",""
"1312.9400000034366","Stimuli/Hangul_M19.bmp","188","image-keyboard-response","529","872306","0.0-19.0-2.33","c2_test",",","","","",","
"1202.3350000090431","<p style=""color:white;""> Next Figure: Male or Female? </p>","188","html-keyboard-response","530","873509","0.0-19.0-0.34","prediction","","","",",",""
"null","<div style=""color:white; font-size:60px;"">+</div>","null","html-keyboard-response","531","874511","0.0-19.0-1.34","fixation","","","","",""
"1313.8850000104867","Stimuli/Hangul_F20.bmp","190","image-keyboard-response","532","875827","0.0-19.0-2.34","c2_test",".","","","","."
"839.2800000146963","<p style=""color:white;""> Next Figure: Male or Female? </p>","190","html-keyboard-response","533","876668","0.0-19.0-0.35","prediction","","","",".",""
"null","<div style=""color:white; font-size:60px;"">+</div>","null","html-keyboard-response","534","877670","0.0-19.0-1.35","fixation","","","","",""
"1322.970000008354","Stimuli/Hangul_F17.bmp","188","image-keyboard-response","535","878994","0.0-19.0-2.35","c2_test",".","","","",","
"500.3199999919161","<p style=""color:white;""> Next Figure: Male or Female? </p>","188","html-keyboard-response","536","879496","0.0-19.0-0.36","prediction","","","",",",""
"null","<div style=""color:white; font-size:60px;"">+</div>","null","html-keyboard-response","537","880499","0.0-19.0-1.36","fixation","","","","",""
"1590.4799999843817","Stimuli/Hangul_M2.bmp","188","image-keyboard-response","538","882091","0.0-19.0-2.36","c2_test",",","","","",","
"705.7499999937136","<p style=""color:white;""> Next Figure: Male or Female? </p>","188","html-keyboard-response","539","882799","0.0-19.0-0.37","prediction","","","",",",""
"null","<div style=""color:white; font-size:60px;"">+</div>","null","html-keyboard-response","540","883803","0.0-19.0-1.37","fixation","","","","",""
"1201.5700000047218","Stimuli/Hangul_M12.bmp","188","image-keyboard-response","541","885006","0.0-19.0-2.37","c2_test",",","","","",","
"793.6700000136625","<p style=""color:white;""> Next Figure: Male or Female? </p>","188","html-keyboard-response","542","885801","0.0-19.0-0.38","prediction","","","",",",""
"null","<div style=""color:white; font-size:60px;"">+</div>","null","html-keyboard-response","543","886803","0.0-19.0-1.38","fixation","","","","",""
"1177.4449999793433","Stimuli/Hangul_M14.bmp","188","image-keyboard-response","544","887982","0.0-19.0-2.38","c2_test",",","","","",","
"617.6999999734107","<p style=""color:white;""> Next Figure: Male or Female? </p>","188","html-keyboard-response","545","888601","0.0-19.0-0.39","prediction","","","",",",""
"null","<div style=""color:white; font-size:60px;"">+</div>","null","html-keyboard-response","546","889604","0.0-19.0-1.39","fixation","","","","",""
"1355.6399999943096","Stimuli/Hangul_M23.bmp","190","image-keyboard-response","547","890960","0.0-19.0-2.39","c2_test",",","","","","."
"1430.8249999885447","<p style=""color:white;""> Next Figure: Male or Female? </p>","190","html-keyboard-response","548","892392","0.0-19.0-0.40","prediction","","","",".",""
"null","<div style=""color:white; font-size:60px;"">+</div>","null","html-keyboard-response","549","893393","0.0-19.0-1.40","fixation","","","","",""
"1222.3850000009406","Stimuli/Hangul_F8.bmp","190","image-keyboard-response","550","894617","0.0-19.0-2.40","c2_test",".","","","","."
"1079.729999997653","<p style=""color:white;""> Next Figure: Male or Female? </p>","188","html-keyboard-response","551","895698","0.0-19.0-0.41","prediction","","","",",",""
"null","<div style=""color:white; font-size:60px;"">+</div>","null","html-keyboard-response","552","896701","0.0-19.0-1.41","fixation","","","","",""
"1193.9699999929871","Stimuli/Hangul_M18.bmp","188","image-keyboard-response","553","897898","0.0-19.0-2.41","c2_test",",","","","",","
"633.2250000268687","<p style=""color:white;""> Next Figure: Male or Female? </p>","188","html-keyboard-response","554","898536","0.0-19.0-0.42","prediction","","","",",",""
"null","<div style=""color:white; font-size:60px;"">+</div>","null","html-keyboard-response","555","899538","0.0-19.0-1.42","fixation","","","","",""
"1304.6650000032969","Stimuli/Hangul_F22.bmp","190","image-keyboard-response","556","900844","0.0-19.0-2.42","c2_test",".","","","","."
"896.8499999900814","<p style=""color:white;""> Next Figure: Male or Female? </p>","188","html-keyboard-response","557","901742","0.0-19.0-0.43","prediction","","","",",",""
"null","<div style=""color:white; font-size:60px;"">+</div>","null","html-keyboard-response","558","902743","0.0-19.0-1.43","fixation","","","","",""
"1452.8550000104588","Stimuli/Hangul_M21.bmp","190","image-keyboard-response","559","904198","0.0-19.0-2.43","c2_test",",","","","","."
"843.7050000065938","<p style=""color:white;""> Next Figure: Male or Female? </p>","188","html-keyboard-response","560","905043","0.0-19.0-0.44","prediction","","","",",",""
"null","<div style=""color:white; font-size:60px;"">+</div>","null","html-keyboard-response","561","906045","0.0-19.0-1.44","fixation","","","","",""
"1399.600000004284","Stimuli/Hangul_M17.bmp","188","image-keyboard-response","562","907446","0.0-19.0-2.44","c2_test",",","","","",","
"1201.4950000157114","<p style=""color:white;""> Next Figure: Male or Female? </p>","190","html-keyboard-response","563","908648","0.0-19.0-0.45","prediction","","","",".",""
"null","<div style=""color:white; font-size:60px;"">+</div>","null","html-keyboard-response","564","909650","0.0-19.0-1.45","fixation","","","","",""
"1245.3650000097696","Stimuli/Hangul_F4.bmp","190","image-keyboard-response","565","910898","0.0-19.0-2.45","c2_test",".","","","","."
"1355.4299999959767","<p style=""color:white;""> Next Figure: Male or Female? </p>","188","html-keyboard-response","566","912256","0.0-19.0-0.46","prediction","","","",",",""
"null","<div style=""color:white; font-size:60px;"">+</div>","null","html-keyboard-response","567","913257","0.0-19.0-1.46","fixation","","","","",""
"1314.234999998007","Stimuli/Hangul_F21.bmp","190","image-keyboard-response","568","914573","0.0-19.0-2.46","c2_test",".","","","","."
"647.1299999975599","<p style=""color:white;""> Next Figure: Male or Female? </p>","188","html-keyboard-response","569","915222","0.0-19.0-0.47","prediction","","","",",",""
"null","<div style=""color:white; font-size:60px;"">+</div>","null","html-keyboard-response","570","916224","0.0-19.0-1.47","fixation","","","","",""
"1203.5949999990407","Stimuli/Hangul_M16.bmp","188","image-keyboard-response","571","917429","0.0-19.0-2.47","c2_test",",","","","",","
"694.0600000089034","<p style=""color:white;""> Next Figure: Male or Female? </p>","188","html-keyboard-response","572","918125","0.0-19.0-0.48","prediction","","","",",",""
"null","<div style=""color:white; font-size:60px;"">+</div>","null","html-keyboard-response","573","919127","0.0-19.0-1.48","fixation","","","","",""
"1226.3550000207033","Stimuli/Hangul_F1.bmp","190","image-keyboard-response","574","920355","0.0-19.0-2.48","c2_test",".","","","","."
"760.004999989178","<p style=""color:white;""> Next Figure: Male or Female? </p>","190","html-keyboard-response","575","921116","0.0-19.0-0.49","prediction","","","",".",""
"null","<div style=""color:white; font-size:60px;"">+</div>","null","html-keyboard-response","576","922118","0.0-19.0-1.49","fixation","","","","",""
"1307.1999999810942","Stimuli/Hangul_F10.bmp","190","image-keyboard-response","577","923427","0.0-19.0-2.49","c2_test",".","","","","."
"5848.81499997573","<p style=""color:white;"">Good job, block 1 complete! Please take a moment to rest.</p> <p style=""color:white;"">When you are ready to continue with block 2 of 4, press the space bar.</p> ","32","html-keyboard-response","578","929277","0.0-20.0","","","","","",""
"1559.080000006361","<p style=""color:white;""> Next Figure: Male or Female? </p>","188","html-keyboard-response","579","932838","0.0-21.0-0.0","prediction","","","",",",""
"null","<div style=""color:white; font-size:60px;"">+</div>","null","html-keyboard-response","580","933839","0.0-21.0-1.0","fixation","","","","",""
"564.570000016829","Stimuli/Hangul_M33.bmp","188","image-keyboard-response","581","934406","0.0-21.0-2.0","c2_test",",","","","",","
"2529.2349999945145","<p style=""color:white;""> Next Figure: Male or Female? </p>","188","html-keyboard-response","582","936939","0.0-21.0-0.1","prediction","","","",",",""
"null","<div style=""color:white; font-size:60px;"">+</div>","null","html-keyboard-response","583","937943","0.0-21.0-1.1","fixation","","","","",""
"1303.090000001248","Stimuli/Hangul_M28.bmp","188","image-keyboard-response","584","939249","0.0-21.0-2.1","c2_test",",","","","",","
"906.2700000067707","<p style=""color:white;""> Next Figure: Male or Female? </p>","188","html-keyboard-response","585","940157","0.0-21.0-0.2","prediction","","","",",",""
"null","<div style=""color:white; font-size:60px;"">+</div>","null","html-keyboard-response","586","941159","0.0-21.0-1.2","fixation","","","","",""
"636.9049999921117","Stimuli/Hangul_F31.bmp","190","image-keyboard-response","587","941797","0.0-21.0-2.2","c2_test",".","","","","."
"951.8450000032317","<p style=""color:white;""> Next Figure: Male or Female? </p>","188","html-keyboard-response","588","942752","0.0-21.0-0.3","prediction","","","",",",""
"null","<div style=""color:white; font-size:60px;"">+</div>","null","html-keyboard-response","589","943754","0.0-21.0-1.3","fixation","","","","",""
"640.7900000049267","Stimuli/Hangul_M32.bmp","188","image-keyboard-response","590","944398","0.0-21.0-2.3","c2_test",",","","","",","
"748.9549999882001","<p style=""color:white;""> Next Figure: Male or Female? </p>","188","html-keyboard-response","591","945148","0.0-21.0-0.4","prediction","","","",",",""
"null","<div style=""color:white; font-size:60px;"">+</div>","null","html-keyboard-response","592","946150","0.0-21.0-1.4","fixation","","","","",""
"864.6650000009686","Stimuli/Hangul_F44.bmp","190","image-keyboard-response","593","947016","0.0-21.0-2.4","c2_test",".","","","","."
"784.3350000039209","<p style=""color:white;""> Next Figure: Male or Female? </p>","188","html-keyboard-response","594","947801","0.0-21.0-0.5","prediction","","","",",",""
"null","<div style=""color:white; font-size:60px;"">+</div>","null","html-keyboard-response","595","948804","0.0-21.0-1.5","fixation","","","","",""
"662.4350000056438","Stimuli/Hangul_M43.bmp","188","image-keyboard-response","596","949467","0.0-21.0-2.5","c2_test",",","","","",","
"1150.8749999920838","<p style=""color:white;""> Next Figure: Male or Female? </p>","190","html-keyboard-response","597","950620","0.0-21.0-0.6","prediction","","","",".",""
"null","<div style=""color:white; font-size:60px;"">+</div>","null","html-keyboard-response","598","951623","0.0-21.0-1.6","fixation","","","","",""
"1297.8149999980815","Stimuli/Hangul_F39.bmp","190","image-keyboard-response","599","952922","0.0-21.0-2.6","c2_test",".","","","","."
"828.9250000088941","<p style=""color:white;""> Next Figure: Male or Female? </p>","188","html-keyboard-response","600","953754","0.0-21.0-0.7","prediction","","","",",",""
"null","<div style=""color:white; font-size:60px;"">+</div>","null","html-keyboard-response","601","954756","0.0-21.0-1.7","fixation","","","","",""
"760.2849999966566","Stimuli/Hangul_M49.bmp","188","image-keyboard-response","602","955518","0.0-21.0-2.7","c2_test",",","","","",","
"680.0999999977648","<p style=""color:white;""> Next Figure: Male or Female? </p>","188","html-keyboard-response","603","956199","0.0-21.0-0.8","prediction","","","",",",""
"null","<div style=""color:white; font-size:60px;"">+</div>","null","html-keyboard-response","604","957200","0.0-21.0-1.8","fixation","","","","",""
"1201.614999998128","Stimuli/Hangul_M27.bmp","188","image-keyboard-response","605","958402","0.0-21.0-2.8","c2_test",",","","","",","
"491.8699999980163","<p style=""color:white;""> Next Figure: Male or Female? </p>","188","html-keyboard-response","606","958895","0.0-21.0-0.9","prediction","","","",",",""
"null","<div style=""color:white; font-size:60px;"">+</div>","null","html-keyboard-response","607","959898","0.0-21.0-1.9","fixation","","","","",""
"592.1799999778159","Stimuli/Hangul_F42.bmp","190","image-keyboard-response","608","960499","0.0-21.0-2.9","c2_test",".","","","","."
"659.0399999986403","<p style=""color:white;""> Next Figure: Male or Female? </p>","188","html-keyboard-response","609","961160","0.0-21.0-0.10","prediction","","","",",",""
"null","<div style=""color:white; font-size:60px;"">+</div>","null","html-keyboard-response","610","962163","0.0-21.0-1.10","fixation","","","","",""
"523.2799999939743","Stimuli/Hangul_M44.bmp","188","image-keyboard-response","611","962687","0.0-21.0-2.10","c2_test",",","","","",","
"694.9450000247452","<p style=""color:white;""> Next Figure: Male or Female? </p>","190","html-keyboard-response","612","963384","0.0-21.0-0.11","prediction","","","",".",""
"null","<div style=""color:white; font-size:60px;"">+</div>","null","html-keyboard-response","613","964387","0.0-21.0-1.11","fixation","","","","",""
"1262.2949999931734","Stimuli/Hangul_M42.bmp","188","image-keyboard-response","614","965651","0.0-21.0-2.11","c2_test",",","","","",","
"719.9799999943934","<p style=""color:white;""> Next Figure: Male or Female? </p>","188","html-keyboard-response","615","966372","0.0-21.0-0.12","prediction","","","",",",""
"null","<div style=""color:white; font-size:60px;"">+</div>","null","html-keyboard-response","616","967374","0.0-21.0-1.12","fixation","","","","",""
"1199.6000000217464","Stimuli/Hangul_M35.bmp","188","image-keyboard-response","617","968576","0.0-21.0-2.12","c2_test",",","","","",","
"719.2199999990407","<p style=""color:white;""> Next Figure: Male or Female? </p>","188","html-keyboard-response","618","969297","0.0-21.0-0.13","prediction","","","",",",""
"null","<div style=""color:white; font-size:60px;"">+</div>","null","html-keyboard-response","619","970300","0.0-21.0-1.13","fixation","","","","",""
"575.6300000066403","Stimuli/Hangul_M29.bmp","188","image-keyboard-response","620","970877","0.0-21.0-2.13","c2_test",",","","","",","
"470.4100000089966","<p style=""color:white;""> Next Figure: Male or Female? </p>","188","html-keyboard-response","621","971349","0.0-21.0-0.14","prediction","","","",",",""
"null","<div style=""color:white; font-size:60px;"">+</div>","null","html-keyboard-response","622","972352","0.0-21.0-1.14","fixation","","","","",""
"595.1099999947473","Stimuli/Hangul_M26.bmp","188","image-keyboard-response","623","972948","0.0-21.0-2.14","c2_test",",","","","",","
"429.13500001304783","<p style=""color:white;""> Next Figure: Male or Female? </p>","188","html-keyboard-response","624","973380","0.0-21.0-0.15","prediction","","","",",",""
"null","<div style=""color:white; font-size:60px;"">+</div>","null","html-keyboard-response","625","974382","0.0-21.0-1.15","fixation","","","","",""
"1273.6450000084005","Stimuli/Hangul_F34.bmp","190","image-keyboard-response","626","975657","0.0-21.0-2.15","c2_test",".","","","","."
"678.1999999948312","<p style=""color:white;""> Next Figure: Male or Female? </p>","190","html-keyboard-response","627","976337","0.0-21.0-0.16","prediction","","","",".",""
"null","<div style=""color:white; font-size:60px;"">+</div>","null","html-keyboard-response","628","977341","0.0-21.0-1.16","fixation","","","","",""
"1202.0599999814294","Stimuli/Hangul_M45.bmp","188","image-keyboard-response","629","978547","0.0-21.0-2.16","c2_test",",","","","",","
"465.3849999886006","<p style=""color:white;""> Next Figure: Male or Female? </p>","188","html-keyboard-response","630","979015","0.0-21.0-0.17","prediction","","","",",",""
"null","<div style=""color:white; font-size:60px;"">+</div>","null","html-keyboard-response","631","980017","0.0-21.0-1.17","fixation","","","","",""
"697.4800000025425","Stimuli/Hangul_F35.bmp","190","image-keyboard-response","632","980716","0.0-21.0-2.17","c2_test",".","","","","."
"501.8699999782257","<p style=""color:white;""> Next Figure: Male or Female? </p>","188","html-keyboard-response","633","981219","0.0-21.0-0.18","prediction","","","",",",""
"null","<div style=""color:white; font-size:60px;"">+</div>","null","html-keyboard-response","634","982221","0.0-21.0-1.18","fixation","","","","",""
"548.495000024559","Stimuli/Hangul_M38.bmp","188","image-keyboard-response","635","982771","0.0-21.0-2.18","c2_test",",","","","",","
"583.2999999984168","<p style=""color:white;""> Next Figure: Male or Female? </p>","188","html-keyboard-response","636","983356","0.0-21.0-0.19","prediction","","","",",",""
"null","<div style=""color:white; font-size:60px;"">+</div>","null","html-keyboard-response","637","984357","0.0-21.0-1.19","fixation","","","","",""
"690.245000005234","Stimuli/Hangul_F46.bmp","188","image-keyboard-response","638","985048","0.0-21.0-2.19","c2_test",".","","","",","
"435.795000026701","<p style=""color:white;""> Next Figure: Male or Female? </p>","188","html-keyboard-response","639","985485","0.0-21.0-0.20","prediction","","","",",",""
"null","<div style=""color:white; font-size:60px;"">+</div>","null","html-keyboard-response","640","986487","0.0-21.0-1.20","fixation","","","","",""
"543.6949999711942","Stimuli/Hangul_M47.bmp","188","image-keyboard-response","641","987032","0.0-21.0-2.20","c2_test",",","","","",","
"2084.754999988945","<p style=""color:white;""> Next Figure: Male or Female? </p>","190","html-keyboard-response","642","989119","0.0-21.0-0.21","prediction","","","",".",""
"null","<div style=""color:white; font-size:60px;"">+</div>","null","html-keyboard-response","643","990121","0.0-21.0-1.21","fixation","","","","",""
"474.8599999875296","Stimuli/Hangul_F49.bmp","188","image-keyboard-response","644","990597","0.0-21.0-2.21","c2_test",".","","","",","
"1090.3500000131316","<p style=""color:white;""> Next Figure: Male or Female? </p>","190","html-keyboard-response","645","991689","0.0-21.0-0.22","prediction","","","",".",""
"null","<div style=""color:white; font-size:60px;"">+</div>","null","html-keyboard-response","646","992690","0.0-21.0-1.22","fixation","","","","",""
"687.789999996312","Stimuli/Hangul_F41.bmp","190","image-keyboard-response","647","993379","0.0-21.0-2.22","c2_test",".","","","","."
"745.6599999859463","<p style=""color:white;""> Next Figure: Male or Female? </p>","188","html-keyboard-response","648","994126","0.0-21.0-0.23","prediction","","","",",",""
"null","<div style=""color:white; font-size:60px;"">+</div>","null","html-keyboard-response","649","995127","0.0-21.0-1.23","fixation","","","","",""
"702.3099999933038","Stimuli/Hangul_F38.bmp","188","image-keyboard-response","650","995831","0.0-21.0-2.23","c2_test",".","","","",","
"1040.3850000002421","<p style=""color:white;""> Next Figure: Male or Female? </p>","188","html-keyboard-response","651","996874","0.0-21.0-0.24","prediction","","","",",",""
"null","<div style=""color:white; font-size:60px;"">+</div>","null","html-keyboard-response","652","997876","0.0-21.0-1.24","fixation","","","","",""
"488.88499999884516","Stimuli/Hangul_M34.bmp","188","image-keyboard-response","653","998366","0.0-21.0-2.24","c2_test",",","","","",","
"530.2249999949709","<p style=""color:white;""> Next Figure: Male or Female? </p>","188","html-keyboard-response","654","998898","0.0-21.0-0.25","prediction","","","",",",""
"null","<div style=""color:white; font-size:60px;"">+</div>","null","html-keyboard-response","655","999900","0.0-21.0-1.25","fixation","","","","",""
"1222.3250000097323","Stimuli/Hangul_M40.bmp","188","image-keyboard-response","656","1001124","0.0-21.0-2.25","c2_test",",","","","",","
