"rt","stimulus","key_press","trial_type","trial_index","time_elapsed","internal_node_id","test_part","correct_response","C1_train","C1","A","C2"
"2249.970000004396","<p style=""color:white;"">Welcome to the experiment! Press any key to begin.</p>","32","html-keyboard-response","0","2272","0.0-0.0","","","","","",""
"33012.39499999792","<p style=""color:white;"">You will see a series of abstract figures. They are adaptations of signs in the Korean alphabet, but that is not important for this study. </p><p style=""color:white;"">Abstract figures sometimes have a more masculine or feminine shape. Here, each figure has already been assigned a gender as <q>Male</q> or <q>Female</q> by a panel of respondents in a pilot study. The respondents were not given specific instructions on how to do this, but were only told to use their intuition and to take into account the entire configuration of the stimulus. </p><p style=""color:white;"">Your task now is to guess the assigned gender of each figure. Please press the corresponding response keys to indicate your choice: </p><p style=""color:white;""> Male &#8594 <q>,</q> (comma)</p><p style=""color:white;""> Female &#8594 <q>.</q> (period)</p><p style=""color:white;"">Press either response keys to continue.</p>","188","html-keyboard-response","1","35286","0.0-1.0","","","","","",""
"10424.684999976307","<p style=""color:white;"">Your choice is correct if it matches the gender assigned by the majority of respondents in the pilot study.</p> <p style=""color:white;"">For each correct choice you will receive 2 cents. There will be 200 trials divided into 4 blocks of 50 trials. You will be able to take a break after every 50 trials.</p> <p style=""color:white;"">Press the space bar to continue.</p>","32","html-keyboard-response","2","45712","0.0-2.0","","","","","",""
"6635.970000002999","<p style=""color:white;"">Here are some examples.</p> <p style=""color:white;"">For each, guess whether the assigned figure is male-like or female-like and indicate your choice by pressing either response keys.</p> <p style=""color:white;"">Press the space bar to continue.</p>","32","html-keyboard-response","3","52349","0.0-3.0","","","","","",""
"null","<div style=""color:white; font-size:60px;"">+</div>","null","html-keyboard-response","4","55354","0.0-4.0-0.0","fixation","","","","",""
"2161.08499999973","Stimuli/Hangul_E2.bmp","188","image-keyboard-response","5","57517","0.0-4.0-1.0","c1_train",".",",","","",""
"null","<div style=""color:white; font-size:60px;"">+</div>","null","html-keyboard-response","6","58522","0.0-4.0-0.1","fixation","","","","",""
"2104.529999982333","Stimuli/Hangul_E0.bmp","188","image-keyboard-response","7","60627","0.0-4.0-1.1","c1_train",",",",","","",""
"null","<div style=""color:white; font-size:60px;"">+</div>","null","html-keyboard-response","8","61631","0.0-4.0-0.2","fixation","","","","",""
"2036.2700000114273","Stimuli/Hangul_E1.bmp","188","image-keyboard-response","9","63668","0.0-4.0-1.2","c1_train",",",",","","",""
"1938.4600000048522","<p style=""color:white;"">Let us begin! Press the space bar when you are ready to start block 1 of 4.</p> ","32","html-keyboard-response","10","65608","0.0-5.0","","","","","",""
"null","<div style=""color:white; font-size:60px;"">+</div>","null","html-keyboard-response","11","68614","0.0-6.0-0.0","fixation","","","","",""
"2556.539999990491","Stimuli/Hangul_M11.bmp","190","image-keyboard-response","12","71172","0.0-6.0-1.0","test",",","",".","",""
"null","<div style=""color:white; font-size:60px;"">+</div>","null","html-keyboard-response","13","72174","0.0-6.0-0.1","fixation","","","","",""
"1857.335000007879","Stimuli/Hangul_F10.bmp","190","image-keyboard-response","14","74032","0.0-6.0-1.1","test",".","",".","",""
"null","<div style=""color:white; font-size:60px;"">+</div>","null","html-keyboard-response","15","75036","0.0-6.0-0.2","fixation","","","","",""
"1777.6250000169966","Stimuli/Hangul_F13.bmp","188","image-keyboard-response","16","76814","0.0-6.0-1.2","test",".","",",","",""
"null","<div style=""color:white; font-size:60px;"">+</div>","null","html-keyboard-response","17","77815","0.0-6.0-0.3","fixation","","","","",""
"1986.0099999932572","Stimuli/Hangul_F12.bmp","188","image-keyboard-response","18","79802","0.0-6.0-1.3","test",".","",",","",""
"null","<div style=""color:white; font-size:60px;"">+</div>","null","html-keyboard-response","19","80807","0.0-6.0-0.4","fixation","","","","",""
"2356.534999998985","Stimuli/Hangul_M20.bmp","190","image-keyboard-response","20","83165","0.0-6.0-1.4","test",",","",".","",""
"null","<div style=""color:white; font-size:60px;"">+</div>","null","html-keyboard-response","21","84168","0.0-6.0-0.5","fixation","","","","",""
"2037.5800000037998","Stimuli/Hangul_F22.bmp","190","image-keyboard-response","22","86207","0.0-6.0-1.5","test",".","",".","",""
"null","<div style=""color:white; font-size:60px;"">+</div>","null","html-keyboard-response","23","87211","0.0-6.0-0.6","fixation","","","","",""
"1809.964999993099","Stimuli/Hangul_M10.bmp","188","image-keyboard-response","24","89023","0.0-6.0-1.6","test",",","",",","",""
"null","<div style=""color:white; font-size:60px;"">+</div>","null","html-keyboard-response","25","90030","0.0-6.0-0.7","fixation","","","","",""
"1822.9350000037812","Stimuli/Hangul_F17.bmp","190","image-keyboard-response","26","91854","0.0-6.0-1.7","test",".","",".","",""
"null","<div style=""color:white; font-size:60px;"">+</div>","null","html-keyboard-response","27","92859","0.0-6.0-0.8","fixation","","","","",""
"1991.8849999958184","Stimuli/Hangul_M15.bmp","188","image-keyboard-response","28","94852","0.0-6.0-1.8","test",",","",",","",""
"null","<div style=""color:white; font-size:60px;"">+</div>","null","html-keyboard-response","29","95854","0.0-6.0-0.9","fixation","","","","",""
"1801.514999999199","Stimuli/Hangul_M21.bmp","190","image-keyboard-response","30","97657","0.0-6.0-1.9","test",",","",".","",""
"null","<div style=""color:white; font-size:60px;"">+</div>","null","html-keyboard-response","31","98658","0.0-6.0-0.10","fixation","","","","",""
"1712.5100000121165","Stimuli/Hangul_F9.bmp","188","image-keyboard-response","32","100373","0.0-6.0-1.10","test",".","",",","",""
"null","<div style=""color:white; font-size:60px;"">+</div>","null","html-keyboard-response","33","101374","0.0-6.0-0.11","fixation","","","","",""
"2050.53500001668","Stimuli/Hangul_M18.bmp","188","image-keyboard-response","34","103426","0.0-6.0-1.11","test",",","",",","",""
"null","<div style=""color:white; font-size:60px;"">+</div>","null","html-keyboard-response","35","104430","0.0-6.0-0.12","fixation","","","","",""
"1674.9300000083167","Stimuli/Hangul_F14.bmp","190","image-keyboard-response","36","106106","0.0-6.0-1.12","test",".","",".","",""
"null","<div style=""color:white; font-size:60px;"">+</div>","null","html-keyboard-response","37","107107","0.0-6.0-0.13","fixation","","","","",""
"1647.2300000023097","Stimuli/Hangul_F7.bmp","188","image-keyboard-response","38","108756","0.0-6.0-1.13","test",".","",",","",""
"null","<div style=""color:white; font-size:60px;"">+</div>","null","html-keyboard-response","39","109761","0.0-6.0-0.14","fixation","","","","",""
"1880.8649999846239","Stimuli/Hangul_F20.bmp","188","image-keyboard-response","40","111643","0.0-6.0-1.14","test",".","",",","",""
"null","<div style=""color:white; font-size:60px;"">+</div>","null","html-keyboard-response","41","112646","0.0-6.0-0.15","fixation","","","","",""
"2125.7599999953527","Stimuli/Hangul_F3.bmp","188","image-keyboard-response","42","114773","0.0-6.0-1.15","test",".","",",","",""
"null","<div style=""color:white; font-size:60px;"">+</div>","null","html-keyboard-response","43","115774","0.0-6.0-0.16","fixation","","","","",""
"1594.0150000096764","Stimuli/Hangul_F21.bmp","190","image-keyboard-response","44","117370","0.0-6.0-1.16","test",".","",".","",""
"null","<div style=""color:white; font-size:60px;"">+</div>","null","html-keyboard-response","45","118371","0.0-6.0-0.17","fixation","","","","",""
"1809.709999972256","Stimuli/Hangul_F24.bmp","190","image-keyboard-response","46","120181","0.0-6.0-1.17","test",".","",".","",""
"null","<div style=""color:white; font-size:60px;"">+</div>","null","html-keyboard-response","47","121183","0.0-6.0-0.18","fixation","","","","",""
"1790.0950000039302","Stimuli/Hangul_M17.bmp","188","image-keyboard-response","48","122975","0.0-6.0-1.18","test",",","",",","",""
"null","<div style=""color:white; font-size:60px;"">+</div>","null","html-keyboard-response","49","123978","0.0-6.0-0.19","fixation","","","","",""
"1655.6449999916367","Stimuli/Hangul_F4.bmp","190","image-keyboard-response","50","125635","0.0-6.0-1.19","test",".","",".","",""
"null","<div style=""color:white; font-size:60px;"">+</div>","null","html-keyboard-response","51","126638","0.0-6.0-0.20","fixation","","","","",""
"1835.2900000172667","Stimuli/Hangul_M9.bmp","188","image-keyboard-response","52","128475","0.0-6.0-1.20","test",",","",",","",""
"null","<div style=""color:white; font-size:60px;"">+</div>","null","html-keyboard-response","53","129479","0.0-6.0-0.21","fixation","","","","",""
"1452.7100000123028","Stimuli/Hangul_F8.bmp","190","image-keyboard-response","54","130933","0.0-6.0-1.21","test",".","",".","",""
"null","<div style=""color:white; font-size:60px;"">+</div>","null","html-keyboard-response","55","131935","0.0-6.0-0.22","fixation","","","","",""
"1350.3400000045076","Stimuli/Hangul_F18.bmp","190","image-keyboard-response","56","133286","0.0-6.0-1.22","test",".","",".","",""
"null","<div style=""color:white; font-size:60px;"">+</div>","null","html-keyboard-response","57","134291","0.0-6.0-0.23","fixation","","","","",""
"1343.4199999901466","Stimuli/Hangul_F1.bmp","190","image-keyboard-response","58","135635","0.0-6.0-1.23","test",".","",".","",""
"null","<div style=""color:white; font-size:60px;"">+</div>","null","html-keyboard-response","59","136638","0.0-6.0-0.24","fixation","","","","",""
"1449.6849999995902","Stimuli/Hangul_M16.bmp","188","image-keyboard-response","60","138089","0.0-6.0-1.24","test",",","",",","",""
"null","<div style=""color:white; font-size:60px;"">+</div>","null","html-keyboard-response","61","139091","0.0-6.0-0.25","fixation","","","","",""
"1515.559999999823","Stimuli/Hangul_F11.bmp","190","image-keyboard-response","62","140609","0.0-6.0-1.25","test",".","",".","",""
"null","<div style=""color:white; font-size:60px;"">+</div>","null","html-keyboard-response","63","141611","0.0-6.0-0.26","fixation","","","","",""
"1780.6599999894388","Stimuli/Hangul_M5.bmp","188","image-keyboard-response","64","143393","0.0-6.0-1.26","test",",","",",","",""
"null","<div style=""color:white; font-size:60px;"">+</div>","null","html-keyboard-response","65","144395","0.0-6.0-0.27","fixation","","","","",""
"1692.4050000088755","Stimuli/Hangul_F2.bmp","188","image-keyboard-response","66","146088","0.0-6.0-1.27","test",".","",",","",""
"null","<div style=""color:white; font-size:60px;"">+</div>","null","html-keyboard-response","67","147091","0.0-6.0-0.28","fixation","","","","",""
"1683.6000000184868","Stimuli/Hangul_M6.bmp","188","image-keyboard-response","68","148777","0.0-6.0-1.28","test",",","",",","",""
"null","<div style=""color:white; font-size:60px;"">+</div>","null","html-keyboard-response","69","149781","0.0-6.0-0.29","fixation","","","","",""
"1353.8800000096671","Stimuli/Hangul_F5.bmp","188","image-keyboard-response","70","151136","0.0-6.0-1.29","test",".","",",","",""
"null","<div style=""color:white; font-size:60px;"">+</div>","null","html-keyboard-response","71","152137","0.0-6.0-0.30","fixation","","","","",""
"1748.8500000035856","Stimuli/Hangul_M1.bmp","190","image-keyboard-response","72","153886","0.0-6.0-1.30","test",",","",".","",""
"null","<div style=""color:white; font-size:60px;"">+</div>","null","html-keyboard-response","73","154891","0.0-6.0-0.31","fixation","","","","",""
"2630.875000002561","Stimuli/Hangul_M24.bmp","188","image-keyboard-response","74","157524","0.0-6.0-1.31","test",",","",",","",""
"null","<div style=""color:white; font-size:60px;"">+</div>","null","html-keyboard-response","75","158527","0.0-6.0-0.32","fixation","","","","",""
"1784.010000003036","Stimuli/Hangul_M13.bmp","188","image-keyboard-response","76","160312","0.0-6.0-1.32","test",",","",",","",""
"null","<div style=""color:white; font-size:60px;"">+</div>","null","html-keyboard-response","77","161315","0.0-6.0-0.33","fixation","","","","",""
"1518.5449999989942","Stimuli/Hangul_F15.bmp","190","image-keyboard-response","78","162835","0.0-6.0-1.33","test",".","",".","",""
"null","<div style=""color:white; font-size:60px;"">+</div>","null","html-keyboard-response","79","163839","0.0-6.0-0.34","fixation","","","","",""
"1634.84499999322","Stimuli/Hangul_M0.bmp","188","image-keyboard-response","80","165475","0.0-6.0-1.34","test",",","",",","",""
"null","<div style=""color:white; font-size:60px;"">+</div>","null","html-keyboard-response","81","166476","0.0-6.0-0.35","fixation","","","","",""
"1965.729999996256","Stimuli/Hangul_M7.bmp","188","image-keyboard-response","82","168444","0.0-6.0-1.35","test",",","",",","",""
"null","<div style=""color:white; font-size:60px;"">+</div>","null","html-keyboard-response","83","169447","0.0-6.0-0.36","fixation","","","","",""
"1807.4249999772292","Stimuli/Hangul_M3.bmp","188","image-keyboard-response","84","171256","0.0-6.0-1.36","test",",","",",","",""
"null","<div style=""color:white; font-size:60px;"">+</div>","null","html-keyboard-response","85","172259","0.0-6.0-0.37","fixation","","","","",""
"2293.835000018589","Stimuli/Hangul_F23.bmp","190","image-keyboard-response","86","174554","0.0-6.0-1.37","test",".","",".","",""
"null","<div style=""color:white; font-size:60px;"">+</div>","null","html-keyboard-response","87","175555","0.0-6.0-0.38","fixation","","","","",""
"2236.1499999824446","Stimuli/Hangul_F19.bmp","190","image-keyboard-response","88","177793","0.0-6.0-1.38","test",".","",".","",""
"null","<div style=""color:white; font-size:60px;"">+</div>","null","html-keyboard-response","89","178795","0.0-6.0-0.39","fixation","","","","",""
"2569.2500000004657","Stimuli/Hangul_M2.bmp","188","image-keyboard-response","90","181366","0.0-6.0-1.39","test",",","",",","",""
"null","<div style=""color:white; font-size:60px;"">+</div>","null","html-keyboard-response","91","182367","0.0-6.0-0.40","fixation","","","","",""
"1755.845000006957","Stimuli/Hangul_M14.bmp","188","image-keyboard-response","92","184124","0.0-6.0-1.40","test",",","",",","",""
"null","<div style=""color:white; font-size:60px;"">+</div>","null","html-keyboard-response","93","185128","0.0-6.0-0.41","fixation","","","","",""
"1716.5050000185147","Stimuli/Hangul_M23.bmp","190","image-keyboard-response","94","186846","0.0-6.0-1.41","test",",","",".","",""
"null","<div style=""color:white; font-size:60px;"">+</div>","null","html-keyboard-response","95","187848","0.0-6.0-0.42","fixation","","","","",""
"1674.4150000158697","Stimuli/Hangul_M12.bmp","188","image-keyboard-response","96","189523","0.0-6.0-1.42","test",",","",",","",""
"null","<div style=""color:white; font-size:60px;"">+</div>","null","html-keyboard-response","97","190528","0.0-6.0-0.43","fixation","","","","",""
"1903.5250000015367","Stimuli/Hangul_M4.bmp","188","image-keyboard-response","98","192432","0.0-6.0-1.43","test",",","",",","",""
"null","<div style=""color:white; font-size:60px;"">+</div>","null","html-keyboard-response","99","193436","0.0-6.0-0.44","fixation","","","","",""
"1848.4150000149384","Stimuli/Hangul_M19.bmp","188","image-keyboard-response","100","195286","0.0-6.0-1.44","test",",","",",","",""
"null","<div style=""color:white; font-size:60px;"">+</div>","null","html-keyboard-response","101","196287","0.0-6.0-0.45","fixation","","","","",""
"1505.6750000221655","Stimuli/Hangul_M8.bmp","190","image-keyboard-response","102","197794","0.0-6.0-1.45","test",",","",".","",""
"null","<div style=""color:white; font-size:60px;"">+</div>","null","html-keyboard-response","103","198795","0.0-6.0-0.46","fixation","","","","",""
"1534.1500000213273","Stimuli/Hangul_F6.bmp","188","image-keyboard-response","104","200331","0.0-6.0-1.46","test",".","",",","",""
"null","<div style=""color:white; font-size:60px;"">+</div>","null","html-keyboard-response","105","201335","0.0-6.0-0.47","fixation","","","","",""
"1753.5199999983888","Stimuli/Hangul_F16.bmp","188","image-keyboard-response","106","203090","0.0-6.0-1.47","test",".","",",","",""
"null","<div style=""color:white; font-size:60px;"">+</div>","null","html-keyboard-response","107","204096","0.0-6.0-0.48","fixation","","","","",""
"1870.6949999905191","Stimuli/Hangul_M22.bmp","188","image-keyboard-response","108","205967","0.0-6.0-1.48","test",",","",",","",""
"null","<div style=""color:white; font-size:60px;"">+</div>","null","html-keyboard-response","109","206969","0.0-6.0-0.49","fixation","","","","",""
"1981.3800000119954","Stimuli/Hangul_F0.bmp","188","image-keyboard-response","110","208952","0.0-6.0-1.49","test",".","",",","",""
"6226.219999982277","<p style=""color:white;"">Good job, block 1 complete! Please take a moment to rest.</p> <p style=""color:white;"">When you are ready to continue with block 2 of 4, press the space bar.</p> ","32","html-keyboard-response","111","215180","0.0-7.0","","","","","",""
"null","<div style=""color:white; font-size:60px;"">+</div>","null","html-keyboard-response","112","218184","0.0-8.0-0.0","fixation","","","","",""
"1476.2300000002142","Stimuli/Hangul_F44.bmp","190","image-keyboard-response","113","219662","0.0-8.0-1.0","test",".","",".","",""
"null","<div style=""color:white; font-size:60px;"">+</div>","null","html-keyboard-response","114","220664","0.0-8.0-0.1","fixation","","","","",""
"1501.894999993965","Stimuli/Hangul_F30.bmp","190","image-keyboard-response","115","222167","0.0-8.0-1.1","test",".","",".","",""
"null","<div style=""color:white; font-size:60px;"">+</div>","null","html-keyboard-response","116","223168","0.0-8.0-0.2","fixation","","","","",""
"1567.944999987958","Stimuli/Hangul_M28.bmp","188","image-keyboard-response","117","224737","0.0-8.0-1.2","test",",","",",","",""
"null","<div style=""color:white; font-size:60px;"">+</div>","null","html-keyboard-response","118","225740","0.0-8.0-0.3","fixation","","","","",""
"2003.2899999932852","Stimuli/Hangul_M26.bmp","188","image-keyboard-response","119","227744","0.0-8.0-1.3","test",",","",",","",""
"null","<div style=""color:white; font-size:60px;"">+</div>","null","html-keyboard-response","120","228750","0.0-8.0-0.4","fixation","","","","",""
"1995.374999998603","Stimuli/Hangul_M43.bmp","188","image-keyboard-response","121","230746","0.0-8.0-1.4","test",",","",",","",""
"null","<div style=""color:white; font-size:60px;"">+</div>","null","html-keyboard-response","122","231753","0.0-8.0-0.5","fixation","","","","",""
"2330.0599999784026","Stimuli/Hangul_F48.bmp","188","image-keyboard-response","123","234084","0.0-8.0-1.5","test",".","",",","",""
"null","<div style=""color:white; font-size:60px;"">+</div>","null","html-keyboard-response","124","235088","0.0-8.0-0.6","fixation","","","","",""
"2039.7700000030454","Stimuli/Hangul_M44.bmp","188","image-keyboard-response","125","237129","0.0-8.0-1.6","test",",","",",","",""
"null","<div style=""color:white; font-size:60px;"">+</div>","null","html-keyboard-response","126","238131","0.0-8.0-0.7","fixation","","","","",""
"1709.884999989299","Stimuli/Hangul_F31.bmp","190","image-keyboard-response","127","239842","0.0-8.0-1.7","test",".","",".","",""
"null","<div style=""color:white; font-size:60px;"">+</div>","null","html-keyboard-response","128","240844","0.0-8.0-0.8","fixation","","","","",""
"1587.2800000070129","Stimuli/Hangul_M30.bmp","188","image-keyboard-response","129","242433","0.0-8.0-1.8","test",",","",",","",""
"null","<div style=""color:white; font-size:60px;"">+</div>","null","html-keyboard-response","130","243436","0.0-8.0-0.9","fixation","","","","",""
"1606.5349999989849","Stimuli/Hangul_F26.bmp","188","image-keyboard-response","131","245043","0.0-8.0-1.9","test",".","",",","",""
"null","<div style=""color:white; font-size:60px;"">+</div>","null","html-keyboard-response","132","246044","0.0-8.0-0.10","fixation","","","","",""
"1472.0999999844935","Stimuli/Hangul_F34.bmp","190","image-keyboard-response","133","247518","0.0-8.0-1.10","test",".","",".","",""
"null","<div style=""color:white; font-size:60px;"">+</div>","null","html-keyboard-response","134","248520","0.0-8.0-0.11","fixation","","","","",""
"9737.665000022389","Stimuli/Hangul_M36.bmp","188","image-keyboard-response","135","258259","0.0-8.0-1.11","test",",","",",","",""
"null","<div style=""color:white; font-size:60px;"">+</div>","null","html-keyboard-response","136","259265","0.0-8.0-0.12","fixation","","","","",""
"1860.049999988405","Stimuli/Hangul_F36.bmp","188","image-keyboard-response","137","261127","0.0-8.0-1.12","test",".","",",","",""
"null","<div style=""color:white; font-size:60px;"">+</div>","null","html-keyboard-response","138","262129","0.0-8.0-0.13","fixation","","","","",""
"2027.0849999797065","Stimuli/Hangul_M41.bmp","188","image-keyboard-response","139","264157","0.0-8.0-1.13","test",",","",",","",""
"null","<div style=""color:white; font-size:60px;"">+</div>","null","html-keyboard-response","140","265161","0.0-8.0-0.14","fixation","","","","",""
"1777.1150000044145","Stimuli/Hangul_F32.bmp","190","image-keyboard-response","141","266939","0.0-8.0-1.14","test",".","",".","",""
"null","<div style=""color:white; font-size:60px;"">+</div>","null","html-keyboard-response","142","267941","0.0-8.0-0.15","fixation","","","","",""
"1707.7850000059698","Stimuli/Hangul_M42.bmp","188","image-keyboard-response","143","269650","0.0-8.0-1.15","test",",","",",","",""
"null","<div style=""color:white; font-size:60px;"">+</div>","null","html-keyboard-response","144","270652","0.0-8.0-0.16","fixation","","","","",""
"1829.250000009779","Stimuli/Hangul_M45.bmp","188","image-keyboard-response","145","272483","0.0-8.0-1.16","test",",","",",","",""
"null","<div style=""color:white; font-size:60px;"">+</div>","null","html-keyboard-response","146","273487","0.0-8.0-0.17","fixation","","","","",""
"1795.8899999794085","Stimuli/Hangul_M29.bmp","188","image-keyboard-response","147","275285","0.0-8.0-1.17","test",",","",",","",""
"null","<div style=""color:white; font-size:60px;"">+</div>","null","html-keyboard-response","148","276289","0.0-8.0-0.18","fixation","","","","",""
"1615.9899999911431","Stimuli/Hangul_F39.bmp","190","image-keyboard-response","149","277905","0.0-8.0-1.18","test",".","",".","",""
"null","<div style=""color:white; font-size:60px;"">+</div>","null","html-keyboard-response","150","278908","0.0-8.0-0.19","fixation","","","","",""
"1652.250000013737","Stimuli/Hangul_F27.bmp","188","image-keyboard-response","151","280561","0.0-8.0-1.19","test",".","",",","",""
"null","<div style=""color:white; font-size:60px;"">+</div>","null","html-keyboard-response","152","281563","0.0-8.0-0.20","fixation","","","","",""
"2242.8599999984726","Stimuli/Hangul_M33.bmp","190","image-keyboard-response","153","283807","0.0-8.0-1.20","test",",","",".","",""
"null","<div style=""color:white; font-size:60px;"">+</div>","null","html-keyboard-response","154","284808","0.0-8.0-0.21","fixation","","","","",""
"1713.770000002114","Stimuli/Hangul_F35.bmp","190","image-keyboard-response","155","286523","0.0-8.0-1.21","test",".","",".","",""
"null","<div style=""color:white; font-size:60px;"">+</div>","null","html-keyboard-response","156","287527","0.0-8.0-0.22","fixation","","","","",""
"2169.2150000017136","Stimuli/Hangul_M39.bmp","188","image-keyboard-response","157","289699","0.0-8.0-1.22","test",",","",",","",""
"null","<div style=""color:white; font-size:60px;"">+</div>","null","html-keyboard-response","158","290701","0.0-8.0-0.23","fixation","","","","",""
"1906.2850000045728","Stimuli/Hangul_M47.bmp","188","image-keyboard-response","159","292608","0.0-8.0-1.23","test",",","",",","",""
"null","<div style=""color:white; font-size:60px;"">+</div>","null","html-keyboard-response","160","293609","0.0-8.0-0.24","fixation","","","","",""
"1828.479999996489","Stimuli/Hangul_M40.bmp","190","image-keyboard-response","161","295440","0.0-8.0-1.24","test",",","",".","",""
"null","<div style=""color:white; font-size:60px;"">+</div>","null","html-keyboard-response","162","296441","0.0-8.0-0.25","fixation","","","","",""
"1871.2149999919347","Stimuli/Hangul_F46.bmp","188","image-keyboard-response","163","298313","0.0-8.0-1.25","test",".","",",","",""
"null","<div style=""color:white; font-size:60px;"">+</div>","null","html-keyboard-response","164","299317","0.0-8.0-0.26","fixation","","","","",""
"1842.3600000096485","Stimuli/Hangul_F41.bmp","190","image-keyboard-response","165","301161","0.0-8.0-1.26","test",".","",".","",""
"null","<div style=""color:white; font-size:60px;"">+</div>","null","html-keyboard-response","166","302162","0.0-8.0-0.27","fixation","","","","",""
"1718.6599999840837","Stimuli/Hangul_M35.bmp","188","image-keyboard-response","167","303882","0.0-8.0-1.27","test",",","",",","",""
"null","<div style=""color:white; font-size:60px;"">+</div>","null","html-keyboard-response","168","304884","0.0-8.0-0.28","fixation","","","","",""
"2021.3600000133738","Stimuli/Hangul_M38.bmp","188","image-keyboard-response","169","306906","0.0-8.0-1.28","test",",","",",","",""
"null","<div style=""color:white; font-size:60px;"">+</div>","null","html-keyboard-response","170","307908","0.0-8.0-0.29","fixation","","","","",""
"1824.7149999951944","Stimuli/Hangul_M25.bmp","188","image-keyboard-response","171","309734","0.0-8.0-1.29","test",",","",",","",""
"null","<div style=""color:white; font-size:60px;"">+</div>","null","html-keyboard-response","172","310737","0.0-8.0-0.30","fixation","","","","",""
"1851.299999980256","Stimuli/Hangul_M48.bmp","188","image-keyboard-response","173","312589","0.0-8.0-1.30","test",",","",",","",""
"null","<div style=""color:white; font-size:60px;"">+</div>","null","html-keyboard-response","174","313593","0.0-8.0-0.31","fixation","","","","",""
"1874.5749999943655","Stimuli/Hangul_F49.bmp","188","image-keyboard-response","175","315469","0.0-8.0-1.31","test",".","",",","",""
"null","<div style=""color:white; font-size:60px;"">+</div>","null","html-keyboard-response","176","316470","0.0-8.0-0.32","fixation","","","","",""
"1754.7449999838136","Stimuli/Hangul_M27.bmp","188","image-keyboard-response","177","318226","0.0-8.0-1.32","test",",","",",","",""
"null","<div style=""color:white; font-size:60px;"">+</div>","null","html-keyboard-response","178","319227","0.0-8.0-0.33","fixation","","","","",""
"1867.5549999752548","Stimuli/Hangul_M46.bmp","188","image-keyboard-response","179","321096","0.0-8.0-1.33","test",",","",",","",""
"null","<div style=""color:white; font-size:60px;"">+</div>","null","html-keyboard-response","180","322097","0.0-8.0-0.34","fixation","","","","",""
"1574.4450000056531","Stimuli/Hangul_F37.bmp","190","image-keyboard-response","181","323673","0.0-8.0-1.34","test",".","",".","",""
"null","<div style=""color:white; font-size:60px;"">+</div>","null","html-keyboard-response","182","324675","0.0-8.0-0.35","fixation","","","","",""
"1733.139999996638","Stimuli/Hangul_M32.bmp","190","image-keyboard-response","183","326409","0.0-8.0-1.35","test",",","",".","",""
"null","<div style=""color:white; font-size:60px;"">+</div>","null","html-keyboard-response","184","327412","0.0-8.0-0.36","fixation","","","","",""
"1759.9300000001676","Stimuli/Hangul_F40.bmp","190","image-keyboard-response","185","329174","0.0-8.0-1.36","test",".","",".","",""
"null","<div style=""color:white; font-size:60px;"">+</div>","null","html-keyboard-response","186","330176","0.0-8.0-0.37","fixation","","","","",""
"1829.5499999949243","Stimuli/Hangul_M49.bmp","188","image-keyboard-response","187","332007","0.0-8.0-1.37","test",",","",",","",""
"null","<div style=""color:white; font-size:60px;"">+</div>","null","html-keyboard-response","188","333009","0.0-8.0-0.38","fixation","","","","",""
"1808.5549999959767","Stimuli/Hangul_F38.bmp","188","image-keyboard-response","189","334818","0.0-8.0-1.38","test",".","",",","",""
"null","<div style=""color:white; font-size:60px;"">+</div>","null","html-keyboard-response","190","335819","0.0-8.0-0.39","fixation","","","","",""
"1869.0700000151992","Stimuli/Hangul_F25.bmp","190","image-keyboard-response","191","337690","0.0-8.0-1.39","test",".","",".","",""
"null","<div style=""color:white; font-size:60px;"">+</div>","null","html-keyboard-response","192","338693","0.0-8.0-0.40","fixation","","","","",""
"1806.89499998698","Stimuli/Hangul_F42.bmp","188","image-keyboard-response","193","340501","0.0-8.0-1.40","test",".","",",","",""
"null","<div style=""color:white; font-size:60px;"">+</div>","null","html-keyboard-response","194","341506","0.0-8.0-0.41","fixation","","","","",""
"2554.3499999912456","Stimuli/Hangul_M37.bmp","188","image-keyboard-response","195","344061","0.0-8.0-1.41","test",",","",",","",""
"null","<div style=""color:white; font-size:60px;"">+</div>","null","html-keyboard-response","196","345064","0.0-8.0-0.42","fixation","","","","",""
"2389.8650000046473","Stimuli/Hangul_F47.bmp","188","image-keyboard-response","197","347455","0.0-8.0-1.42","test",".","",",","",""
"null","<div style=""color:white; font-size:60px;"">+</div>","null","html-keyboard-response","198","348457","0.0-8.0-0.43","fixation","","","","",""
"1869.6400000189897","Stimuli/Hangul_F28.bmp","188","image-keyboard-response","199","350329","0.0-8.0-1.43","test",".","",",","",""
"null","<div style=""color:white; font-size:60px;"">+</div>","null","html-keyboard-response","200","351334","0.0-8.0-0.44","fixation","","","","",""
"1959.0099999913946","Stimuli/Hangul_M31.bmp","188","image-keyboard-response","201","353294","0.0-8.0-1.44","test",",","",",","",""
"null","<div style=""color:white; font-size:60px;"">+</div>","null","html-keyboard-response","202","354297","0.0-8.0-0.45","fixation","","","","",""
"1905.2150000061374","Stimuli/Hangul_M34.bmp","188","image-keyboard-response","203","356204","0.0-8.0-1.45","test",",","",",","",""
"null","<div style=""color:white; font-size:60px;"">+</div>","null","html-keyboard-response","204","357205","0.0-8.0-0.46","fixation","","","","",""
"1675.004999997327","Stimuli/Hangul_F29.bmp","190","image-keyboard-response","205","358881","0.0-8.0-1.46","test",".","",".","",""
"null","<div style=""color:white; font-size:60px;"">+</div>","null","html-keyboard-response","206","359884","0.0-8.0-0.47","fixation","","","","",""
"2403.3150000032037","Stimuli/Hangul_F43.bmp","190","image-keyboard-response","207","362289","0.0-8.0-1.47","test",".","",".","",""
"null","<div style=""color:white; font-size:60px;"">+</div>","null","html-keyboard-response","208","363291","0.0-8.0-0.48","fixation","","","","",""
"2204.605000006268","Stimuli/Hangul_F45.bmp","190","image-keyboard-response","209","365497","0.0-8.0-1.48","test",".","",".","",""
"null","<div style=""color:white; font-size:60px;"">+</div>","null","html-keyboard-response","210","366499","0.0-8.0-0.49","fixation","","","","",""
"1543.1600000010803","Stimuli/Hangul_F33.bmp","190","image-keyboard-response","211","368045","0.0-8.0-1.49","test",".","",".","",""
"13081.849999987753","<p style=""color:white;"">Half way there! Please take a moment to rest.</p> <p style=""color:white;"">When you are ready to continue with block 3 of 4, press the space bar.</p> ","32","html-keyboard-response","212","381128","0.0-9.0","","","","","",""
"null","<div style=""color:white; font-size:60px;"">+</div>","null","html-keyboard-response","213","384130","0.0-10.0-0.0","fixation","","","","",""
"2419.0850000013597","Stimuli/Hangul_M55.bmp","190","image-keyboard-response","214","386551","0.0-10.0-1.0","test",",","",".","",""
"null","<div style=""color:white; font-size:60px;"">+</div>","null","html-keyboard-response","215","387554","0.0-10.0-0.1","fixation","","","","",""
"1940.3499999898486","Stimuli/Hangul_F67.bmp","188","image-keyboard-response","216","389495","0.0-10.0-1.1","test",".","",",","",""
"null","<div style=""color:white; font-size:60px;"">+</div>","null","html-keyboard-response","217","390498","0.0-10.0-0.2","fixation","","","","",""
"2055.5749999766704","Stimuli/Hangul_F58.bmp","190","image-keyboard-response","218","392555","0.0-10.0-1.2","test",".","",".","",""
"null","<div style=""color:white; font-size:60px;"">+</div>","null","html-keyboard-response","219","393558","0.0-10.0-0.3","fixation","","","","",""
"2069.9150000000373","Stimuli/Hangul_M59.bmp","188","image-keyboard-response","220","395629","0.0-10.0-1.3","test",",","",",","",""
"null","<div style=""color:white; font-size:60px;"">+</div>","null","html-keyboard-response","221","396632","0.0-10.0-0.4","fixation","","","","",""
"2039.8299999942537","Stimuli/Hangul_M65.bmp","190","image-keyboard-response","222","398673","0.0-10.0-1.4","test",",","",".","",""
"null","<div style=""color:white; font-size:60px;"">+</div>","null","html-keyboard-response","223","399674","0.0-10.0-0.5","fixation","","","","",""
"1597.8350000223145","Stimuli/Hangul_F60.bmp","190","image-keyboard-response","224","401273","0.0-10.0-1.5","test",".","",".","",""
"null","<div style=""color:white; font-size:60px;"">+</div>","null","html-keyboard-response","225","402274","0.0-10.0-0.6","fixation","","","","",""
"1539.7850000008475","Stimuli/Hangul_F56.bmp","190","image-keyboard-response","226","403815","0.0-10.0-1.6","test",".","",".","",""
"null","<div style=""color:white; font-size:60px;"">+</div>","null","html-keyboard-response","227","404818","0.0-10.0-0.7","fixation","","","","",""
"1493.350000004284","Stimuli/Hangul_M70.bmp","190","image-keyboard-response","228","406313","0.0-10.0-1.7","test",",","",".","",""
"null","<div style=""color:white; font-size:60px;"">+</div>","null","html-keyboard-response","229","407314","0.0-10.0-0.8","fixation","","","","",""
"1576.4999999955762","Stimuli/Hangul_F69.bmp","190","image-keyboard-response","230","408891","0.0-10.0-1.8","test",".","",".","",""
"null","<div style=""color:white; font-size:60px;"">+</div>","null","html-keyboard-response","231","409894","0.0-10.0-0.9","fixation","","","","",""
"1733.589999988908","Stimuli/Hangul_F62.bmp","190","image-keyboard-response","232","411628","0.0-10.0-1.9","test",".","",".","",""
"null","<div style=""color:white; font-size:60px;"">+</div>","null","html-keyboard-response","233","412630","0.0-10.0-0.10","fixation","","","","",""
"1631.840000016382","Stimuli/Hangul_M51.bmp","188","image-keyboard-response","234","414263","0.0-10.0-1.10","test",",","",",","",""
"null","<div style=""color:white; font-size:60px;"">+</div>","null","html-keyboard-response","235","415265","0.0-10.0-0.11","fixation","","","","",""
"1916.5550000034273","Stimuli/Hangul_M72.bmp","190","image-keyboard-response","236","417182","0.0-10.0-1.11","test",",","",".","",""
"null","<div style=""color:white; font-size:60px;"">+</div>","null","html-keyboard-response","237","418186","0.0-10.0-0.12","fixation","","","","",""
"1883.1350000109524","Stimuli/Hangul_F57.bmp","188","image-keyboard-response","238","420072","0.0-10.0-1.12","test",".","",",","",""
"null","<div style=""color:white; font-size:60px;"">+</div>","null","html-keyboard-response","239","421073","0.0-10.0-0.13","fixation","","","","",""
"1856.6049999790266","Stimuli/Hangul_M53.bmp","190","image-keyboard-response","240","422931","0.0-10.0-1.13","test",",","",".","",""
"null","<div style=""color:white; font-size:60px;"">+</div>","null","html-keyboard-response","241","423934","0.0-10.0-0.14","fixation","","","","",""
"1511.8649999785703","Stimuli/Hangul_M50.bmp","190","image-keyboard-response","242","425448","0.0-10.0-1.14","test",",","",".","",""
"null","<div style=""color:white; font-size:60px;"">+</div>","null","html-keyboard-response","243","426450","0.0-10.0-0.15","fixation","","","","",""
"1806.8249999778345","Stimuli/Hangul_M60.bmp","188","image-keyboard-response","244","428259","0.0-10.0-1.15","test",",","",",","",""
"null","<div style=""color:white; font-size:60px;"">+</div>","null","html-keyboard-response","245","429262","0.0-10.0-0.16","fixation","","","","",""
"1594.0899999986868","Stimuli/Hangul_M67.bmp","190","image-keyboard-response","246","430857","0.0-10.0-1.16","test",",","",".","",""
"null","<div style=""color:white; font-size:60px;"">+</div>","null","html-keyboard-response","247","431858","0.0-10.0-0.17","fixation","","","","",""
"1779.7949999803677","Stimuli/Hangul_M73.bmp","188","image-keyboard-response","248","433639","0.0-10.0-1.17","test",",","",",","",""
"null","<div style=""color:white; font-size:60px;"">+</div>","null","html-keyboard-response","249","434646","0.0-10.0-0.18","fixation","","","","",""
"2342.9550000000745","Stimuli/Hangul_M71.bmp","188","image-keyboard-response","250","436991","0.0-10.0-1.18","test",",","",",","",""
"null","<div style=""color:white; font-size:60px;"">+</div>","null","html-keyboard-response","251","437995","0.0-10.0-0.19","fixation","","","","",""
"1993.3799999998882","Stimuli/Hangul_F52.bmp","188","image-keyboard-response","252","439989","0.0-10.0-1.19","test",".","",",","",""
"null","<div style=""color:white; font-size:60px;"">+</div>","null","html-keyboard-response","253","440991","0.0-10.0-0.20","fixation","","","","",""
"1863.870000001043","Stimuli/Hangul_M56.bmp","190","image-keyboard-response","254","442857","0.0-10.0-1.20","test",",","",".","",""
"null","<div style=""color:white; font-size:60px;"">+</div>","null","html-keyboard-response","255","443858","0.0-10.0-0.21","fixation","","","","",""
"1762.6250000030268","Stimuli/Hangul_F66.bmp","190","image-keyboard-response","256","445622","0.0-10.0-1.21","test",".","",".","",""
"null","<div style=""color:white; font-size:60px;"">+</div>","null","html-keyboard-response","257","446626","0.0-10.0-0.22","fixation","","","","",""
"1342.4900000100024","Stimuli/Hangul_F65.bmp","190","image-keyboard-response","258","447970","0.0-10.0-1.22","test",".","",".","",""
"null","<div style=""color:white; font-size:60px;"">+</div>","null","html-keyboard-response","259","448975","0.0-10.0-0.23","fixation","","","","",""
"1788.0850000074133","Stimuli/Hangul_F72.bmp","190","image-keyboard-response","260","450765","0.0-10.0-1.23","test",".","",".","",""
"null","<div style=""color:white; font-size:60px;"">+</div>","null","html-keyboard-response","261","451766","0.0-10.0-0.24","fixation","","","","",""
"1795.8849999995437","Stimuli/Hangul_M52.bmp","190","image-keyboard-response","262","453563","0.0-10.0-1.24","test",",","",".","",""
"null","<div style=""color:white; font-size:60px;"">+</div>","null","html-keyboard-response","263","454566","0.0-10.0-0.25","fixation","","","","",""
"2022.5099999806844","Stimuli/Hangul_M74.bmp","190","image-keyboard-response","264","456591","0.0-10.0-1.25","test",",","",".","",""
"null","<div style=""color:white; font-size:60px;"">+</div>","null","html-keyboard-response","265","457595","0.0-10.0-0.26","fixation","","","","",""
"1792.1400000050198","Stimuli/Hangul_M58.bmp","190","image-keyboard-response","266","459388","0.0-10.0-1.26","test",",","",".","",""
"null","<div style=""color:white; font-size:60px;"">+</div>","null","html-keyboard-response","267","460389","0.0-10.0-0.27","fixation","","","","",""
"1674.9049999925774","Stimuli/Hangul_F71.bmp","188","image-keyboard-response","268","462065","0.0-10.0-1.27","test",".","",",","",""
"null","<div style=""color:white; font-size:60px;"">+</div>","null","html-keyboard-response","269","463069","0.0-10.0-0.28","fixation","","","","",""
"1720.484999998007","Stimuli/Hangul_M57.bmp","190","image-keyboard-response","270","464791","0.0-10.0-1.28","test",",","",".","",""
"null","<div style=""color:white; font-size:60px;"">+</div>","null","html-keyboard-response","271","465795","0.0-10.0-0.29","fixation","","","","",""
"1976.5999999945052","Stimuli/Hangul_M63.bmp","188","image-keyboard-response","272","467772","0.0-10.0-1.29","test",",","",",","",""
"null","<div style=""color:white; font-size:60px;"">+</div>","null","html-keyboard-response","273","468774","0.0-10.0-0.30","fixation","","","","",""
"1914.8300000233576","Stimuli/Hangul_M64.bmp","188","image-keyboard-response","274","470691","0.0-10.0-1.30","test",",","",",","",""
"null","<div style=""color:white; font-size:60px;"">+</div>","null","html-keyboard-response","275","471695","0.0-10.0-0.31","fixation","","","","",""
"1507.8750000102445","Stimuli/Hangul_F64.bmp","190","image-keyboard-response","276","473204","0.0-10.0-1.31","test",".","",".","",""
"null","<div style=""color:white; font-size:60px;"">+</div>","null","html-keyboard-response","277","474207","0.0-10.0-0.32","fixation","","","","",""
"1616.4699999790173","Stimuli/Hangul_F54.bmp","190","image-keyboard-response","278","475824","0.0-10.0-1.32","test",".","",".","",""
"null","<div style=""color:white; font-size:60px;"">+</div>","null","html-keyboard-response","279","476827","0.0-10.0-0.33","fixation","","","","",""
"1627.455000008922","Stimuli/Hangul_F55.bmp","188","image-keyboard-response","280","478456","0.0-10.0-1.33","test",".","",",","",""
"null","<div style=""color:white; font-size:60px;"">+</div>","null","html-keyboard-response","281","479457","0.0-10.0-0.34","fixation","","","","",""
"1733.1300000078045","Stimuli/Hangul_M61.bmp","190","image-keyboard-response","282","481191","0.0-10.0-1.34","test",",","",".","",""
"null","<div style=""color:white; font-size:60px;"">+</div>","null","html-keyboard-response","283","482195","0.0-10.0-0.35","fixation","","","","",""
"1984.9749999993946","Stimuli/Hangul_F53.bmp","190","image-keyboard-response","284","484181","0.0-10.0-1.35","test",".","",".","",""
"null","<div style=""color:white; font-size:60px;"">+</div>","null","html-keyboard-response","285","485182","0.0-10.0-0.36","fixation","","","","",""
"1507.4100000201724","Stimuli/Hangul_F68.bmp","190","image-keyboard-response","286","486691","0.0-10.0-1.36","test",".","",".","",""
"null","<div style=""color:white; font-size:60px;"">+</div>","null","html-keyboard-response","287","487696","0.0-10.0-0.37","fixation","","","","",""
"1413.9549999963492","Stimuli/Hangul_F73.bmp","190","image-keyboard-response","288","489111","0.0-10.0-1.37","test",".","",".","",""
"null","<div style=""color:white; font-size:60px;"">+</div>","null","html-keyboard-response","289","490113","0.0-10.0-0.38","fixation","","","","",""
"1695.7600000023376","Stimuli/Hangul_F61.bmp","190","image-keyboard-response","290","491810","0.0-10.0-1.38","test",".","",".","",""
"null","<div style=""color:white; font-size:60px;"">+</div>","null","html-keyboard-response","291","492811","0.0-10.0-0.39","fixation","","","","",""
"1598.534999997355","Stimuli/Hangul_F74.bmp","190","image-keyboard-response","292","494411","0.0-10.0-1.39","test",".","",".","",""
"null","<div style=""color:white; font-size:60px;"">+</div>","null","html-keyboard-response","293","495415","0.0-10.0-0.40","fixation","","","","",""
"1683.3599999954458","Stimuli/Hangul_F70.bmp","190","image-keyboard-response","294","497100","0.0-10.0-1.40","test",".","",".","",""
"null","<div style=""color:white; font-size:60px;"">+</div>","null","html-keyboard-response","295","498101","0.0-10.0-0.41","fixation","","","","",""
"3590.874999994412","Stimuli/Hangul_M62.bmp","190","image-keyboard-response","296","501693","0.0-10.0-1.41","test",",","",".","",""
"null","<div style=""color:white; font-size:60px;"">+</div>","null","html-keyboard-response","297","502695","0.0-10.0-0.42","fixation","","","","",""
"2065.530000021681","Stimuli/Hangul_F50.bmp","190","image-keyboard-response","298","504762","0.0-10.0-1.42","test",".","",".","",""
"null","<div style=""color:white; font-size:60px;"">+</div>","null","html-keyboard-response","299","505767","0.0-10.0-0.43","fixation","","","","",""
"2012.654999998631","Stimuli/Hangul_M54.bmp","188","image-keyboard-response","300","507781","0.0-10.0-1.43","test",",","",",","",""
"null","<div style=""color:white; font-size:60px;"">+</div>","null","html-keyboard-response","301","508783","0.0-10.0-0.44","fixation","","","","",""
"1590.2200000127777","Stimuli/Hangul_F59.bmp","190","image-keyboard-response","302","510375","0.0-10.0-1.44","test",".","",".","",""
"null","<div style=""color:white; font-size:60px;"">+</div>","null","html-keyboard-response","303","511376","0.0-10.0-0.45","fixation","","","","",""
"1849.950000003446","Stimuli/Hangul_F63.bmp","188","image-keyboard-response","304","513227","0.0-10.0-1.45","test",".","",",","",""
"null","<div style=""color:white; font-size:60px;"">+</div>","null","html-keyboard-response","305","514231","0.0-10.0-0.46","fixation","","","","",""
"1845.5550000071526","Stimuli/Hangul_M68.bmp","188","image-keyboard-response","306","516078","0.0-10.0-1.46","test",",","",",","",""
"null","<div style=""color:white; font-size:60px;"">+</div>","null","html-keyboard-response","307","517079","0.0-10.0-0.47","fixation","","","","",""
"1684.7149999812245","Stimuli/Hangul_F51.bmp","190","image-keyboard-response","308","518766","0.0-10.0-1.47","test",".","",".","",""
"null","<div style=""color:white; font-size:60px;"">+</div>","null","html-keyboard-response","309","519769","0.0-10.0-0.48","fixation","","","","",""
"2034.3700000084937","Stimuli/Hangul_M69.bmp","188","image-keyboard-response","310","521805","0.0-10.0-1.48","test",",","",",","",""
"null","<div style=""color:white; font-size:60px;"">+</div>","null","html-keyboard-response","311","522807","0.0-10.0-0.49","fixation","","","","",""
"1807.5349999999162","Stimuli/Hangul_M66.bmp","188","image-keyboard-response","312","524616","0.0-10.0-1.49","test",",","",",","",""
"15742.939999996452","<p style=""color:white;"">One more block to go! Please take a moment to rest.</p> <p style=""color:white;"">When you are ready to continue with block 4 of 4, press the space bar.</p> ","32","html-keyboard-response","313","540360","0.0-11.0","","","","","",""
"null","<div style=""color:white; font-size:60px;"">+</div>","null","html-keyboard-response","314","543368","0.0-12.0-0.0","fixation","","","","",""
"1669.0599999856204","Stimuli/Hangul_M84.bmp","190","image-keyboard-response","315","545039","0.0-12.0-1.0","test",",","",".","",""
"null","<div style=""color:white; font-size:60px;"">+</div>","null","html-keyboard-response","316","546044","0.0-12.0-0.1","fixation","","","","",""
"1803.5650000092573","Stimuli/Hangul_F90.bmp","188","image-keyboard-response","317","547849","0.0-12.0-1.1","test",".","",",","",""
"null","<div style=""color:white; font-size:60px;"">+</div>","null","html-keyboard-response","318","548851","0.0-12.0-0.2","fixation","","","","",""
"1492.7549999847542","Stimuli/Hangul_F93.bmp","190","image-keyboard-response","319","550345","0.0-12.0-1.2","test",".","",".","",""
"null","<div style=""color:white; font-size:60px;"">+</div>","null","html-keyboard-response","320","551348","0.0-12.0-0.3","fixation","","","","",""
"1641.7749999964144","Stimuli/Hangul_M79.bmp","188","image-keyboard-response","321","552993","0.0-12.0-1.3","test",",","",",","",""
"null","<div style=""color:white; font-size:60px;"">+</div>","null","html-keyboard-response","322","553994","0.0-12.0-0.4","fixation","","","","",""
"1502.5800000003073","Stimuli/Hangul_F85.bmp","190","image-keyboard-response","323","555498","0.0-12.0-1.4","test",".","",".","",""
"null","<div style=""color:white; font-size:60px;"">+</div>","null","html-keyboard-response","324","556499","0.0-12.0-0.5","fixation","","","","",""
"1349.3250000174157","Stimuli/Hangul_F84.bmp","190","image-keyboard-response","325","557850","0.0-12.0-1.5","test",".","",".","",""
"null","<div style=""color:white; font-size:60px;"">+</div>","null","html-keyboard-response","326","558856","0.0-12.0-0.6","fixation","","","","",""
"1559.2300000134856","Stimuli/Hangul_M98.bmp","188","image-keyboard-response","327","560416","0.0-12.0-1.6","test",",","",",","",""
"null","<div style=""color:white; font-size:60px;"">+</div>","null","html-keyboard-response","328","561419","0.0-12.0-0.7","fixation","","","","",""
"1832.0249999815132","Stimuli/Hangul_F91.bmp","188","image-keyboard-response","329","563253","0.0-12.0-1.7","test",".","",",","",""
"null","<div style=""color:white; font-size:60px;"">+</div>","null","html-keyboard-response","330","564256","0.0-12.0-0.8","fixation","","","","",""
"5018.230000016047","Stimuli/Hangul_F76.bmp","190","image-keyboard-response","331","569275","0.0-12.0-1.8","test",".","",".","",""
"null","<div style=""color:white; font-size:60px;"">+</div>","null","html-keyboard-response","332","570276","0.0-12.0-0.9","fixation","","","","",""
"1585.655000002589","Stimuli/Hangul_M88.bmp","188","image-keyboard-response","333","571863","0.0-12.0-1.9","test",",","",",","",""
"null","<div style=""color:white; font-size:60px;"">+</div>","null","html-keyboard-response","334","572868","0.0-12.0-0.10","fixation","","","","",""
"2237.2399999876507","Stimuli/Hangul_M99.bmp","188","image-keyboard-response","335","575107","0.0-12.0-1.10","test",",","",",","",""
"null","<div style=""color:white; font-size:60px;"">+</div>","null","html-keyboard-response","336","576108","0.0-12.0-0.11","fixation","","","","",""
"1685.460000007879","Stimuli/Hangul_M87.bmp","190","image-keyboard-response","337","577795","0.0-12.0-1.11","test",",","",".","",""
"null","<div style=""color:white; font-size:60px;"">+</div>","null","html-keyboard-response","338","578796","0.0-12.0-0.12","fixation","","","","",""
"1540.050000010524","Stimuli/Hangul_M85.bmp","188","image-keyboard-response","339","580338","0.0-12.0-1.12","test",",","",",","",""
"null","<div style=""color:white; font-size:60px;"">+</div>","null","html-keyboard-response","340","581340","0.0-12.0-0.13","fixation","","","","",""
"1765.6500000157394","Stimuli/Hangul_M81.bmp","188","image-keyboard-response","341","583107","0.0-12.0-1.13","test",",","",",","",""
"null","<div style=""color:white; font-size:60px;"">+</div>","null","html-keyboard-response","342","584108","0.0-12.0-0.14","fixation","","","","",""
"1488.5099999955855","Stimuli/Hangul_F82.bmp","190","image-keyboard-response","343","585598","0.0-12.0-1.14","test",".","",".","",""
"null","<div style=""color:white; font-size:60px;"">+</div>","null","html-keyboard-response","344","586599","0.0-12.0-0.15","fixation","","","","",""
"2820.819999993546","Stimuli/Hangul_M77.bmp","188","image-keyboard-response","345","589421","0.0-12.0-1.15","test",",","",",","",""
"null","<div style=""color:white; font-size:60px;"">+</div>","null","html-keyboard-response","346","590424","0.0-12.0-0.16","fixation","","","","",""
"3171.139999991283","Stimuli/Hangul_M76.bmp","188","image-keyboard-response","347","593596","0.0-12.0-1.16","test",",","",",","",""
"null","<div style=""color:white; font-size:60px;"">+</div>","null","html-keyboard-response","348","594598","0.0-12.0-0.17","fixation","","","","",""
"1635.424999985844","Stimuli/Hangul_F88.bmp","190","image-keyboard-response","349","596235","0.0-12.0-1.17","test",".","",".","",""
"null","<div style=""color:white; font-size:60px;"">+</div>","null","html-keyboard-response","350","597236","0.0-12.0-0.18","fixation","","","","",""
"1535.7749999966472","Stimuli/Hangul_M83.bmp","188","image-keyboard-response","351","598773","0.0-12.0-1.18","test",",","",",","",""
"null","<div style=""color:white; font-size:60px;"">+</div>","null","html-keyboard-response","352","599775","0.0-12.0-0.19","fixation","","","","",""
"1615.6449999834877","Stimuli/Hangul_M91.bmp","188","image-keyboard-response","353","601391","0.0-12.0-1.19","test",",","",",","",""
"null","<div style=""color:white; font-size:60px;"">+</div>","null","html-keyboard-response","354","602392","0.0-12.0-0.20","fixation","","","","",""
"1487.9199999850243","Stimuli/Hangul_F83.bmp","190","image-keyboard-response","355","603882","0.0-12.0-1.20","test",".","",".","",""
"null","<div style=""color:white; font-size:60px;"">+</div>","null","html-keyboard-response","356","604884","0.0-12.0-0.21","fixation","","","","",""
"1532.6999999815598","Stimuli/Hangul_M90.bmp","188","image-keyboard-response","357","606418","0.0-12.0-1.21","test",",","",",","",""
"null","<div style=""color:white; font-size:60px;"">+</div>","null","html-keyboard-response","358","607420","0.0-12.0-0.22","fixation","","","","",""
"1662.3450000188313","Stimuli/Hangul_F92.bmp","190","image-keyboard-response","359","609084","0.0-12.0-1.22","test",".","",".","",""
"null","<div style=""color:white; font-size:60px;"">+</div>","null","html-keyboard-response","360","610085","0.0-12.0-0.23","fixation","","","","",""
"1447.199999995064","Stimuli/Hangul_M86.bmp","188","image-keyboard-response","361","611533","0.0-12.0-1.23","test",",","",",","",""
"null","<div style=""color:white; font-size:60px;"">+</div>","null","html-keyboard-response","362","612536","0.0-12.0-0.24","fixation","","","","",""
"1612.26500000339","Stimuli/Hangul_F77.bmp","190","image-keyboard-response","363","614150","0.0-12.0-1.24","test",".","",".","",""
"null","<div style=""color:white; font-size:60px;"">+</div>","null","html-keyboard-response","364","615152","0.0-12.0-0.25","fixation","","","","",""
"1622.8750000009313","Stimuli/Hangul_M93.bmp","188","image-keyboard-response","365","616777","0.0-12.0-1.25","test",",","",",","",""
"null","<div style=""color:white; font-size:60px;"">+</div>","null","html-keyboard-response","366","617779","0.0-12.0-0.26","fixation","","","","",""
"1812.0599999965634","Stimuli/Hangul_F94.bmp","190","image-keyboard-response","367","619592","0.0-12.0-1.26","test",".","",".","",""
"null","<div style=""color:white; font-size:60px;"">+</div>","null","html-keyboard-response","368","620596","0.0-12.0-0.27","fixation","","","","",""
"420.1300000131596","Stimuli/Hangul_F81.bmp","190","image-keyboard-response","369","621018","0.0-12.0-1.27","test",".","",".","",""
"null","<div style=""color:white; font-size:60px;"">+</div>","null","html-keyboard-response","370","622022","0.0-12.0-0.28","fixation","","","","",""
"1557.669999980135","Stimuli/Hangul_F97.bmp","190","image-keyboard-response","371","623580","0.0-12.0-1.28","test",".","",".","",""
"null","<div style=""color:white; font-size:60px;"">+</div>","null","html-keyboard-response","372","624582","0.0-12.0-0.29","fixation","","","","",""
"1497.7400000207126","Stimuli/Hangul_F95.bmp","190","image-keyboard-response","373","626082","0.0-12.0-1.29","test",".","",".","",""
"null","<div style=""color:white; font-size:60px;"">+</div>","null","html-keyboard-response","374","627084","0.0-12.0-0.30","fixation","","","","",""
"1357.6499999908265","Stimuli/Hangul_F79.bmp","190","image-keyboard-response","375","628443","0.0-12.0-1.30","test",".","",".","",""
"null","<div style=""color:white; font-size:60px;"">+</div>","null","html-keyboard-response","376","629449","0.0-12.0-0.31","fixation","","","","",""
"1568.3900000003632","Stimuli/Hangul_M95.bmp","188","image-keyboard-response","377","631018","0.0-12.0-1.31","test",",","",",","",""
"null","<div style=""color:white; font-size:60px;"">+</div>","null","html-keyboard-response","378","632021","0.0-12.0-0.32","fixation","","","","",""
"1497.0800000010058","Stimuli/Hangul_M94.bmp","188","image-keyboard-response","379","633519","0.0-12.0-1.32","test",",","",",","",""
"null","<div style=""color:white; font-size:60px;"">+</div>","null","html-keyboard-response","380","634521","0.0-12.0-0.33","fixation","","","","",""
"1617.6799999957439","Stimuli/Hangul_F98.bmp","190","image-keyboard-response","381","636140","0.0-12.0-1.33","test",".","",".","",""
"null","<div style=""color:white; font-size:60px;"">+</div>","null","html-keyboard-response","382","637144","0.0-12.0-0.34","fixation","","","","",""
"2690.3350000211503","Stimuli/Hangul_M80.bmp","188","image-keyboard-response","383","639836","0.0-12.0-1.34","test",",","",",","",""
"null","<div style=""color:white; font-size:60px;"">+</div>","null","html-keyboard-response","384","640838","0.0-12.0-0.35","fixation","","","","",""
"1709.3849999946542","Stimuli/Hangul_F78.bmp","190","image-keyboard-response","385","642549","0.0-12.0-1.35","test",".","",".","",""
"null","<div style=""color:white; font-size:60px;"">+</div>","null","html-keyboard-response","386","643552","0.0-12.0-0.36","fixation","","","","",""
"1494.8800000129268","Stimuli/Hangul_M89.bmp","188","image-keyboard-response","387","645048","0.0-12.0-1.36","test",",","",",","",""
"null","<div style=""color:white; font-size:60px;"">+</div>","null","html-keyboard-response","388","646053","0.0-12.0-0.37","fixation","","","","",""
"1462.0299999951385","Stimuli/Hangul_F75.bmp","190","image-keyboard-response","389","647516","0.0-12.0-1.37","test",".","",".","",""
"null","<div style=""color:white; font-size:60px;"">+</div>","null","html-keyboard-response","390","648518","0.0-12.0-0.38","fixation","","","","",""
"1612.5149999861605","Stimuli/Hangul_F87.bmp","190","image-keyboard-response","391","650133","0.0-12.0-1.38","test",".","",".","",""
"null","<div style=""color:white; font-size:60px;"">+</div>","null","html-keyboard-response","392","651136","0.0-12.0-0.39","fixation","","","","",""
"1463.065000018105","Stimuli/Hangul_M75.bmp","188","image-keyboard-response","393","652601","0.0-12.0-1.39","test",",","",",","",""
"null","<div style=""color:white; font-size:60px;"">+</div>","null","html-keyboard-response","394","653605","0.0-12.0-0.40","fixation","","","","",""
"1454.265000007581","Stimuli/Hangul_F86.bmp","190","image-keyboard-response","395","655060","0.0-12.0-1.40","test",".","",".","",""
"null","<div style=""color:white; font-size:60px;"">+</div>","null","html-keyboard-response","396","656065","0.0-12.0-0.41","fixation","","","","",""
"2784.5499999821186","Stimuli/Hangul_F89.bmp","190","image-keyboard-response","397","658851","0.0-12.0-1.41","test",".","",".","",""
"null","<div style=""color:white; font-size:60px;"">+</div>","null","html-keyboard-response","398","659857","0.0-12.0-0.42","fixation","","","","",""
"2140.0599999760743","Stimuli/Hangul_M97.bmp","188","image-keyboard-response","399","662001","0.0-12.0-1.42","test",",","",",","",""
"null","<div style=""color:white; font-size:60px;"">+</div>","null","html-keyboard-response","400","663005","0.0-12.0-0.43","fixation","","","","",""
"1591.7899999767542","Stimuli/Hangul_F99.bmp","188","image-keyboard-response","401","664598","0.0-12.0-1.43","test",".","",",","",""
"null","<div style=""color:white; font-size:60px;"">+</div>","null","html-keyboard-response","402","665601","0.0-12.0-0.44","fixation","","","","",""
"1460.9249999921303","Stimuli/Hangul_F80.bmp","190","image-keyboard-response","403","667062","0.0-12.0-1.44","test",".","",".","",""
"null","<div style=""color:white; font-size:60px;"">+</div>","null","html-keyboard-response","404","668065","0.0-12.0-0.45","fixation","","","","",""
"1459.514999995008","Stimuli/Hangul_F96.bmp","190","image-keyboard-response","405","669525","0.0-12.0-1.45","test",".","",".","",""
"null","<div style=""color:white; font-size:60px;"">+</div>","null","html-keyboard-response","406","670529","0.0-12.0-0.46","fixation","","","","",""
"1733.7050000205636","Stimuli/Hangul_M96.bmp","188","image-keyboard-response","407","672264","0.0-12.0-1.46","test",",","",",","",""
"null","<div style=""color:white; font-size:60px;"">+</div>","null","html-keyboard-response","408","673266","0.0-12.0-0.47","fixation","","","","",""
"1507.4899999890476","Stimuli/Hangul_M82.bmp","190","image-keyboard-response","409","674774","0.0-12.0-1.47","test",",","",".","",""
"null","<div style=""color:white; font-size:60px;"">+</div>","null","html-keyboard-response","410","675775","0.0-12.0-0.48","fixation","","","","",""
"1630.2149999828544","Stimuli/Hangul_M92.bmp","188","image-keyboard-response","411","677407","0.0-12.0-1.48","test",",","",",","",""
"null","<div style=""color:white; font-size:60px;"">+</div>","null","html-keyboard-response","412","678409","0.0-12.0-0.49","fixation","","","","",""
"1632.5450000003912","Stimuli/Hangul_M78.bmp","188","image-keyboard-response","413","680043","0.0-12.0-1.49","test",",","",",","",""
"2358.0200000142213","<p style=""color:white;"">Phase I of the experiment is complete.</p> <p style=""color:white;"">Press the space bar to proceed to Phase II of the experiment.</p> ","32","html-keyboard-response","414","682402","0.0-13.0","","","","","",""
"26004.114999988815","<p style=""color:white;"">Now we are interested in how well you can predict patterns in the series of figures. You will be asked to predict whether the next figure in the series is more male-like or female-like. When you see the <q>Next Figure</q> prompt, press the corresponding response keys to indicate your prediction: </p><p style=""color:white;""> Male &#8594 <q>,</q> (comma)</p><p style=""color:white;""> Female &#8594 <q>.</q> (period)</p><p style=""color:white;"">The actual figure will then appear on the screen. After you see the figure, please guess the assigned gender with response keys. </p><p style=""color:white;"">As before, you will receive 2 cents for correctly classifying each figure.</p><p style=""color:white;"">Press either response keys to continue.</p>","188","html-keyboard-response","415","710411","0.0-14.0","","","","","",""
"13314.240000006976","<p style=""color:white;"">PREDICTION BONUS</p> <p style=""color:white;"">Your prediction accuracy is the total number of correct predictions you make over the 200 trials.</p> <p style=""color:white;"">In addition to the 2 cents per correct figure classification, you have the chance to receive a bonus of 40 dollars IF your accuracy is above average relative to previous participants.</p><p style=""color:white;"">If your accuracy is below average relative to previous participants, then you will not receive the 40 dollar bonus.</p><p style=""color:white;"">Press the space bar to continue.</p>","32","html-keyboard-response","416","723726","0.0-15.0","","","","","",""
"4993.079999985639","<p style=""color:white;"">Here are some examples.</p> <p style=""color:white;"">For each, predict whether the next figure looks more male-like or female-like. Then, when the figure appears, guess whether it looks more male-like or female-like and indicate your choice.</p> <p style=""color:white;"">Press the space bar to continue.</p>","32","html-keyboard-response","417","728720","0.0-16.0","","","","","",""
"4044.739999982994","<p style=""color:white;""> Next Figure: Male or Female? </p>","188","html-keyboard-response","418","734772","0.0-17.0-0.0","prediction_train","","","",",",""
"null","<div style=""color:white; font-size:60px;"">+</div>","null","html-keyboard-response","419","735774","0.0-17.0-1.0","fixation","","","","",""
"861.2350000184961","Stimuli/Hangul_E2.bmp","190","image-keyboard-response","420","736637","0.0-17.0-2.0","c2_train",".","","","","."
"4484.389999997802","<p style=""color:white;""> Next Figure: Male or Female? </p>","190","html-keyboard-response","421","741122","0.0-17.0-0.1","prediction_train","","","",".",""
"null","<div style=""color:white; font-size:60px;"">+</div>","null","html-keyboard-response","422","742126","0.0-17.0-1.1","fixation","","","","",""
"5809.5549999852665","Stimuli/Hangul_E0.bmp","188","image-keyboard-response","423","747937","0.0-17.0-2.1","c2_train",",","","","",","
"2259.749999997439","<p style=""color:white;""> Next Figure: Male or Female? </p>","190","html-keyboard-response","424","750198","0.0-17.0-0.2","prediction_train","","","",".",""
"null","<div style=""color:white; font-size:60px;"">+</div>","null","html-keyboard-response","425","751202","0.0-17.0-1.2","fixation","","","","",""
"1845.9599999769125","Stimuli/Hangul_E1.bmp","188","image-keyboard-response","426","753050","0.0-17.0-2.2","c2_train",",","","","",","
"3035.310000006575","<p style=""color:white;"">Let us begin! Press the space bar when you are ready to start block 1 of 4.</p> ","32","html-keyboard-response","427","756086","0.0-18.0","","","","","",""
"1110.0199999928009","<p style=""color:white;""> Next Figure: Male or Female? </p>","188","html-keyboard-response","428","759199","0.0-19.0-0.0","prediction","","","",",",""
"null","<div style=""color:white; font-size:60px;"">+</div>","null","html-keyboard-response","429","760202","0.0-19.0-1.0","fixation","","","","",""
"3373.7100000143982","Stimuli/Hangul_M16.bmp","188","image-keyboard-response","430","763577","0.0-19.0-2.0","c2_test",",","","","",","
"1169.7850000055041","<p style=""color:white;""> Next Figure: Male or Female? </p>","190","html-keyboard-response","431","764748","0.0-19.0-0.1","prediction","","","",".",""
"null","<div style=""color:white; font-size:60px;"">+</div>","null","html-keyboard-response","432","765750","0.0-19.0-1.1","fixation","","","","",""
"6791.93999999552","Stimuli/Hangul_F1.bmp","190","image-keyboard-response","433","772543","0.0-19.0-2.1","c2_test",".","","","","."
"3148.5000000102445","<p style=""color:white;""> Next Figure: Male or Female? </p>","190","html-keyboard-response","434","775692","0.0-19.0-0.2","prediction","","","",".",""
"null","<div style=""color:white; font-size:60px;"">+</div>","null","html-keyboard-response","435","776694","0.0-19.0-1.2","fixation","","","","",""
"844.0199999895412","Stimuli/Hangul_M24.bmp","188","image-keyboard-response","436","777540","0.0-19.0-2.2","c2_test",",","","","",","
"4029.435000004014","<p style=""color:white;""> Next Figure: Male or Female? </p>","188","html-keyboard-response","437","781570","0.0-19.0-0.3","prediction","","","",",",""
"null","<div style=""color:white; font-size:60px;"">+</div>","null","html-keyboard-response","438","782573","0.0-19.0-1.3","fixation","","","","",""
"593.7850000045728","Stimuli/Hangul_F6.bmp","188","image-keyboard-response","439","783169","0.0-19.0-2.3","c2_test",".","","","",","
"1769.559999986086","<p style=""color:white;""> Next Figure: Male or Female? </p>","190","html-keyboard-response","440","784939","0.0-19.0-0.4","prediction","","","",".",""
"null","<div style=""color:white; font-size:60px;"">+</div>","null","html-keyboard-response","441","785941","0.0-19.0-1.4","fixation","","","","",""
"1235.5849999876227","Stimuli/Hangul_F9.bmp","188","image-keyboard-response","442","787178","0.0-19.0-2.4","c2_test",".","","","",","
"3676.865000015823","<p style=""color:white;""> Next Figure: Male or Female? </p>","190","html-keyboard-response","443","790856","0.0-19.0-0.5","prediction","","","",".",""
"null","<div style=""color:white; font-size:60px;"">+</div>","null","html-keyboard-response","444","791858","0.0-19.0-1.5","fixation","","","","",""
"1491.9649999937974","Stimuli/Hangul_M1.bmp","190","image-keyboard-response","445","793352","0.0-19.0-2.5","c2_test",",","","","","."
"3702.1999999997206","<p style=""color:white;""> Next Figure: Male or Female? </p>","188","html-keyboard-response","446","797055","0.0-19.0-0.6","prediction","","","",",",""
"null","<div style=""color:white; font-size:60px;"">+</div>","null","html-keyboard-response","447","798057","0.0-19.0-1.6","fixation","","","","",""
"1474.5199999888428","Stimuli/Hangul_F11.bmp","188","image-keyboard-response","448","799533","0.0-19.0-2.6","c2_test",".","","","",","
"1905.3100000019185","<p style=""color:white;""> Next Figure: Male or Female? </p>","190","html-keyboard-response","449","801439","0.0-19.0-0.7","prediction","","","",".",""
"null","<div style=""color:white; font-size:60px;"">+</div>","null","html-keyboard-response","450","802440","0.0-19.0-1.7","fixation","","","","",""
"808.9449999970384","Stimuli/Hangul_M6.bmp","188","image-keyboard-response","451","803251","0.0-19.0-2.7","c2_test",",","","","",","
"1462.8349999838974","<p style=""color:white;""> Next Figure: Male or Female? </p>","190","html-keyboard-response","452","804715","0.0-19.0-0.8","prediction","","","",".",""
"null","<div style=""color:white; font-size:60px;"">+</div>","null","html-keyboard-response","453","805718","0.0-19.0-1.8","fixation","","","","",""
"728.3750000060536","Stimuli/Hangul_F10.bmp","190","image-keyboard-response","454","806448","0.0-19.0-2.8","c2_test",".","","","","."
"3106.694999994943","<p style=""color:white;""> Next Figure: Male or Female? </p>","188","html-keyboard-response","455","809555","0.0-19.0-0.9","prediction","","","",",",""
"null","<div style=""color:white; font-size:60px;"">+</div>","null","html-keyboard-response","456","810558","0.0-19.0-1.9","fixation","","","","",""
"540.6199999852106","Stimuli/Hangul_F2.bmp","188","image-keyboard-response","457","811100","0.0-19.0-2.9","c2_test",".","","","",","
"1212.8250000241678","<p style=""color:white;""> Next Figure: Male or Female? </p>","190","html-keyboard-response","458","812314","0.0-19.0-0.10","prediction","","","",".",""
"null","<div style=""color:white; font-size:60px;"">+</div>","null","html-keyboard-response","459","813319","0.0-19.0-1.10","fixation","","","","",""
"467.01500000199303","Stimuli/Hangul_F18.bmp","190","image-keyboard-response","460","813787","0.0-19.0-2.10","c2_test",".","","","","."
"1831.6950000007637","<p style=""color:white;""> Next Figure: Male or Female? </p>","188","html-keyboard-response","461","815620","0.0-19.0-0.11","prediction","","","",",",""
"null","<div style=""color:white; font-size:60px;"">+</div>","null","html-keyboard-response","462","816621","0.0-19.0-1.11","fixation","","","","",""
"884.5349999901373","Stimuli/Hangul_M7.bmp","188","image-keyboard-response","463","817507","0.0-19.0-2.11","c2_test",",","","","",","
"1262.28500000434","<p style=""color:white;""> Next Figure: Male or Female? </p>","188","html-keyboard-response","464","818770","0.0-19.0-0.12","prediction","","","",",",""
"null","<div style=""color:white; font-size:60px;"">+</div>","null","html-keyboard-response","465","819775","0.0-19.0-1.12","fixation","","","","",""
"696.2249999924097","Stimuli/Hangul_M20.bmp","188","image-keyboard-response","466","820472","0.0-19.0-2.12","c2_test",",","","","",","
"1094.5199999841861","<p style=""color:white;""> Next Figure: Male or Female? </p>","188","html-keyboard-response","467","821567","0.0-19.0-0.13","prediction","","","",",",""
"null","<div style=""color:white; font-size:60px;"">+</div>","null","html-keyboard-response","468","822573","0.0-19.0-1.13","fixation","","","","",""
"878.4199999936391","Stimuli/Hangul_F13.bmp","188","image-keyboard-response","469","823452","0.0-19.0-2.13","c2_test",".","","","",","
"1336.9999999995343","<p style=""color:white;""> Next Figure: Male or Female? </p>","188","html-keyboard-response","470","824791","0.0-19.0-0.14","prediction","","","",",",""
"null","<div style=""color:white; font-size:60px;"">+</div>","null","html-keyboard-response","471","825795","0.0-19.0-1.14","fixation","","","","",""
"972.7100000018254","Stimuli/Hangul_M0.bmp","188","image-keyboard-response","472","826769","0.0-19.0-2.14","c2_test",",","","","",","
"1226.0399999795482","<p style=""color:white;""> Next Figure: Male or Female? </p>","188","html-keyboard-response","473","827997","0.0-19.0-0.15","prediction","","","",",",""
"null","<div style=""color:white; font-size:60px;"">+</div>","null","html-keyboard-response","474","828999","0.0-19.0-1.15","fixation","","","","",""
"636.1049999832176","Stimuli/Hangul_M5.bmp","188","image-keyboard-response","475","829636","0.0-19.0-2.15","c2_test",",","","","",","
"922.019999998156","<p style=""color:white;""> Next Figure: Male or Female? </p>","190","html-keyboard-response","476","830559","0.0-19.0-0.16","prediction","","","",".",""
"null","<div style=""color:white; font-size:60px;"">+</div>","null","html-keyboard-response","477","831562","0.0-19.0-1.16","fixation","","","","",""
"1123.120000003837","Stimuli/Hangul_M22.bmp","188","image-keyboard-response","478","832686","0.0-19.0-2.16","c2_test",",","","","",","
"1259.6699999994598","<p style=""color:white;""> Next Figure: Male or Female? </p>","188","html-keyboard-response","479","833947","0.0-19.0-0.17","prediction","","","",",",""
"null","<div style=""color:white; font-size:60px;"">+</div>","null","html-keyboard-response","480","834950","0.0-19.0-1.17","fixation","","","","",""
"650.0050000031479","Stimuli/Hangul_M17.bmp","188","image-keyboard-response","481","835602","0.0-19.0-2.17","c2_test",",","","","",","
"863.115000014659","<p style=""color:white;""> Next Figure: Male or Female? </p>","188","html-keyboard-response","482","836465","0.0-19.0-0.18","prediction","","","",",",""
"null","<div style=""color:white; font-size:60px;"">+</div>","null","html-keyboard-response","483","837471","0.0-19.0-1.18","fixation","","","","",""
"683.2550000108313","Stimuli/Hangul_F15.bmp","188","image-keyboard-response","484","838155","0.0-19.0-2.18","c2_test",".","","","",","
"1205.6699999957345","<p style=""color:white;""> Next Figure: Male or Female? </p>","188","html-keyboard-response","485","839362","0.0-19.0-0.19","prediction","","","",",",""
"null","<div style=""color:white; font-size:60px;"">+</div>","null","html-keyboard-response","486","840366","0.0-19.0-1.19","fixation","","","","",""
"775.0149999919813","Stimuli/Hangul_M21.bmp","188","image-keyboard-response","487","841142","0.0-19.0-2.19","c2_test",",","","","",","
"848.1599999940954","<p style=""color:white;""> Next Figure: Male or Female? </p>","188","html-keyboard-response","488","841991","0.0-19.0-0.20","prediction","","","",",",""
"null","<div style=""color:white; font-size:60px;"">+</div>","null","html-keyboard-response","489","842995","0.0-19.0-1.20","fixation","","","","",""
"746.4150000014342","Stimuli/Hangul_F7.bmp","188","image-keyboard-response","490","843743","0.0-19.0-2.20","c2_test",".","","","",","
"754.5749999990221","<p style=""color:white;""> Next Figure: Male or Female? </p>","190","html-keyboard-response","491","844499","0.0-19.0-0.21","prediction","","","",".",""
"null","<div style=""color:white; font-size:60px;"">+</div>","null","html-keyboard-response","492","845502","0.0-19.0-1.21","fixation","","","","",""
"1004.5350000145845","Stimuli/Hangul_M9.bmp","188","image-keyboard-response","493","846508","0.0-19.0-2.21","c2_test",",","","","",","
"964.3550000037067","<p style=""color:white;""> Next Figure: Male or Female? </p>","188","html-keyboard-response","494","847473","0.0-19.0-0.22","prediction","","","",",",""
"null","<div style=""color:white; font-size:60px;"">+</div>","null","html-keyboard-response","495","848476","0.0-19.0-1.22","fixation","","","","",""
"732.0950000139419","Stimuli/Hangul_M18.bmp","188","image-keyboard-response","496","849209","0.0-19.0-2.22","c2_test",",","","","",","
"783.4150000126101","<p style=""color:white;""> Next Figure: Male or Female? </p>","188","html-keyboard-response","497","849993","0.0-19.0-0.23","prediction","","","",",",""
"null","<div style=""color:white; font-size:60px;"">+</div>","null","html-keyboard-response","498","850994","0.0-19.0-1.23","fixation","","","","",""
"635.4350000037812","Stimuli/Hangul_F8.bmp","190","image-keyboard-response","499","851632","0.0-19.0-2.23","c2_test",".","","","","."
"1431.5000000060536","<p style=""color:white;""> Next Figure: Male or Female? </p>","190","html-keyboard-response","500","853064","0.0-19.0-0.24","prediction","","","",".",""
"null","<div style=""color:white; font-size:60px;"">+</div>","null","html-keyboard-response","501","854065","0.0-19.0-1.24","fixation","","","","",""
"821.7000000004191","Stimuli/Hangul_M23.bmp","190","image-keyboard-response","502","854889","0.0-19.0-2.24","c2_test",",","","","","."
"1045.1199999952223","<p style=""color:white;""> Next Figure: Male or Female? </p>","188","html-keyboard-response","503","855936","0.0-19.0-0.25","prediction","","","",",",""
"null","<div style=""color:white; font-size:60px;"">+</div>","null","html-keyboard-response","504","856938","0.0-19.0-1.25","fixation","","","","",""
"660.3900000045542","Stimuli/Hangul_M10.bmp","188","image-keyboard-response","505","857601","0.0-19.0-2.25","c2_test",",","","","",","
"772.3199999891222","<p style=""color:white;""> Next Figure: Male or Female? </p>","190","html-keyboard-response","506","858374","0.0-19.0-0.26","prediction","","","",".",""
"null","<div style=""color:white; font-size:60px;"">+</div>","null","html-keyboard-response","507","859378","0.0-19.0-1.26","fixation","","","","",""
"957.9149999772198","Stimuli/Hangul_M4.bmp","190","image-keyboard-response","508","860337","0.0-19.0-2.26","c2_test",",","","","","."
"601.3700000185054","<p style=""color:white;""> Next Figure: Male or Female? </p>","188","html-keyboard-response","509","860939","0.0-19.0-0.27","prediction","","","",",",""
"null","<div style=""color:white; font-size:60px;"">+</div>","null","html-keyboard-response","510","861943","0.0-19.0-1.27","fixation","","","","",""
"775.4899999999907","Stimuli/Hangul_M13.bmp","188","image-keyboard-response","511","862719","0.0-19.0-2.27","c2_test",",","","","",","
"708.1499999912921","<p style=""color:white;""> Next Figure: Male or Female? </p>","188","html-keyboard-response","512","863428","0.0-19.0-0.28","prediction","","","",",",""
"null","<div style=""color:white; font-size:60px;"">+</div>","null","html-keyboard-response","513","864431","0.0-19.0-1.28","fixation","","","","",""
"837.9549999954179","Stimuli/Hangul_F20.bmp","188","image-keyboard-response","514","865270","0.0-19.0-2.28","c2_test",".","","","",","
"674.9950000084937","<p style=""color:white;""> Next Figure: Male or Female? </p>","190","html-keyboard-response","515","865946","0.0-19.0-0.29","prediction","","","",".",""
"null","<div style=""color:white; font-size:60px;"">+</div>","null","html-keyboard-response","516","866950","0.0-19.0-1.29","fixation","","","","",""
"775.8349999785423","Stimuli/Hangul_M14.bmp","188","image-keyboard-response","517","867728","0.0-19.0-2.29","c2_test",",","","","",","
"715.4850000224542","<p style=""color:white;""> Next Figure: Male or Female? </p>","188","html-keyboard-response","518","868444","0.0-19.0-0.30","prediction","","","",",",""
"null","<div style=""color:white; font-size:60px;"">+</div>","null","html-keyboard-response","519","869447","0.0-19.0-1.30","fixation","","","","",""
"777.3400000005495","Stimuli/Hangul_F21.bmp","190","image-keyboard-response","520","870225","0.0-19.0-2.30","c2_test",".","","","","."
"514.694999990752","<p style=""color:white;""> Next Figure: Male or Female? </p>","188","html-keyboard-response","521","870741","0.0-19.0-0.31","prediction","","","",",",""
"null","<div style=""color:white; font-size:60px;"">+</div>","null","html-keyboard-response","522","871743","0.0-19.0-1.31","fixation","","","","",""
"1162.6199999882374","Stimuli/Hangul_F19.bmp","190","image-keyboard-response","523","872907","0.0-19.0-2.31","c2_test",".","","","","."
"579.3999999877997","<p style=""color:white;""> Next Figure: Male or Female? </p>","188","html-keyboard-response","524","873487","0.0-19.0-0.32","prediction","","","",",",""
"null","<div style=""color:white; font-size:60px;"">+</div>","null","html-keyboard-response","525","874490","0.0-19.0-1.32","fixation","","","","",""
"629.994999995688","Stimuli/Hangul_F23.bmp","190","image-keyboard-response","526","875121","0.0-19.0-2.32","c2_test",".","","","","."
"930.8450000244193","<p style=""color:white;""> Next Figure: Male or Female? </p>","190","html-keyboard-response","527","876053","0.0-19.0-0.33","prediction","","","",".",""
"null","<div style=""color:white; font-size:60px;"">+</div>","null","html-keyboard-response","528","877055","0.0-19.0-1.33","fixation","","","","",""
"876.4999999839347","Stimuli/Hangul_F24.bmp","188","image-keyboard-response","529","877934","0.0-19.0-2.33","c2_test",".","","","",","
"767.6999999966938","<p style=""color:white;""> Next Figure: Male or Female? </p>","188","html-keyboard-response","530","878704","0.0-19.0-0.34","prediction","","","",",",""
"null","<div style=""color:white; font-size:60px;"">+</div>","null","html-keyboard-response","531","879707","0.0-19.0-1.34","fixation","","","","",""
"710.8850000076927","Stimuli/Hangul_F4.bmp","190","image-keyboard-response","532","880419","0.0-19.0-2.34","c2_test",".","","","","."
"655.5400000070222","<p style=""color:white;""> Next Figure: Male or Female? </p>","190","html-keyboard-response","533","881075","0.0-19.0-0.35","prediction","","","",".",""
"null","<div style=""color:white; font-size:60px;"">+</div>","null","html-keyboard-response","534","882076","0.0-19.0-1.35","fixation","","","","",""
"941.4300000062212","Stimuli/Hangul_F3.bmp","188","image-keyboard-response","535","883018","0.0-19.0-2.35","c2_test",".","","","",","
"799.2699999886099","<p style=""color:white;""> Next Figure: Male or Female? </p>","188","html-keyboard-response","536","883818","0.0-19.0-0.36","prediction","","","",",",""
"null","<div style=""color:white; font-size:60px;"">+</div>","null","html-keyboard-response","537","884819","0.0-19.0-1.36","fixation","","","","",""
"1076.8299999763258","Stimuli/Hangul_M11.bmp","188","image-keyboard-response","538","885897","0.0-19.0-2.36","c2_test",",","","","",","
"1105.58500001207","<p style=""color:white;""> Next Figure: Male or Female? </p>","190","html-keyboard-response","539","887003","0.0-19.0-0.37","prediction","","","",".",""
"null","<div style=""color:white; font-size:60px;"">+</div>","null","html-keyboard-response","540","888007","0.0-19.0-1.37","fixation","","","","",""
"626.7999999981839","Stimuli/Hangul_F14.bmp","190","image-keyboard-response","541","888635","0.0-19.0-2.37","c2_test",".","","","","."
"542.6349999906961","<p style=""color:white;""> Next Figure: Male or Female? </p>","188","html-keyboard-response","542","889178","0.0-19.0-0.38","prediction","","","",",",""
"null","<div style=""color:white; font-size:60px;"">+</div>","null","html-keyboard-response","543","890179","0.0-19.0-1.38","fixation","","","","",""
"775.06500002346","Stimuli/Hangul_M8.bmp","188","image-keyboard-response","544","890955","0.0-19.0-2.38","c2_test",",","","","",","
"585.1249999832362","<p style=""color:white;""> Next Figure: Male or Female? </p>","190","html-keyboard-response","545","891541","0.0-19.0-0.39","prediction","","","",".",""
"null","<div style=""color:white; font-size:60px;"">+</div>","null","html-keyboard-response","546","892543","0.0-19.0-1.39","fixation","","","","",""
"910.4999999981374","Stimuli/Hangul_F17.bmp","190","image-keyboard-response","547","893454","0.0-19.0-2.39","c2_test",".","","","","."
"687.7099999983329","<p style=""color:white;""> Next Figure: Male or Female? </p>","188","html-keyboard-response","548","894143","0.0-19.0-0.40","prediction","","","",",",""
"null","<div style=""color:white; font-size:60px;"">+</div>","null","html-keyboard-response","549","895147","0.0-19.0-1.40","fixation","","","","",""
"877.3250000085682","Stimuli/Hangul_M15.bmp","188","image-keyboard-response","550","896026","0.0-19.0-2.40","c2_test",",","","","",","
"653.6250000062864","<p style=""color:white;""> Next Figure: Male or Female? </p>","190","html-keyboard-response","551","896681","0.0-19.0-0.41","prediction","","","",".",""
"null","<div style=""color:white; font-size:60px;"">+</div>","null","html-keyboard-response","552","897683","0.0-19.0-1.41","fixation","","","","",""
"927.464999986114","Stimuli/Hangul_F0.bmp","188","image-keyboard-response","553","898611","0.0-19.0-2.41","c2_test",".","","","",","
"620.4349999898113","<p style=""color:white;""> Next Figure: Male or Female? </p>","188","html-keyboard-response","554","899233","0.0-19.0-0.42","prediction","","","",",",""
"null","<div style=""color:white; font-size:60px;"">+</div>","null","html-keyboard-response","555","900234","0.0-19.0-1.42","fixation","","","","",""
"698.3950000139885","Stimuli/Hangul_F22.bmp","188","image-keyboard-response","556","900933","0.0-19.0-2.42","c2_test",".","","","",","
"701.2850000173785","<p style=""color:white;""> Next Figure: Male or Female? </p>","188","html-keyboard-response","557","901635","0.0-19.0-0.43","prediction","","","",",",""
"null","<div style=""color:white; font-size:60px;"">+</div>","null","html-keyboard-response","558","902637","0.0-19.0-1.43","fixation","","","","",""
"734.8150000034366","Stimuli/Hangul_F12.bmp","188","image-keyboard-response","559","903372","0.0-19.0-2.43","c2_test",".","","","",","
"579.8899999936111","<p style=""color:white;""> Next Figure: Male or Female? </p>","190","html-keyboard-response","560","903953","0.0-19.0-0.44","prediction","","","",".",""
"null","<div style=""color:white; font-size:60px;"">+</div>","null","html-keyboard-response","561","904960","0.0-19.0-1.44","fixation","","","","",""
"882.2349999973085","Stimuli/Hangul_M2.bmp","188","image-keyboard-response","562","905843","0.0-19.0-2.44","c2_test",",","","","",","
"823.6049999832176","<p style=""color:white;""> Next Figure: Male or Female? </p>","188","html-keyboard-response","563","906668","0.0-19.0-0.45","prediction","","","",",",""
"null","<div style=""color:white; font-size:60px;"">+</div>","null","html-keyboard-response","564","907670","0.0-19.0-1.45","fixation","","","","",""
"677.2800000035204","Stimuli/Hangul_F16.bmp","188","image-keyboard-response","565","908348","0.0-19.0-2.45","c2_test",".","","","",","
"573.4349999984261","<p style=""color:white;""> Next Figure: Male or Female? </p>","190","html-keyboard-response","566","908922","0.0-19.0-0.46","prediction","","","",".",""
"null","<div style=""color:white; font-size:60px;"">+</div>","null","html-keyboard-response","567","909923","0.0-19.0-1.46","fixation","","","","",""
"749.3700000050012","Stimuli/Hangul_F5.bmp","188","image-keyboard-response","568","910673","0.0-19.0-2.46","c2_test",".","","","",","
"566.5699999954086","<p style=""color:white;""> Next Figure: Male or Female? </p>","188","html-keyboard-response","569","911241","0.0-19.0-0.47","prediction","","","",",",""
"null","<div style=""color:white; font-size:60px;"">+</div>","null","html-keyboard-response","570","912244","0.0-19.0-1.47","fixation","","","","",""
"856.9900000002235","Stimuli/Hangul_M19.bmp","188","image-keyboard-response","571","913102","0.0-19.0-2.47","c2_test",",","","","",","
"603.4649999928661","<p style=""color:white;""> Next Figure: Male or Female? </p>","190","html-keyboard-response","572","913706","0.0-19.0-0.48","prediction","","","",".",""
"null","<div style=""color:white; font-size:60px;"">+</div>","null","html-keyboard-response","573","914707","0.0-19.0-1.48","fixation","","","","",""
"696.380000008503","Stimuli/Hangul_M12.bmp","188","image-keyboard-response","574","915405","0.0-19.0-2.48","c2_test",",","","","",","
"565.0899999891408","<p style=""color:white;""> Next Figure: Male or Female? </p>","188","html-keyboard-response","575","915971","0.0-19.0-0.49","prediction","","","",",",""
"null","<div style=""color:white; font-size:60px;"">+</div>","null","html-keyboard-response","576","916976","0.0-19.0-1.49","fixation","","","","",""
"1018.4200000076089","Stimuli/Hangul_M3.bmp","190","image-keyboard-response","577","917995","0.0-19.0-2.49","c2_test",",","","","","."
"4052.9650000098627","<p style=""color:white;"">Good job, block 1 complete! Please take a moment to rest.</p> <p style=""color:white;"">When you are ready to continue with block 2 of 4, press the space bar.</p> ","32","html-keyboard-response","578","922049","0.0-20.0","","","","","",""
"1171.135000011418","<p style=""color:white;""> Next Figure: Male or Female? </p>","188","html-keyboard-response","579","925225","0.0-21.0-0.0","prediction","","","",",",""
"null","<div style=""color:white; font-size:60px;"">+</div>","null","html-keyboard-response","580","926227","0.0-21.0-1.0","fixation","","","","",""
"719.6799999801442","Stimuli/Hangul_F32.bmp","190","image-keyboard-response","581","926948","0.0-21.0-2.0","c2_test",".","","","","."
"1621.1099999782164","<p style=""color:white;""> Next Figure: Male or Female? </p>","190","html-keyboard-response","582","928570","0.0-21.0-0.1","prediction","","","",".",""
"null","<div style=""color:white; font-size:60px;"">+</div>","null","html-keyboard-response","583","929572","0.0-21.0-1.1","fixation","","","","",""
"616.2949999852572","Stimuli/Hangul_F29.bmp","190","image-keyboard-response","584","930189","0.0-21.0-2.1","c2_test",".","","","","."
"1566.9099999940954","<p style=""color:white;""> Next Figure: Male or Female? </p>","188","html-keyboard-response","585","931757","0.0-21.0-0.2","prediction","","","",",",""
"null","<div style=""color:white; font-size:60px;"">+</div>","null","html-keyboard-response","586","932759","0.0-21.0-1.2","fixation","","","","",""
"808.4800000069663","Stimuli/Hangul_M34.bmp","188","image-keyboard-response","587","933569","0.0-21.0-2.2","c2_test",",","","","",","
"828.0500000109896","<p style=""color:white;""> Next Figure: Male or Female? </p>","190","html-keyboard-response","588","934398","0.0-21.0-0.3","prediction","","","",".",""
"null","<div style=""color:white; font-size:60px;"">+</div>","null","html-keyboard-response","589","935399","0.0-21.0-1.3","fixation","","","","",""
"781.6149999853224","Stimuli/Hangul_M26.bmp","188","image-keyboard-response","590","936182","0.0-21.0-2.3","c2_test",",","","","",","
"709.4600000127684","<p style=""color:white;""> Next Figure: Male or Female? </p>","188","html-keyboard-response","591","936892","0.0-21.0-0.4","prediction","","","",",",""
"null","<div style=""color:white; font-size:60px;"">+</div>","null","html-keyboard-response","592","937896","0.0-21.0-1.4","fixation","","","","",""
"648.5549999924842","Stimuli/Hangul_M36.bmp","188","image-keyboard-response","593","938545","0.0-21.0-2.4","c2_test",",","","","",","
"384.79999999981374","<p style=""color:white;""> Next Figure: Male or Female? </p>","188","html-keyboard-response","594","938931","0.0-21.0-0.5","prediction","","","",",",""
"null","<div style=""color:white; font-size:60px;"">+</div>","null","html-keyboard-response","595","939936","0.0-21.0-1.5","fixation","","","","",""
"546.650000003865","Stimuli/Hangul_F44.bmp","190","image-keyboard-response","596","940484","0.0-21.0-2.5","c2_test",".","","","","."
"1068.585000000894","<p style=""color:white;""> Next Figure: Male or Female? </p>","190","html-keyboard-response","597","941553","0.0-21.0-0.6","prediction","","","",".",""
"null","<div style=""color:white; font-size:60px;"">+</div>","null","html-keyboard-response","598","942556","0.0-21.0-1.6","fixation","","","","",""
"816.1750000144821","Stimuli/Hangul_M40.bmp","188","image-keyboard-response","599","943374","0.0-21.0-2.6","c2_test",",","","","",","
"857.3850000102539","<p style=""color:white;""> Next Figure: Male or Female? </p>","190","html-keyboard-response","600","944232","0.0-21.0-0.7","prediction","","","",".",""
"null","<div style=""color:white; font-size:60px;"">+</div>","null","html-keyboard-response","601","945236","0.0-21.0-1.7","fixation","","","","",""
"1318.6449999921024","Stimuli/Hangul_M48.bmp","188","image-keyboard-response","602","946555","0.0-21.0-2.7","c2_test",",","","","",","
"2184.880000015255","<p style=""color:white;""> Next Figure: Male or Female? </p>","188","html-keyboard-response","603","948741","0.0-21.0-0.8","prediction","","","",",",""
"null","<div style=""color:white; font-size:60px;"">+</div>","null","html-keyboard-response","604","949744","0.0-21.0-1.8","fixation","","","","",""
"685.9000000113156","Stimuli/Hangul_M35.bmp","188","image-keyboard-response","605","950431","0.0-21.0-2.8","c2_test",",","","","",","
"553.4199999819975","<p style=""color:white;""> Next Figure: Male or Female? </p>","190","html-keyboard-response","606","950986","0.0-21.0-0.9","prediction","","","",".",""
"null","<div style=""color:white; font-size:60px;"">+</div>","null","html-keyboard-response","607","951987","0.0-21.0-1.9","fixation","","","","",""
"917.4600000260398","Stimuli/Hangul_F47.bmp","188","image-keyboard-response","608","952906","0.0-21.0-2.9","c2_test",".","","","",","
"509.9449999979697","<p style=""color:white;""> Next Figure: Male or Female? </p>","188","html-keyboard-response","609","953417","0.0-21.0-0.10","prediction","","","",",",""
"null","<div style=""color:white; font-size:60px;"">+</div>","null","html-keyboard-response","610","954420","0.0-21.0-1.10","fixation","","","","",""
"629.6950000105426","Stimuli/Hangul_M33.bmp","188","image-keyboard-response","611","955051","0.0-21.0-2.10","c2_test",",","","","",","
"432.9149999830406","<p style=""color:white;""> Next Figure: Male or Female? </p>","188","html-keyboard-response","612","955485","0.0-21.0-0.11","prediction","","","",",",""
"null","<div style=""color:white; font-size:60px;"">+</div>","null","html-keyboard-response","613","956486","0.0-21.0-1.11","fixation","","","","",""
"907.7650000108406","Stimuli/Hangul_M41.bmp","188","image-keyboard-response","614","957395","0.0-21.0-2.11","c2_test",",","","","",","
"736.639999988256","<p style=""color:white;""> Next Figure: Male or Female? </p>","190","html-keyboard-response","615","958133","0.0-21.0-0.12","prediction","","","",".",""
"null","<div style=""color:white; font-size:60px;"">+</div>","null","html-keyboard-response","616","959136","0.0-21.0-1.12","fixation","","","","",""
"1213.774999981979","Stimuli/Hangul_M39.bmp","188","image-keyboard-response","617","960351","0.0-21.0-2.12","c2_test",",","","","",","
"564.8999999975786","<p style=""color:white;""> Next Figure: Male or Female? </p>","188","html-keyboard-response","618","960916","0.0-21.0-0.13","prediction","","","",",",""
"null","<div style=""color:white; font-size:60px;"">+</div>","null","html-keyboard-response","619","961920","0.0-21.0-1.13","fixation","","","","",""
"658.4799999836832","Stimuli/Hangul_F28.bmp","188","image-keyboard-response","620","962579","0.0-21.0-2.13","c2_test",".","","","",","
"516.8600000033621","<p style=""color:white;""> Next Figure: Male or Female? </p>","188","html-keyboard-response","621","963097","0.0-21.0-0.14","prediction","","","",",",""
"null","<div style=""color:white; font-size:60px;"">+</div>","null","html-keyboard-response","622","964100","0.0-21.0-1.14","fixation","","","","",""
"718.8850000093225","Stimuli/Hangul_M38.bmp","188","image-keyboard-response","623","964822","0.0-21.0-2.14","c2_test",",","","","",","
"598.4100000059698","<p style=""color:white;""> Next Figure: Male or Female? </p>","190","html-keyboard-response","624","965421","0.0-21.0-0.15","prediction","","","",".",""
"null","<div style=""color:white; font-size:60px;"">+</div>","null","html-keyboard-response","625","966423","0.0-21.0-1.15","fixation","","","","",""
"790.8999999926891","Stimuli/Hangul_M27.bmp","188","image-keyboard-response","626","967215","0.0-21.0-2.15","c2_test",",","","","",","
"643.3499999984633","<p style=""color:white;""> Next Figure: Male or Female? </p>","190","html-keyboard-response","627","967860","0.0-21.0-0.16","prediction","","","",".",""
"null","<div style=""color:white; font-size:60px;"">+</div>","null","html-keyboard-response","628","968864","0.0-21.0-1.16","fixation","","","","",""
"564.7450000105891","Stimuli/Hangul_F34.bmp","190","image-keyboard-response","629","969429","0.0-21.0-2.16","c2_test",".","","","","."
"584.4600000127684","<p style=""color:white;""> Next Figure: Male or Female? </p>","188","html-keyboard-response","630","970014","0.0-21.0-0.17","prediction","","","",",",""
"null","<div style=""color:white; font-size:60px;"">+</div>","null","html-keyboard-response","631","971016","0.0-21.0-1.17","fixation","","","","",""
"632.595000002766","Stimuli/Hangul_F39.bmp","190","image-keyboard-response","632","971650","0.0-21.0-2.17","c2_test",".","","","","."
"639.1299999959301","<p style=""color:white;""> Next Figure: Male or Female? </p>","190","html-keyboard-response","633","972290","0.0-21.0-0.18","prediction","","","",".",""
"null","<div style=""color:white; font-size:60px;"">+</div>","null","html-keyboard-response","634","973292","0.0-21.0-1.18","fixation","","","","",""
"637.3900000180583","Stimuli/Hangul_F42.bmp","190","image-keyboard-response","635","973930","0.0-21.0-2.18","c2_test",".","","","","."
"1292.9200000071432","<p style=""color:white;""> Next Figure: Male or Female? </p>","190","html-keyboard-response","636","975224","0.0-21.0-0.19","prediction","","","",".",""
"null","<div style=""color:white; font-size:60px;"">+</div>","null","html-keyboard-response","637","976228","0.0-21.0-1.19","fixation","","","","",""
"710.9150000032969","Stimuli/Hangul_M44.bmp","188","image-keyboard-response","638","976940","0.0-21.0-2.19","c2_test",",","","","",","
"651.8700000015087","<p style=""color:white;""> Next Figure: Male or Female? </p>","188","html-keyboard-response","639","977593","0.0-21.0-0.20","prediction","","","",",",""
"null","<div style=""color:white; font-size:60px;"">+</div>","null","html-keyboard-response","640","978596","0.0-21.0-1.20","fixation","","","","",""
"694.4199999852572","Stimuli/Hangul_M32.bmp","188","image-keyboard-response","641","979292","0.0-21.0-2.20","c2_test",",","","","",","
"791.1950000270735","<p style=""color:white;""> Next Figure: Male or Female? </p>","190","html-keyboard-response","642","980084","0.0-21.0-0.21","prediction","","","",".",""
"null","<div style=""color:white; font-size:60px;"">+</div>","null","html-keyboard-response","643","981085","0.0-21.0-1.21","fixation","","","","",""
"741.6250000242144","Stimuli/Hangul_F38.bmp","188","image-keyboard-response","644","981828","0.0-21.0-2.21","c2_test",".","","","",","
"544.1350000037346","<p style=""color:white;""> Next Figure: Male or Female? </p>","190","html-keyboard-response","645","982373","0.0-21.0-0.22","prediction","","","",".",""
"null","<div style=""color:white; font-size:60px;"">+</div>","null","html-keyboard-response","646","983377","0.0-21.0-1.22","fixation","","","","",""
"667.6300000108313","Stimuli/Hangul_F37.bmp","190","image-keyboard-response","647","984046","0.0-21.0-2.22","c2_test",".","","","","."
"640.5049999884795","<p style=""color:white;""> Next Figure: Male or Female? </p>","188","html-keyboard-response","648","984687","0.0-21.0-0.23","prediction","","","",",",""
"null","<div style=""color:white; font-size:60px;"">+</div>","null","html-keyboard-response","649","985690","0.0-21.0-1.23","fixation","","","","",""
"647.6350000011735","Stimuli/Hangul_M45.bmp","188","image-keyboard-response","650","986339","0.0-21.0-2.23","c2_test",",","","","",","
"567.6450000028126","<p style=""color:white;""> Next Figure: Male or Female? </p>","190","html-keyboard-response","651","986907","0.0-21.0-0.24","prediction","","","",".",""
"null","<div style=""color:white; font-size:60px;"">+</div>","null","html-keyboard-response","652","987912","0.0-21.0-1.24","fixation","","","","",""
"736.4850000012666","Stimuli/Hangul_F46.bmp","188","image-keyboard-response","653","988649","0.0-21.0-2.24","c2_test",".","","","",","
"527.9450000089128","<p style=""color:white;""> Next Figure: Male or Female? </p>","190","html-keyboard-response","654","989178","0.0-21.0-0.25","prediction","","","",".",""
"null","<div style=""color:white; font-size:60px;"">+</div>","null","html-keyboard-response","655","990179","0.0-21.0-1.25","fixation","","","","",""
"591.6150000120979","Stimuli/Hangul_F41.bmp","190","image-keyboard-response","656","990773","0.0-21.0-2.25","c2_test",".","","","","."
"736.4900000102352","<p style=""color:white;""> Next Figure: Male or Female? </p>","188","html-keyboard-response","657","991510","0.0-21.0-0.26","prediction","","","",",",""
