"rt","stimulus","key_press","trial_type","trial_index","time_elapsed","internal_node_id","test_part","correct_response","C1_train","C1","A","C2"
"2353.179999990971","<p style=""color:white;"">Welcome to the experiment! Press any key to begin.</p>","32","html-keyboard-response","0","2372","0.0-0.0","","","","","",""
"4526.525000008405","<p style=""color:white;"">You will see a series of abstract figures. They are adaptations of signs in the Korean alphabet, but that is not important for this study. </p><p style=""color:white;"">Abstract figures sometimes have a more masculine or feminine shape. Here, each figure has already been assigned a gender as <q>Male</q> or <q>Female</q> by a panel of respondents in a pilot study. The respondents were not given specific instructions on how to do this, but were only told to use their intuition and to take into account the entire configuration of the stimulus. </p><p style=""color:white;"">Your task now is to guess the assigned gender of each figure. Please press the corresponding response keys to indicate your choice: </p><p style=""color:white;""> Male &#8594 <q>,</q> (comma)</p><p style=""color:white;""> Female &#8594 <q>.</q> (period)</p><p style=""color:white;"">Press either response keys to continue.</p>","188","html-keyboard-response","1","6901","0.0-1.0","","","","","",""
"5128.710000004503","<p style=""color:white;"">Your choice is correct if it matches the gender assigned by the majority of respondents in the pilot study.</p> <p style=""color:white;"">For each correct choice you will receive 2 cents. There will be 200 trials divided into 4 blocks of 50 trials. You will be able to take a break after every 50 trials.</p> <p style=""color:white;"">Press the space bar to continue.</p>","32","html-keyboard-response","2","12031","0.0-2.0","","","","","",""
"1136.915000010049","<p style=""color:white;"">Here are some examples.</p> <p style=""color:white;"">For each, guess whether the assigned figure is male-like or female-like and indicate your choice by pressing either response keys.</p> <p style=""color:white;"">Press the space bar to continue.</p>","32","html-keyboard-response","3","13169","0.0-3.0","","","","","",""
"null","<div style=""color:white; font-size:60px;"">+</div>","null","html-keyboard-response","4","16175","0.0-4.0-0.0","fixation","","","","",""
"1917.3600000067381","Stimuli/Hangul_E1.bmp","188","image-keyboard-response","5","18095","0.0-4.0-1.0","c1_train",",",",","","",""
"null","<div style=""color:white; font-size:60px;"">+</div>","null","html-keyboard-response","6","19100","0.0-4.0-0.1","fixation","","","","",""
"1277.8499999985797","Stimuli/Hangul_E2.bmp","190","image-keyboard-response","7","20379","0.0-4.0-1.1","c1_train",".",".","","",""
"null","<div style=""color:white; font-size:60px;"">+</div>","null","html-keyboard-response","8","21382","0.0-4.0-0.2","fixation","","","","",""
"1661.724999998114","Stimuli/Hangul_E0.bmp","188","image-keyboard-response","9","23045","0.0-4.0-1.2","c1_train",",",",","","",""
"1790.080000006128","<p style=""color:white;"">Let us begin! Press the space bar when you are ready to start block 1 of 4.</p> ","32","html-keyboard-response","10","24837","0.0-5.0","","","","","",""
"null","<div style=""color:white; font-size:60px;"">+</div>","null","html-keyboard-response","11","27842","0.0-6.0-0.0","fixation","","","","",""
"1455.790000007255","Stimuli/Hangul_M11.bmp","188","image-keyboard-response","12","29299","0.0-6.0-1.0","test",",","",",","",""
"null","<div style=""color:white; font-size:60px;"">+</div>","null","html-keyboard-response","13","30304","0.0-6.0-0.1","fixation","","","","",""
"1952.1550000063144","Stimuli/Hangul_M23.bmp","190","image-keyboard-response","14","32258","0.0-6.0-1.1","test",",","",".","",""
"null","<div style=""color:white; font-size:60px;"">+</div>","null","html-keyboard-response","15","33261","0.0-6.0-0.2","fixation","","","","",""
"2407.695000001695","Stimuli/Hangul_F20.bmp","190","image-keyboard-response","16","35670","0.0-6.0-1.2","test",".","",".","",""
"null","<div style=""color:white; font-size:60px;"">+</div>","null","html-keyboard-response","17","36674","0.0-6.0-0.3","fixation","","","","",""
"2332.3200000013458","Stimuli/Hangul_M24.bmp","188","image-keyboard-response","18","39009","0.0-6.0-1.3","test",",","",",","",""
"null","<div style=""color:white; font-size:60px;"">+</div>","null","html-keyboard-response","19","40011","0.0-6.0-0.4","fixation","","","","",""
"1561.0350000060862","Stimuli/Hangul_F11.bmp","188","image-keyboard-response","20","41574","0.0-6.0-1.4","test",".","",",","",""
"null","<div style=""color:white; font-size:60px;"">+</div>","null","html-keyboard-response","21","42576","0.0-6.0-0.5","fixation","","","","",""
"2090.8849999977974","Stimuli/Hangul_M17.bmp","188","image-keyboard-response","22","44668","0.0-6.0-1.5","test",",","",",","",""
"null","<div style=""color:white; font-size:60px;"">+</div>","null","html-keyboard-response","23","45672","0.0-6.0-0.6","fixation","","","","",""
"2292.65000000305","Stimuli/Hangul_M10.bmp","188","image-keyboard-response","24","47967","0.0-6.0-1.6","test",",","",",","",""
"null","<div style=""color:white; font-size:60px;"">+</div>","null","html-keyboard-response","25","48970","0.0-6.0-0.7","fixation","","","","",""
"1962.1699999988778","Stimuli/Hangul_M19.bmp","190","image-keyboard-response","26","50934","0.0-6.0-1.7","test",",","",".","",""
"null","<div style=""color:white; font-size:60px;"">+</div>","null","html-keyboard-response","27","51937","0.0-6.0-0.8","fixation","","","","",""
"1526.6499999997905","Stimuli/Hangul_F18.bmp","190","image-keyboard-response","28","53466","0.0-6.0-1.8","test",".","",".","",""
"null","<div style=""color:white; font-size:60px;"">+</div>","null","html-keyboard-response","29","54468","0.0-6.0-0.9","fixation","","","","",""
"2022.2650000068825","Stimuli/Hangul_M1.bmp","188","image-keyboard-response","30","56491","0.0-6.0-1.9","test",",","",",","",""
"null","<div style=""color:white; font-size:60px;"">+</div>","null","html-keyboard-response","31","57495","0.0-6.0-0.10","fixation","","","","",""
"2935.574999995879","Stimuli/Hangul_M6.bmp","190","image-keyboard-response","32","60431","0.0-6.0-1.10","test",",","",".","",""
"null","<div style=""color:white; font-size:60px;"">+</div>","null","html-keyboard-response","33","61433","0.0-6.0-0.11","fixation","","","","",""
"1582.3149999923771","Stimuli/Hangul_F8.bmp","190","image-keyboard-response","34","63017","0.0-6.0-1.11","test",".","",".","",""
"null","<div style=""color:white; font-size:60px;"">+</div>","null","html-keyboard-response","35","64020","0.0-6.0-0.12","fixation","","","","",""
"1808.5799999971641","Stimuli/Hangul_F0.bmp","188","image-keyboard-response","36","65830","0.0-6.0-1.12","test",".","",",","",""
"null","<div style=""color:white; font-size:60px;"">+</div>","null","html-keyboard-response","37","66833","0.0-6.0-0.13","fixation","","","","",""
"1536.355000003823","Stimuli/Hangul_M7.bmp","188","image-keyboard-response","38","68371","0.0-6.0-1.13","test",",","",",","",""
"null","<div style=""color:white; font-size:60px;"">+</div>","null","html-keyboard-response","39","69375","0.0-6.0-0.14","fixation","","","","",""
"2067.385000002105","Stimuli/Hangul_F19.bmp","188","image-keyboard-response","40","71443","0.0-6.0-1.14","test",".","",",","",""
"null","<div style=""color:white; font-size:60px;"">+</div>","null","html-keyboard-response","41","72447","0.0-6.0-0.15","fixation","","","","",""
"1582.8599999949802","Stimuli/Hangul_M14.bmp","188","image-keyboard-response","42","74031","0.0-6.0-1.15","test",",","",",","",""
"null","<div style=""color:white; font-size:60px;"">+</div>","null","html-keyboard-response","43","75034","0.0-6.0-0.16","fixation","","","","",""
"1504.109999994398","Stimuli/Hangul_F14.bmp","190","image-keyboard-response","44","76539","0.0-6.0-1.16","test",".","",".","",""
"null","<div style=""color:white; font-size:60px;"">+</div>","null","html-keyboard-response","45","77541","0.0-6.0-0.17","fixation","","","","",""
"1539.0450000122655","Stimuli/Hangul_F10.bmp","190","image-keyboard-response","46","79081","0.0-6.0-1.17","test",".","",".","",""
"null","<div style=""color:white; font-size:60px;"">+</div>","null","html-keyboard-response","47","80088","0.0-6.0-0.18","fixation","","","","",""
"1558.8150000112364","Stimuli/Hangul_M12.bmp","188","image-keyboard-response","48","81649","0.0-6.0-1.18","test",",","",",","",""
"null","<div style=""color:white; font-size:60px;"">+</div>","null","html-keyboard-response","49","82650","0.0-6.0-0.19","fixation","","","","",""
"1943.4550000005402","Stimuli/Hangul_M20.bmp","188","image-keyboard-response","50","84595","0.0-6.0-1.19","test",",","",",","",""
"null","<div style=""color:white; font-size:60px;"">+</div>","null","html-keyboard-response","51","85599","0.0-6.0-0.20","fixation","","","","",""
"1884.2900000017835","Stimuli/Hangul_M5.bmp","190","image-keyboard-response","52","87484","0.0-6.0-1.20","test",",","",".","",""
"null","<div style=""color:white; font-size:60px;"">+</div>","null","html-keyboard-response","53","88489","0.0-6.0-0.21","fixation","","","","",""
"1660.490000009304","Stimuli/Hangul_F4.bmp","190","image-keyboard-response","54","90152","0.0-6.0-1.21","test",".","",".","",""
"null","<div style=""color:white; font-size:60px;"">+</div>","null","html-keyboard-response","55","91158","0.0-6.0-0.22","fixation","","","","",""
"2018.96499999566","Stimuli/Hangul_M9.bmp","190","image-keyboard-response","56","93178","0.0-6.0-1.22","test",",","",".","",""
"null","<div style=""color:white; font-size:60px;"">+</div>","null","html-keyboard-response","57","94182","0.0-6.0-0.23","fixation","","","","",""
"1503.5950000019511","Stimuli/Hangul_M4.bmp","188","image-keyboard-response","58","95688","0.0-6.0-1.23","test",",","",",","",""
"null","<div style=""color:white; font-size:60px;"">+</div>","null","html-keyboard-response","59","96690","0.0-6.0-0.24","fixation","","","","",""
"1673.1149999977788","Stimuli/Hangul_F16.bmp","188","image-keyboard-response","60","98364","0.0-6.0-1.24","test",".","",",","",""
"null","<div style=""color:white; font-size:60px;"">+</div>","null","html-keyboard-response","61","99367","0.0-6.0-0.25","fixation","","","","",""
"1685.66999999166","Stimuli/Hangul_M18.bmp","188","image-keyboard-response","62","101053","0.0-6.0-1.25","test",",","",",","",""
"null","<div style=""color:white; font-size:60px;"">+</div>","null","html-keyboard-response","63","102060","0.0-6.0-0.26","fixation","","","","",""
"1951.90499999444","Stimuli/Hangul_F24.bmp","188","image-keyboard-response","64","104014","0.0-6.0-1.26","test",".","",",","",""
"null","<div style=""color:white; font-size:60px;"">+</div>","null","html-keyboard-response","65","105019","0.0-6.0-0.27","fixation","","","","",""
"2219.570000001113","Stimuli/Hangul_M16.bmp","188","image-keyboard-response","66","107240","0.0-6.0-1.27","test",",","",",","",""
"null","<div style=""color:white; font-size:60px;"">+</div>","null","html-keyboard-response","67","108246","0.0-6.0-0.28","fixation","","","","",""
"2694.439999992028","Stimuli/Hangul_F12.bmp","188","image-keyboard-response","68","110942","0.0-6.0-1.28","test",".","",",","",""
"null","<div style=""color:white; font-size:60px;"">+</div>","null","html-keyboard-response","69","111946","0.0-6.0-0.29","fixation","","","","",""
"2256.6749999969034","Stimuli/Hangul_M0.bmp","190","image-keyboard-response","70","114205","0.0-6.0-1.29","test",",","",".","",""
"null","<div style=""color:white; font-size:60px;"">+</div>","null","html-keyboard-response","71","115206","0.0-6.0-0.30","fixation","","","","",""
"2124.7549999970943","Stimuli/Hangul_M15.bmp","188","image-keyboard-response","72","117333","0.0-6.0-1.30","test",",","",",","",""
"null","<div style=""color:white; font-size:60px;"">+</div>","null","html-keyboard-response","73","118337","0.0-6.0-0.31","fixation","","","","",""
"2210.189999997965","Stimuli/Hangul_M8.bmp","188","image-keyboard-response","74","120549","0.0-6.0-1.31","test",",","",",","",""
"null","<div style=""color:white; font-size:60px;"">+</div>","null","html-keyboard-response","75","121550","0.0-6.0-0.32","fixation","","","","",""
"3388.4350000007544","Stimuli/Hangul_F17.bmp","188","image-keyboard-response","76","124940","0.0-6.0-1.32","test",".","",",","",""
"null","<div style=""color:white; font-size:60px;"">+</div>","null","html-keyboard-response","77","125941","0.0-6.0-0.33","fixation","","","","",""
"1842.2299999947427","Stimuli/Hangul_M22.bmp","188","image-keyboard-response","78","127785","0.0-6.0-1.33","test",",","",",","",""
"null","<div style=""color:white; font-size:60px;"">+</div>","null","html-keyboard-response","79","128790","0.0-6.0-0.34","fixation","","","","",""
"2365.720000001602","Stimuli/Hangul_F6.bmp","190","image-keyboard-response","80","131157","0.0-6.0-1.34","test",".","",".","",""
"null","<div style=""color:white; font-size:60px;"">+</div>","null","html-keyboard-response","81","132160","0.0-6.0-0.35","fixation","","","","",""
"2337.789999990491","Stimuli/Hangul_F9.bmp","190","image-keyboard-response","82","134500","0.0-6.0-1.35","test",".","",".","",""
"null","<div style=""color:white; font-size:60px;"">+</div>","null","html-keyboard-response","83","135503","0.0-6.0-0.36","fixation","","","","",""
"2012.9099999903701","Stimuli/Hangul_F22.bmp","190","image-keyboard-response","84","137517","0.0-6.0-1.36","test",".","",".","",""
"null","<div style=""color:white; font-size:60px;"">+</div>","null","html-keyboard-response","85","138524","0.0-6.0-0.37","fixation","","","","",""
"1846.8700000084937","Stimuli/Hangul_M21.bmp","188","image-keyboard-response","86","140372","0.0-6.0-1.37","test",",","",",","",""
"null","<div style=""color:white; font-size:60px;"">+</div>","null","html-keyboard-response","87","141373","0.0-6.0-0.38","fixation","","","","",""
"1527.1900000079768","Stimuli/Hangul_F23.bmp","188","image-keyboard-response","88","142904","0.0-6.0-1.38","test",".","",",","",""
"null","<div style=""color:white; font-size:60px;"">+</div>","null","html-keyboard-response","89","143905","0.0-6.0-0.39","fixation","","","","",""
"1371.22499999532","Stimuli/Hangul_F7.bmp","188","image-keyboard-response","90","145277","0.0-6.0-1.39","test",".","",",","",""
"null","<div style=""color:white; font-size:60px;"">+</div>","null","html-keyboard-response","91","146284","0.0-6.0-0.40","fixation","","","","",""
"1625.4700000135927","Stimuli/Hangul_F13.bmp","188","image-keyboard-response","92","147911","0.0-6.0-1.40","test",".","",",","",""
"null","<div style=""color:white; font-size:60px;"">+</div>","null","html-keyboard-response","93","148913","0.0-6.0-0.41","fixation","","","","",""
"2089.829999997164","Stimuli/Hangul_F2.bmp","190","image-keyboard-response","94","151003","0.0-6.0-1.41","test",".","",".","",""
"null","<div style=""color:white; font-size:60px;"">+</div>","null","html-keyboard-response","95","152005","0.0-6.0-0.42","fixation","","","","",""
"2586.36000000115","Stimuli/Hangul_M3.bmp","190","image-keyboard-response","96","154592","0.0-6.0-1.42","test",",","",".","",""
"null","<div style=""color:white; font-size:60px;"">+</div>","null","html-keyboard-response","97","155598","0.0-6.0-0.43","fixation","","","","",""
"2087.295000004815","Stimuli/Hangul_F3.bmp","190","image-keyboard-response","98","157686","0.0-6.0-1.43","test",".","",".","",""
"null","<div style=""color:white; font-size:60px;"">+</div>","null","html-keyboard-response","99","158691","0.0-6.0-0.44","fixation","","","","",""
"1807.6949999958742","Stimuli/Hangul_F1.bmp","190","image-keyboard-response","100","160501","0.0-6.0-1.44","test",".","",".","",""
"null","<div style=""color:white; font-size:60px;"">+</div>","null","html-keyboard-response","101","161503","0.0-6.0-0.45","fixation","","","","",""
"1445.2949999977136","Stimuli/Hangul_F5.bmp","188","image-keyboard-response","102","162950","0.0-6.0-1.45","test",".","",",","",""
"null","<div style=""color:white; font-size:60px;"">+</div>","null","html-keyboard-response","103","163956","0.0-6.0-0.46","fixation","","","","",""
"2122.0549999998184","Stimuli/Hangul_F15.bmp","190","image-keyboard-response","104","166080","0.0-6.0-1.46","test",".","",".","",""
"null","<div style=""color:white; font-size:60px;"">+</div>","null","html-keyboard-response","105","167086","0.0-6.0-0.47","fixation","","","","",""
"1532.4800000089454","Stimuli/Hangul_F21.bmp","190","image-keyboard-response","106","168620","0.0-6.0-1.47","test",".","",".","",""
"null","<div style=""color:white; font-size:60px;"">+</div>","null","html-keyboard-response","107","169623","0.0-6.0-0.48","fixation","","","","",""
"2172.3950000014156","Stimuli/Hangul_M2.bmp","188","image-keyboard-response","108","171797","0.0-6.0-1.48","test",",","",",","",""
"null","<div style=""color:white; font-size:60px;"">+</div>","null","html-keyboard-response","109","172800","0.0-6.0-0.49","fixation","","","","",""
"1861.429999989923","Stimuli/Hangul_M13.bmp","188","image-keyboard-response","110","174663","0.0-6.0-1.49","test",",","",",","",""
"1382.8150000044843","<p style=""color:white;"">Good job, block 1 complete! Please take a moment to rest.</p> <p style=""color:white;"">When you are ready to continue with block 2 of 4, press the space bar.</p> ","32","html-keyboard-response","111","176047","0.0-7.0","","","","","",""
"null","<div style=""color:white; font-size:60px;"">+</div>","null","html-keyboard-response","112","179056","0.0-8.0-0.0","fixation","","","","",""
"2174.3750000023283","Stimuli/Hangul_F41.bmp","188","image-keyboard-response","113","181233","0.0-8.0-1.0","test",".","",",","",""
"null","<div style=""color:white; font-size:60px;"">+</div>","null","html-keyboard-response","114","182236","0.0-8.0-0.1","fixation","","","","",""
"1393.6149999935878","Stimuli/Hangul_F39.bmp","190","image-keyboard-response","115","183631","0.0-8.0-1.1","test",".","",".","",""
"null","<div style=""color:white; font-size:60px;"">+</div>","null","html-keyboard-response","116","184633","0.0-8.0-0.2","fixation","","","","",""
"2157.265000001644","Stimuli/Hangul_F28.bmp","190","image-keyboard-response","117","186791","0.0-8.0-1.2","test",".","",".","",""
"null","<div style=""color:white; font-size:60px;"">+</div>","null","html-keyboard-response","118","187797","0.0-8.0-0.3","fixation","","","","",""
"1601.5999999945052","Stimuli/Hangul_M44.bmp","188","image-keyboard-response","119","189400","0.0-8.0-1.3","test",",","",",","",""
"null","<div style=""color:white; font-size:60px;"">+</div>","null","html-keyboard-response","120","190405","0.0-8.0-0.4","fixation","","","","",""
"1818.6549999954877","Stimuli/Hangul_M46.bmp","188","image-keyboard-response","121","192224","0.0-8.0-1.4","test",",","",",","",""
"null","<div style=""color:white; font-size:60px;"">+</div>","null","html-keyboard-response","122","193227","0.0-8.0-0.5","fixation","","","","",""
"1843.8400000013644","Stimuli/Hangul_M41.bmp","188","image-keyboard-response","123","195072","0.0-8.0-1.5","test",",","",",","",""
"null","<div style=""color:white; font-size:60px;"">+</div>","null","html-keyboard-response","124","196074","0.0-8.0-0.6","fixation","","","","",""
"2514.8900000058347","Stimuli/Hangul_F36.bmp","190","image-keyboard-response","125","198590","0.0-8.0-1.6","test",".","",".","",""
"null","<div style=""color:white; font-size:60px;"">+</div>","null","html-keyboard-response","126","199592","0.0-8.0-0.7","fixation","","","","",""
"1484.085000003688","Stimuli/Hangul_F31.bmp","190","image-keyboard-response","127","201077","0.0-8.0-1.7","test",".","",".","",""
"null","<div style=""color:white; font-size:60px;"">+</div>","null","html-keyboard-response","128","202084","0.0-8.0-0.8","fixation","","","","",""
"3169.59499999939","Stimuli/Hangul_M31.bmp","188","image-keyboard-response","129","205254","0.0-8.0-1.8","test",",","",",","",""
"null","<div style=""color:white; font-size:60px;"">+</div>","null","html-keyboard-response","130","206260","0.0-8.0-0.9","fixation","","","","",""
"1363.4100000053877","Stimuli/Hangul_F34.bmp","190","image-keyboard-response","131","207625","0.0-8.0-1.9","test",".","",".","",""
"null","<div style=""color:white; font-size:60px;"">+</div>","null","html-keyboard-response","132","208629","0.0-8.0-0.10","fixation","","","","",""
"1672.1200000029057","Stimuli/Hangul_F43.bmp","190","image-keyboard-response","133","210302","0.0-8.0-1.10","test",".","",".","",""
"null","<div style=""color:white; font-size:60px;"">+</div>","null","html-keyboard-response","134","211303","0.0-8.0-0.11","fixation","","","","",""
"1551.5849999937927","Stimuli/Hangul_F45.bmp","188","image-keyboard-response","135","212856","0.0-8.0-1.11","test",".","",",","",""
"null","<div style=""color:white; font-size:60px;"">+</div>","null","html-keyboard-response","136","213858","0.0-8.0-0.12","fixation","","","","",""
"1642.3150000046007","Stimuli/Hangul_F29.bmp","190","image-keyboard-response","137","215502","0.0-8.0-1.12","test",".","",".","",""
"null","<div style=""color:white; font-size:60px;"">+</div>","null","html-keyboard-response","138","216503","0.0-8.0-0.13","fixation","","","","",""
"2349.7449999995297","Stimuli/Hangul_M43.bmp","188","image-keyboard-response","139","218854","0.0-8.0-1.13","test",",","",",","",""
"null","<div style=""color:white; font-size:60px;"">+</div>","null","html-keyboard-response","140","219858","0.0-8.0-0.14","fixation","","","","",""
"1489.5499999984168","Stimuli/Hangul_F32.bmp","190","image-keyboard-response","141","221349","0.0-8.0-1.14","test",".","",".","",""
"null","<div style=""color:white; font-size:60px;"">+</div>","null","html-keyboard-response","142","222356","0.0-8.0-0.15","fixation","","","","",""
"1592.1649999945657","Stimuli/Hangul_M30.bmp","188","image-keyboard-response","143","223949","0.0-8.0-1.15","test",",","",",","",""
"null","<div style=""color:white; font-size:60px;"">+</div>","null","html-keyboard-response","144","224956","0.0-8.0-0.16","fixation","","","","",""
"2099.86500001105","Stimuli/Hangul_M42.bmp","188","image-keyboard-response","145","227057","0.0-8.0-1.16","test",",","",",","",""
"null","<div style=""color:white; font-size:60px;"">+</div>","null","html-keyboard-response","146","228059","0.0-8.0-0.17","fixation","","","","",""
"2255.300000004354","Stimuli/Hangul_F47.bmp","188","image-keyboard-response","147","230317","0.0-8.0-1.17","test",".","",",","",""
"null","<div style=""color:white; font-size:60px;"">+</div>","null","html-keyboard-response","148","231319","0.0-8.0-0.18","fixation","","","","",""
"1955.2649999968708","Stimuli/Hangul_F48.bmp","188","image-keyboard-response","149","233276","0.0-8.0-1.18","test",".","",",","",""
"null","<div style=""color:white; font-size:60px;"">+</div>","null","html-keyboard-response","150","234282","0.0-8.0-0.19","fixation","","","","",""
"1894.3399999989197","Stimuli/Hangul_M27.bmp","188","image-keyboard-response","151","236178","0.0-8.0-1.19","test",",","",",","",""
"null","<div style=""color:white; font-size:60px;"">+</div>","null","html-keyboard-response","152","237181","0.0-8.0-0.20","fixation","","","","",""
"1483.7899999984074","Stimuli/Hangul_F42.bmp","190","image-keyboard-response","153","238666","0.0-8.0-1.20","test",".","",".","",""
"null","<div style=""color:white; font-size:60px;"">+</div>","null","html-keyboard-response","154","239673","0.0-8.0-0.21","fixation","","","","",""
"1880.604999998468","Stimuli/Hangul_M26.bmp","188","image-keyboard-response","155","241555","0.0-8.0-1.21","test",",","",",","",""
"null","<div style=""color:white; font-size:60px;"">+</div>","null","html-keyboard-response","156","242559","0.0-8.0-0.22","fixation","","","","",""
"1399.5399999985239","Stimuli/Hangul_F30.bmp","190","image-keyboard-response","157","243963","0.0-8.0-1.22","test",".","",".","",""
"null","<div style=""color:white; font-size:60px;"">+</div>","null","html-keyboard-response","158","244967","0.0-8.0-0.23","fixation","","","","",""
"1626.6599999944447","Stimuli/Hangul_M38.bmp","188","image-keyboard-response","159","246594","0.0-8.0-1.23","test",",","",",","",""
"null","<div style=""color:white; font-size:60px;"">+</div>","null","html-keyboard-response","160","247599","0.0-8.0-0.24","fixation","","","","",""
"1561.7099999944912","Stimuli/Hangul_F37.bmp","190","image-keyboard-response","161","249163","0.0-8.0-1.24","test",".","",".","",""
"null","<div style=""color:white; font-size:60px;"">+</div>","null","html-keyboard-response","162","250166","0.0-8.0-0.25","fixation","","","","",""
"1750.0549999967916","Stimuli/Hangul_F25.bmp","188","image-keyboard-response","163","251917","0.0-8.0-1.25","test",".","",",","",""
"null","<div style=""color:white; font-size:60px;"">+</div>","null","html-keyboard-response","164","252923","0.0-8.0-0.26","fixation","","","","",""
"2739.5899999974063","Stimuli/Hangul_M35.bmp","188","image-keyboard-response","165","255663","0.0-8.0-1.26","test",",","",",","",""
"null","<div style=""color:white; font-size:60px;"">+</div>","null","html-keyboard-response","166","256670","0.0-8.0-0.27","fixation","","","","",""
"1691.225000002305","Stimuli/Hangul_F40.bmp","188","image-keyboard-response","167","258363","0.0-8.0-1.27","test",".","",",","",""
"null","<div style=""color:white; font-size:60px;"">+</div>","null","html-keyboard-response","168","259365","0.0-8.0-0.28","fixation","","","","",""
"1518.51500000339","Stimuli/Hangul_M40.bmp","188","image-keyboard-response","169","260886","0.0-8.0-1.28","test",",","",",","",""
"null","<div style=""color:white; font-size:60px;"">+</div>","null","html-keyboard-response","170","261888","0.0-8.0-0.29","fixation","","","","",""
"1603.9650000020629","Stimuli/Hangul_M47.bmp","188","image-keyboard-response","171","263493","0.0-8.0-1.29","test",",","",",","",""
"null","<div style=""color:white; font-size:60px;"">+</div>","null","html-keyboard-response","172","264499","0.0-8.0-0.30","fixation","","","","",""
"2311.8000000104075","Stimuli/Hangul_F26.bmp","188","image-keyboard-response","173","266812","0.0-8.0-1.30","test",".","",",","",""
"null","<div style=""color:white; font-size:60px;"">+</div>","null","html-keyboard-response","174","267813","0.0-8.0-0.31","fixation","","","","",""
"1617.8249999938998","Stimuli/Hangul_M32.bmp","188","image-keyboard-response","175","269432","0.0-8.0-1.31","test",",","",",","",""
"null","<div style=""color:white; font-size:60px;"">+</div>","null","html-keyboard-response","176","270436","0.0-8.0-0.32","fixation","","","","",""
"2631.680000005872","Stimuli/Hangul_F27.bmp","188","image-keyboard-response","177","273069","0.0-8.0-1.32","test",".","",",","",""
"null","<div style=""color:white; font-size:60px;"">+</div>","null","html-keyboard-response","178","274074","0.0-8.0-0.33","fixation","","","","",""
"1521.9149999902584","Stimuli/Hangul_M39.bmp","188","image-keyboard-response","179","275598","0.0-8.0-1.33","test",",","",",","",""
"null","<div style=""color:white; font-size:60px;"">+</div>","null","html-keyboard-response","180","276602","0.0-8.0-0.34","fixation","","","","",""
"2449.430000007851","Stimuli/Hangul_F49.bmp","190","image-keyboard-response","181","279052","0.0-8.0-1.34","test",".","",".","",""
"null","<div style=""color:white; font-size:60px;"">+</div>","null","html-keyboard-response","182","280057","0.0-8.0-0.35","fixation","","","","",""
"1535.8200000046054","Stimuli/Hangul_M25.bmp","188","image-keyboard-response","183","281594","0.0-8.0-1.35","test",",","",",","",""
"null","<div style=""color:white; font-size:60px;"">+</div>","null","html-keyboard-response","184","282599","0.0-8.0-0.36","fixation","","","","",""
"1651.4700000116136","Stimuli/Hangul_M34.bmp","188","image-keyboard-response","185","284251","0.0-8.0-1.36","test",",","",",","",""
"null","<div style=""color:white; font-size:60px;"">+</div>","null","html-keyboard-response","186","285256","0.0-8.0-0.37","fixation","","","","",""
"1626.0200000106124","Stimuli/Hangul_M33.bmp","188","image-keyboard-response","187","286884","0.0-8.0-1.37","test",",","",",","",""
"null","<div style=""color:white; font-size:60px;"">+</div>","null","html-keyboard-response","188","287889","0.0-8.0-0.38","fixation","","","","",""
"1838.7199999997392","Stimuli/Hangul_M29.bmp","188","image-keyboard-response","189","289729","0.0-8.0-1.38","test",",","",",","",""
"null","<div style=""color:white; font-size:60px;"">+</div>","null","html-keyboard-response","190","290730","0.0-8.0-0.39","fixation","","","","",""
"1742.0600000041304","Stimuli/Hangul_F38.bmp","188","image-keyboard-response","191","292473","0.0-8.0-1.39","test",".","",",","",""
"null","<div style=""color:white; font-size:60px;"">+</div>","null","html-keyboard-response","192","293479","0.0-8.0-0.40","fixation","","","","",""
"1682.4849999975413","Stimuli/Hangul_M36.bmp","188","image-keyboard-response","193","295164","0.0-8.0-1.40","test",",","",",","",""
"null","<div style=""color:white; font-size:60px;"">+</div>","null","html-keyboard-response","194","296165","0.0-8.0-0.41","fixation","","","","",""
"1504.255000007106","Stimuli/Hangul_F35.bmp","190","image-keyboard-response","195","297671","0.0-8.0-1.41","test",".","",".","",""
"null","<div style=""color:white; font-size:60px;"">+</div>","null","html-keyboard-response","196","298673","0.0-8.0-0.42","fixation","","","","",""
"1481.9699999934528","Stimuli/Hangul_F33.bmp","190","image-keyboard-response","197","300156","0.0-8.0-1.42","test",".","",".","",""
"null","<div style=""color:white; font-size:60px;"">+</div>","null","html-keyboard-response","198","301159","0.0-8.0-0.43","fixation","","","","",""
"1987.9000000073574","Stimuli/Hangul_F46.bmp","188","image-keyboard-response","199","303148","0.0-8.0-1.43","test",".","",",","",""
"null","<div style=""color:white; font-size:60px;"">+</div>","null","html-keyboard-response","200","304149","0.0-8.0-0.44","fixation","","","","",""
"1384.090000006836","Stimuli/Hangul_M48.bmp","188","image-keyboard-response","201","305535","0.0-8.0-1.44","test",",","",",","",""
"null","<div style=""color:white; font-size:60px;"">+</div>","null","html-keyboard-response","202","306540","0.0-8.0-0.45","fixation","","","","",""
"1941.674999994575","Stimuli/Hangul_M49.bmp","190","image-keyboard-response","203","308482","0.0-8.0-1.45","test",",","",".","",""
"null","<div style=""color:white; font-size:60px;"">+</div>","null","html-keyboard-response","204","309484","0.0-8.0-0.46","fixation","","","","",""
"1673.1149999977788","Stimuli/Hangul_M37.bmp","188","image-keyboard-response","205","311159","0.0-8.0-1.46","test",",","",",","",""
"null","<div style=""color:white; font-size:60px;"">+</div>","null","html-keyboard-response","206","312165","0.0-8.0-0.47","fixation","","","","",""
"1796.3699999963865","Stimuli/Hangul_M28.bmp","190","image-keyboard-response","207","313962","0.0-8.0-1.47","test",",","",".","",""
"null","<div style=""color:white; font-size:60px;"">+</div>","null","html-keyboard-response","208","314964","0.0-8.0-0.48","fixation","","","","",""
"1539.3899999908172","Stimuli/Hangul_M45.bmp","188","image-keyboard-response","209","316504","0.0-8.0-1.48","test",",","",",","",""
"null","<div style=""color:white; font-size:60px;"">+</div>","null","html-keyboard-response","210","317506","0.0-8.0-0.49","fixation","","","","",""
"1458.9849999902071","Stimuli/Hangul_F44.bmp","190","image-keyboard-response","211","318967","0.0-8.0-1.49","test",".","",".","",""
"175085.3100000095","<p style=""color:white;"">Half way there! Please take a moment to rest.</p> <p style=""color:white;"">When you are ready to continue with block 3 of 4, press the space bar.</p> ","32","html-keyboard-response","212","494052","0.0-9.0","","","","","",""
"null","<div style=""color:white; font-size:60px;"">+</div>","null","html-keyboard-response","213","497060","0.0-10.0-0.0","fixation","","","","",""
"2392.6700000010896","Stimuli/Hangul_F54.bmp","190","image-keyboard-response","214","499454","0.0-10.0-1.0","test",".","",".","",""
"null","<div style=""color:white; font-size:60px;"">+</div>","null","html-keyboard-response","215","500455","0.0-10.0-0.1","fixation","","","","",""
"1987.1299999940675","Stimuli/Hangul_F62.bmp","188","image-keyboard-response","216","502444","0.0-10.0-1.1","test",".","",",","",""
"null","<div style=""color:white; font-size:60px;"">+</div>","null","html-keyboard-response","217","503447","0.0-10.0-0.2","fixation","","","","",""
"1336.1799999984214","Stimuli/Hangul_M60.bmp","188","image-keyboard-response","218","504785","0.0-10.0-1.2","test",",","",",","",""
"null","<div style=""color:white; font-size:60px;"">+</div>","null","html-keyboard-response","219","505789","0.0-10.0-0.3","fixation","","","","",""
"1749.679999993532","Stimuli/Hangul_M61.bmp","188","image-keyboard-response","220","507540","0.0-10.0-1.3","test",",","",",","",""
"null","<div style=""color:white; font-size:60px;"">+</div>","null","html-keyboard-response","221","508546","0.0-10.0-0.4","fixation","","","","",""
"1514.3499999976484","Stimuli/Hangul_F51.bmp","190","image-keyboard-response","222","510062","0.0-10.0-1.4","test",".","",".","",""
"null","<div style=""color:white; font-size:60px;"">+</div>","null","html-keyboard-response","223","511063","0.0-10.0-0.5","fixation","","","","",""
"1629.8249999963446","Stimuli/Hangul_M74.bmp","188","image-keyboard-response","224","512694","0.0-10.0-1.5","test",",","",",","",""
"null","<div style=""color:white; font-size:60px;"">+</div>","null","html-keyboard-response","225","513700","0.0-10.0-0.6","fixation","","","","",""
"1860.0399999995716","Stimuli/Hangul_M53.bmp","188","image-keyboard-response","226","515562","0.0-10.0-1.6","test",",","",",","",""
"null","<div style=""color:white; font-size:60px;"">+</div>","null","html-keyboard-response","227","516563","0.0-10.0-0.7","fixation","","","","",""
"1719.570000001113","Stimuli/Hangul_M63.bmp","188","image-keyboard-response","228","518284","0.0-10.0-1.7","test",",","",",","",""
"null","<div style=""color:white; font-size:60px;"">+</div>","null","html-keyboard-response","229","519288","0.0-10.0-0.8","fixation","","","","",""
"1782.935000010184","Stimuli/Hangul_M68.bmp","190","image-keyboard-response","230","521075","0.0-10.0-1.8","test",",","",".","",""
"null","<div style=""color:white; font-size:60px;"">+</div>","null","html-keyboard-response","231","522079","0.0-10.0-0.9","fixation","","","","",""
"1390.3300000092713","Stimuli/Hangul_F66.bmp","190","image-keyboard-response","232","523470","0.0-10.0-1.9","test",".","",".","",""
"null","<div style=""color:white; font-size:60px;"">+</div>","null","html-keyboard-response","233","524474","0.0-10.0-0.10","fixation","","","","",""
"1525.2099999925122","Stimuli/Hangul_F64.bmp","190","image-keyboard-response","234","526001","0.0-10.0-1.10","test",".","",".","",""
"null","<div style=""color:white; font-size:60px;"">+</div>","null","html-keyboard-response","235","527002","0.0-10.0-0.11","fixation","","","","",""
"1506.5549999999348","Stimuli/Hangul_M73.bmp","188","image-keyboard-response","236","528509","0.0-10.0-1.11","test",",","",",","",""
"null","<div style=""color:white; font-size:60px;"">+</div>","null","html-keyboard-response","237","529512","0.0-10.0-0.12","fixation","","","","",""
"1427.574999994249","Stimuli/Hangul_F71.bmp","188","image-keyboard-response","238","530941","0.0-10.0-1.12","test",".","",",","",""
"null","<div style=""color:white; font-size:60px;"">+</div>","null","html-keyboard-response","239","531944","0.0-10.0-0.13","fixation","","","","",""
"1720.1400000049034","Stimuli/Hangul_F61.bmp","188","image-keyboard-response","240","533665","0.0-10.0-1.13","test",".","",",","",""
"null","<div style=""color:white; font-size:60px;"">+</div>","null","html-keyboard-response","241","534668","0.0-10.0-0.14","fixation","","","","",""
"1244.9449999985518","Stimuli/Hangul_M50.bmp","190","image-keyboard-response","242","535914","0.0-10.0-1.14","test",",","",".","",""
"null","<div style=""color:white; font-size:60px;"">+</div>","null","html-keyboard-response","243","536915","0.0-10.0-0.15","fixation","","","","",""
"1719.0249999985099","Stimuli/Hangul_M62.bmp","190","image-keyboard-response","244","538635","0.0-10.0-1.15","test",",","",".","",""
"null","<div style=""color:white; font-size:60px;"">+</div>","null","html-keyboard-response","245","539637","0.0-10.0-0.16","fixation","","","","",""
"1876.3949999993201","Stimuli/Hangul_M58.bmp","188","image-keyboard-response","246","541515","0.0-10.0-1.16","test",",","",",","",""
"null","<div style=""color:white; font-size:60px;"">+</div>","null","html-keyboard-response","247","542520","0.0-10.0-0.17","fixation","","","","",""
"1561.2449999898672","Stimuli/Hangul_M51.bmp","188","image-keyboard-response","248","544083","0.0-10.0-1.17","test",",","",",","",""
"null","<div style=""color:white; font-size:60px;"">+</div>","null","html-keyboard-response","249","545086","0.0-10.0-0.18","fixation","","","","",""
"1569.2550000094343","Stimuli/Hangul_M67.bmp","190","image-keyboard-response","250","546656","0.0-10.0-1.18","test",",","",".","",""
"null","<div style=""color:white; font-size:60px;"">+</div>","null","html-keyboard-response","251","547657","0.0-10.0-0.19","fixation","","","","",""
"1698.514999996405","Stimuli/Hangul_F63.bmp","188","image-keyboard-response","252","549357","0.0-10.0-1.19","test",".","",",","",""
"null","<div style=""color:white; font-size:60px;"">+</div>","null","html-keyboard-response","253","550359","0.0-10.0-0.20","fixation","","","","",""
"1460.8199999929639","Stimuli/Hangul_M56.bmp","188","image-keyboard-response","254","551821","0.0-10.0-1.20","test",",","",",","",""
"null","<div style=""color:white; font-size:60px;"">+</div>","null","html-keyboard-response","255","552823","0.0-10.0-0.21","fixation","","","","",""
"1540.934999997262","Stimuli/Hangul_M70.bmp","190","image-keyboard-response","256","554365","0.0-10.0-1.21","test",",","",".","",""
"null","<div style=""color:white; font-size:60px;"">+</div>","null","html-keyboard-response","257","555369","0.0-10.0-0.22","fixation","","","","",""
"1489.3400000000838","Stimuli/Hangul_M54.bmp","188","image-keyboard-response","258","556860","0.0-10.0-1.22","test",",","",",","",""
"null","<div style=""color:white; font-size:60px;"">+</div>","null","html-keyboard-response","259","557864","0.0-10.0-0.23","fixation","","","","",""
"1729.0149999898858","Stimuli/Hangul_F50.bmp","190","image-keyboard-response","260","559594","0.0-10.0-1.23","test",".","",".","",""
"null","<div style=""color:white; font-size:60px;"">+</div>","null","html-keyboard-response","261","560596","0.0-10.0-0.24","fixation","","","","",""
"3263.005000000703","Stimuli/Hangul_M65.bmp","188","image-keyboard-response","262","563860","0.0-10.0-1.24","test",",","",",","",""
"null","<div style=""color:white; font-size:60px;"">+</div>","null","html-keyboard-response","263","564863","0.0-10.0-0.25","fixation","","","","",""
"1864.914999998291","Stimuli/Hangul_F65.bmp","190","image-keyboard-response","264","566729","0.0-10.0-1.25","test",".","",".","",""
"null","<div style=""color:white; font-size:60px;"">+</div>","null","html-keyboard-response","265","567733","0.0-10.0-0.26","fixation","","","","",""
"1691.644999998971","Stimuli/Hangul_F70.bmp","188","image-keyboard-response","266","569427","0.0-10.0-1.26","test",".","",",","",""
"null","<div style=""color:white; font-size:60px;"">+</div>","null","html-keyboard-response","267","570430","0.0-10.0-0.27","fixation","","","","",""
"1473.0750000016997","Stimuli/Hangul_F58.bmp","188","image-keyboard-response","268","571904","0.0-10.0-1.27","test",".","",",","",""
"null","<div style=""color:white; font-size:60px;"">+</div>","null","html-keyboard-response","269","572908","0.0-10.0-0.28","fixation","","","","",""
"1771.1899999994785","Stimuli/Hangul_M66.bmp","188","image-keyboard-response","270","574680","0.0-10.0-1.28","test",",","",",","",""
"null","<div style=""color:white; font-size:60px;"">+</div>","null","html-keyboard-response","271","575685","0.0-10.0-0.29","fixation","","","","",""
"1931.8350000103237","Stimuli/Hangul_M59.bmp","188","image-keyboard-response","272","577619","0.0-10.0-1.29","test",",","",",","",""
"null","<div style=""color:white; font-size:60px;"">+</div>","null","html-keyboard-response","273","578622","0.0-10.0-0.30","fixation","","","","",""
"1400.565000003553","Stimuli/Hangul_F73.bmp","190","image-keyboard-response","274","580025","0.0-10.0-1.30","test",".","",".","",""
"null","<div style=""color:white; font-size:60px;"">+</div>","null","html-keyboard-response","275","581027","0.0-10.0-0.31","fixation","","","","",""
"1449.8699999967357","Stimuli/Hangul_F56.bmp","190","image-keyboard-response","276","582477","0.0-10.0-1.31","test",".","",".","",""
"null","<div style=""color:white; font-size:60px;"">+</div>","null","html-keyboard-response","277","583484","0.0-10.0-0.32","fixation","","","","",""
"3029.385000001639","Stimuli/Hangul_M69.bmp","188","image-keyboard-response","278","586515","0.0-10.0-1.32","test",",","",",","",""
"null","<div style=""color:white; font-size:60px;"">+</div>","null","html-keyboard-response","279","587520","0.0-10.0-0.33","fixation","","","","",""
"1627.7350000018487","Stimuli/Hangul_M72.bmp","188","image-keyboard-response","280","589150","0.0-10.0-1.33","test",",","",",","",""
"null","<div style=""color:white; font-size:60px;"">+</div>","null","html-keyboard-response","281","590153","0.0-10.0-0.34","fixation","","","","",""
"1548.609999998007","Stimuli/Hangul_F67.bmp","188","image-keyboard-response","282","591703","0.0-10.0-1.34","test",".","",",","",""
"null","<div style=""color:white; font-size:60px;"">+</div>","null","html-keyboard-response","283","592708","0.0-10.0-0.35","fixation","","","","",""
"1546.2399999960326","Stimuli/Hangul_M52.bmp","188","image-keyboard-response","284","594255","0.0-10.0-1.35","test",",","",",","",""
"null","<div style=""color:white; font-size:60px;"">+</div>","null","html-keyboard-response","285","595258","0.0-10.0-0.36","fixation","","","","",""
"1494.3550000025425","Stimuli/Hangul_F53.bmp","190","image-keyboard-response","286","596755","0.0-10.0-1.36","test",".","",".","",""
"null","<div style=""color:white; font-size:60px;"">+</div>","null","html-keyboard-response","287","597756","0.0-10.0-0.37","fixation","","","","",""
"3173.1050000089454","Stimuli/Hangul_F55.bmp","190","image-keyboard-response","288","600930","0.0-10.0-1.37","test",".","",".","",""
"null","<div style=""color:white; font-size:60px;"">+</div>","null","html-keyboard-response","289","601937","0.0-10.0-0.38","fixation","","","","",""
"2048.6450000025798","Stimuli/Hangul_M57.bmp","190","image-keyboard-response","290","603987","0.0-10.0-1.38","test",",","",".","",""
"null","<div style=""color:white; font-size:60px;"">+</div>","null","html-keyboard-response","291","604990","0.0-10.0-0.39","fixation","","","","",""
"1436.8799999938346","Stimuli/Hangul_F57.bmp","190","image-keyboard-response","292","606428","0.0-10.0-1.39","test",".","",".","",""
"null","<div style=""color:white; font-size:60px;"">+</div>","null","html-keyboard-response","293","607429","0.0-10.0-0.40","fixation","","","","",""
"1451.9449999934295","Stimuli/Hangul_M64.bmp","188","image-keyboard-response","294","608883","0.0-10.0-1.40","test",",","",",","",""
"null","<div style=""color:white; font-size:60px;"">+</div>","null","html-keyboard-response","295","609885","0.0-10.0-0.41","fixation","","","","",""
"1538.0499999882886","Stimuli/Hangul_F60.bmp","190","image-keyboard-response","296","611424","0.0-10.0-1.41","test",".","",".","",""
"null","<div style=""color:white; font-size:60px;"">+</div>","null","html-keyboard-response","297","612426","0.0-10.0-0.42","fixation","","","","",""
"1483.634999996866","Stimuli/Hangul_F69.bmp","190","image-keyboard-response","298","613911","0.0-10.0-1.42","test",".","",".","",""
"null","<div style=""color:white; font-size:60px;"">+</div>","null","html-keyboard-response","299","614917","0.0-10.0-0.43","fixation","","","","",""
"1308.0950000003213","Stimuli/Hangul_F59.bmp","190","image-keyboard-response","300","616226","0.0-10.0-1.43","test",".","",".","",""
"null","<div style=""color:white; font-size:60px;"">+</div>","null","html-keyboard-response","301","617228","0.0-10.0-0.44","fixation","","","","",""
"1350.0249999924563","Stimuli/Hangul_F72.bmp","188","image-keyboard-response","302","618579","0.0-10.0-1.44","test",".","",",","",""
"null","<div style=""color:white; font-size:60px;"">+</div>","null","html-keyboard-response","303","619583","0.0-10.0-0.45","fixation","","","","",""
"1468.9499999949476","Stimuli/Hangul_M71.bmp","188","image-keyboard-response","304","621054","0.0-10.0-1.45","test",",","",",","",""
"null","<div style=""color:white; font-size:60px;"">+</div>","null","html-keyboard-response","305","622059","0.0-10.0-0.46","fixation","","","","",""
"1591.2749999988591","Stimuli/Hangul_F68.bmp","190","image-keyboard-response","306","623654","0.0-10.0-1.46","test",".","",".","",""
"null","<div style=""color:white; font-size:60px;"">+</div>","null","html-keyboard-response","307","624656","0.0-10.0-0.47","fixation","","","","",""
"2079.249999995227","Stimuli/Hangul_F74.bmp","190","image-keyboard-response","308","626737","0.0-10.0-1.47","test",".","",".","",""
"null","<div style=""color:white; font-size:60px;"">+</div>","null","html-keyboard-response","309","627742","0.0-10.0-0.48","fixation","","","","",""
"1442.895000000135","Stimuli/Hangul_F52.bmp","188","image-keyboard-response","310","629187","0.0-10.0-1.48","test",".","",",","",""
"null","<div style=""color:white; font-size:60px;"">+</div>","null","html-keyboard-response","311","630190","0.0-10.0-0.49","fixation","","","","",""
"1540.0050000025658","Stimuli/Hangul_M55.bmp","188","image-keyboard-response","312","631731","0.0-10.0-1.49","test",",","",",","",""
"296961.00000001024","<p style=""color:white;"">One more block to go! Please take a moment to rest.</p> <p style=""color:white;"">When you are ready to continue with block 4 of 4, press the space bar.</p> ","32","html-keyboard-response","313","928692","0.0-11.0","","","","","",""
"null","<div style=""color:white; font-size:60px;"">+</div>","null","html-keyboard-response","314","931697","0.0-12.0-0.0","fixation","","","","",""
"2331.45000001241","Stimuli/Hangul_M87.bmp","190","image-keyboard-response","315","934030","0.0-12.0-1.0","test",",","",".","",""
"null","<div style=""color:white; font-size:60px;"">+</div>","null","html-keyboard-response","316","935031","0.0-12.0-0.1","fixation","","","","",""
"1607.1999999985565","Stimuli/Hangul_M94.bmp","188","image-keyboard-response","317","936639","0.0-12.0-1.1","test",",","",",","",""
"null","<div style=""color:white; font-size:60px;"">+</div>","null","html-keyboard-response","318","937644","0.0-12.0-0.2","fixation","","","","",""
"1551.4249999978347","Stimuli/Hangul_F96.bmp","190","image-keyboard-response","319","939196","0.0-12.0-1.2","test",".","",".","",""
"null","<div style=""color:white; font-size:60px;"">+</div>","null","html-keyboard-response","320","940199","0.0-12.0-0.3","fixation","","","","",""
"1401.8450000003213","Stimuli/Hangul_F94.bmp","190","image-keyboard-response","321","941603","0.0-12.0-1.3","test",".","",".","",""
"null","<div style=""color:white; font-size:60px;"">+</div>","null","html-keyboard-response","322","942605","0.0-12.0-0.4","fixation","","","","",""
"2021.260000008624","Stimuli/Hangul_M79.bmp","190","image-keyboard-response","323","944628","0.0-12.0-1.4","test",",","",".","",""
"null","<div style=""color:white; font-size:60px;"">+</div>","null","html-keyboard-response","324","945631","0.0-12.0-0.5","fixation","","","","",""
"1887.0400000014342","Stimuli/Hangul_M83.bmp","190","image-keyboard-response","325","947519","0.0-12.0-1.5","test",",","",".","",""
"null","<div style=""color:white; font-size:60px;"">+</div>","null","html-keyboard-response","326","948524","0.0-12.0-0.6","fixation","","","","",""
"1438.190000000759","Stimuli/Hangul_F77.bmp","190","image-keyboard-response","327","949963","0.0-12.0-1.6","test",".","",".","",""
"null","<div style=""color:white; font-size:60px;"">+</div>","null","html-keyboard-response","328","950967","0.0-12.0-0.7","fixation","","","","",""
"1545.219999999972","Stimuli/Hangul_F97.bmp","190","image-keyboard-response","329","952514","0.0-12.0-1.7","test",".","",".","",""
"null","<div style=""color:white; font-size:60px;"">+</div>","null","html-keyboard-response","330","953517","0.0-12.0-0.8","fixation","","","","",""
"1696.89500000095","Stimuli/Hangul_M89.bmp","188","image-keyboard-response","331","955215","0.0-12.0-1.8","test",",","",",","",""
"null","<div style=""color:white; font-size:60px;"">+</div>","null","html-keyboard-response","332","956217","0.0-12.0-0.9","fixation","","","","",""
"1628.020000003744","Stimuli/Hangul_F98.bmp","190","image-keyboard-response","333","957848","0.0-12.0-1.9","test",".","",".","",""
"null","<div style=""color:white; font-size:60px;"">+</div>","null","html-keyboard-response","334","958852","0.0-12.0-0.10","fixation","","","","",""
"1459.2149999953108","Stimuli/Hangul_M90.bmp","188","image-keyboard-response","335","960312","0.0-12.0-1.10","test",",","",",","",""
"null","<div style=""color:white; font-size:60px;"">+</div>","null","html-keyboard-response","336","961317","0.0-12.0-0.11","fixation","","","","",""
"1626.0150000016438","Stimuli/Hangul_M84.bmp","190","image-keyboard-response","337","962945","0.0-12.0-1.11","test",",","",".","",""
"null","<div style=""color:white; font-size:60px;"">+</div>","null","html-keyboard-response","338","963951","0.0-12.0-0.12","fixation","","","","",""
"1510.1149999973131","Stimuli/Hangul_M88.bmp","188","image-keyboard-response","339","965463","0.0-12.0-1.12","test",",","",",","",""
"null","<div style=""color:white; font-size:60px;"">+</div>","null","html-keyboard-response","340","966468","0.0-12.0-0.13","fixation","","","","",""
"1446.2800000037532","Stimuli/Hangul_F99.bmp","188","image-keyboard-response","341","967915","0.0-12.0-1.13","test",".","",",","",""
"null","<div style=""color:white; font-size:60px;"">+</div>","null","html-keyboard-response","342","968919","0.0-12.0-0.14","fixation","","","","",""
"2013.504999995348","Stimuli/Hangul_M86.bmp","190","image-keyboard-response","343","970934","0.0-12.0-1.14","test",",","",".","",""
"null","<div style=""color:white; font-size:60px;"">+</div>","null","html-keyboard-response","344","971939","0.0-12.0-0.15","fixation","","","","",""
"1453.800000002957","Stimuli/Hangul_F78.bmp","190","image-keyboard-response","345","973395","0.0-12.0-1.15","test",".","",".","",""
"null","<div style=""color:white; font-size:60px;"">+</div>","null","html-keyboard-response","346","974397","0.0-12.0-0.16","fixation","","","","",""
"1685.5450000002747","Stimuli/Hangul_M81.bmp","188","image-keyboard-response","347","976084","0.0-12.0-1.16","test",",","",",","",""
"null","<div style=""color:white; font-size:60px;"">+</div>","null","html-keyboard-response","348","977085","0.0-12.0-0.17","fixation","","","","",""
"1540.1599999895552","Stimuli/Hangul_F93.bmp","190","image-keyboard-response","349","978626","0.0-12.0-1.17","test",".","",".","",""
"null","<div style=""color:white; font-size:60px;"">+</div>","null","html-keyboard-response","350","979631","0.0-12.0-0.18","fixation","","","","",""
"1617.180000001099","Stimuli/Hangul_F89.bmp","190","image-keyboard-response","351","981249","0.0-12.0-1.18","test",".","",".","",""
"null","<div style=""color:white; font-size:60px;"">+</div>","null","html-keyboard-response","352","982253","0.0-12.0-0.19","fixation","","","","",""
"1748.200000001816","Stimuli/Hangul_F92.bmp","190","image-keyboard-response","353","984003","0.0-12.0-1.19","test",".","",".","",""
"null","<div style=""color:white; font-size:60px;"">+</div>","null","html-keyboard-response","354","985005","0.0-12.0-0.20","fixation","","","","",""
"1336.589999991702","Stimuli/Hangul_M80.bmp","188","image-keyboard-response","355","986343","0.0-12.0-1.20","test",",","",",","",""
"null","<div style=""color:white; font-size:60px;"">+</div>","null","html-keyboard-response","356","987344","0.0-12.0-0.21","fixation","","","","",""
"1810.8849999989616","Stimuli/Hangul_M77.bmp","188","image-keyboard-response","357","989156","0.0-12.0-1.21","test",",","",",","",""
"null","<div style=""color:white; font-size:60px;"">+</div>","null","html-keyboard-response","358","990160","0.0-12.0-0.22","fixation","","","","",""
"1687.0899999921676","Stimuli/Hangul_F86.bmp","190","image-keyboard-response","359","991848","0.0-12.0-1.22","test",".","",".","",""
"null","<div style=""color:white; font-size:60px;"">+</div>","null","html-keyboard-response","360","992854","0.0-12.0-0.23","fixation","","","","",""
"2150.6050000025425","Stimuli/Hangul_M99.bmp","188","image-keyboard-response","361","995006","0.0-12.0-1.23","test",",","",",","",""
"null","<div style=""color:white; font-size:60px;"">+</div>","null","html-keyboard-response","362","996007","0.0-12.0-0.24","fixation","","","","",""
"1427.479999998468","Stimuli/Hangul_F87.bmp","190","image-keyboard-response","363","997436","0.0-12.0-1.24","test",".","",".","",""
"null","<div style=""color:white; font-size:60px;"">+</div>","null","html-keyboard-response","364","998441","0.0-12.0-0.25","fixation","","","","",""
"1334.4899999938207","Stimuli/Hangul_F83.bmp","190","image-keyboard-response","365","999777","0.0-12.0-1.25","test",".","",".","",""
"null","<div style=""color:white; font-size:60px;"">+</div>","null","html-keyboard-response","366","1000782","0.0-12.0-0.26","fixation","","","","",""
"1356.5200000011828","Stimuli/Hangul_M98.bmp","188","image-keyboard-response","367","1002140","0.0-12.0-1.26","test",",","",",","",""
"null","<div style=""color:white; font-size:60px;"">+</div>","null","html-keyboard-response","368","1003144","0.0-12.0-0.27","fixation","","","","",""
"1287.6149999938207","Stimuli/Hangul_M76.bmp","188","image-keyboard-response","369","1004432","0.0-12.0-1.27","test",",","",",","",""
"null","<div style=""color:white; font-size:60px;"">+</div>","null","html-keyboard-response","370","1005434","0.0-12.0-0.28","fixation","","","","",""
"1573.9549999998417","Stimuli/Hangul_F76.bmp","190","image-keyboard-response","371","1007009","0.0-12.0-1.28","test",".","",".","",""
"null","<div style=""color:white; font-size:60px;"">+</div>","null","html-keyboard-response","372","1008012","0.0-12.0-0.29","fixation","","","","",""
"2461.5599999960978","Stimuli/Hangul_F88.bmp","190","image-keyboard-response","373","1010475","0.0-12.0-1.29","test",".","",".","",""
"null","<div style=""color:white; font-size:60px;"">+</div>","null","html-keyboard-response","374","1011482","0.0-12.0-0.30","fixation","","","","",""
"1480.345000003581","Stimuli/Hangul_M85.bmp","188","image-keyboard-response","375","1012963","0.0-12.0-1.30","test",",","",",","",""
"null","<div style=""color:white; font-size:60px;"">+</div>","null","html-keyboard-response","376","1013967","0.0-12.0-0.31","fixation","","","","",""
"1704.924999998184","Stimuli/Hangul_M75.bmp","190","image-keyboard-response","377","1015674","0.0-12.0-1.31","test",",","",".","",""
"null","<div style=""color:white; font-size:60px;"">+</div>","null","html-keyboard-response","378","1016678","0.0-12.0-0.32","fixation","","","","",""
"1447.5550000061048","Stimuli/Hangul_M97.bmp","188","image-keyboard-response","379","1018127","0.0-12.0-1.32","test",",","",",","",""
"null","<div style=""color:white; font-size:60px;"">+</div>","null","html-keyboard-response","380","1019131","0.0-12.0-0.33","fixation","","","","",""
"1423.2649999903515","Stimuli/Hangul_F79.bmp","190","image-keyboard-response","381","1020556","0.0-12.0-1.33","test",".","",".","",""
"null","<div style=""color:white; font-size:60px;"">+</div>","null","html-keyboard-response","382","1021562","0.0-12.0-0.34","fixation","","","","",""
"1385.3700000036042","Stimuli/Hangul_M82.bmp","188","image-keyboard-response","383","1022950","0.0-12.0-1.34","test",",","",",","",""
"null","<div style=""color:white; font-size:60px;"">+</div>","null","html-keyboard-response","384","1023954","0.0-12.0-0.35","fixation","","","","",""
"1641.410000011092","Stimuli/Hangul_M95.bmp","188","image-keyboard-response","385","1025597","0.0-12.0-1.35","test",",","",",","",""
"null","<div style=""color:white; font-size:60px;"">+</div>","null","html-keyboard-response","386","1026598","0.0-12.0-0.36","fixation","","","","",""
"1324.905000001192","Stimuli/Hangul_M78.bmp","188","image-keyboard-response","387","1027924","0.0-12.0-1.36","test",",","",",","",""
"null","<div style=""color:white; font-size:60px;"">+</div>","null","html-keyboard-response","388","1028926","0.0-12.0-0.37","fixation","","","","",""
"1561.6000000010245","Stimuli/Hangul_F81.bmp","190","image-keyboard-response","389","1030489","0.0-12.0-1.37","test",".","",".","",""
"null","<div style=""color:white; font-size:60px;"">+</div>","null","html-keyboard-response","390","1031493","0.0-12.0-0.38","fixation","","","","",""
"1414.0500000065658","Stimuli/Hangul_M96.bmp","188","image-keyboard-response","391","1032908","0.0-12.0-1.38","test",",","",",","",""
"null","<div style=""color:white; font-size:60px;"">+</div>","null","html-keyboard-response","392","1033912","0.0-12.0-0.39","fixation","","","","",""
"1378.274999995716","Stimuli/Hangul_F75.bmp","190","image-keyboard-response","393","1035293","0.0-12.0-1.39","test",".","",".","",""
"null","<div style=""color:white; font-size:60px;"">+</div>","null","html-keyboard-response","394","1036294","0.0-12.0-0.40","fixation","","","","",""
"1317.3850000021048","Stimuli/Hangul_M92.bmp","188","image-keyboard-response","395","1037612","0.0-12.0-1.40","test",",","",",","",""
"null","<div style=""color:white; font-size:60px;"">+</div>","null","html-keyboard-response","396","1038617","0.0-12.0-0.41","fixation","","","","",""
"1399.7349999989383","Stimuli/Hangul_F85.bmp","190","image-keyboard-response","397","1040018","0.0-12.0-1.41","test",".","",".","",""
"null","<div style=""color:white; font-size:60px;"">+</div>","null","html-keyboard-response","398","1041019","0.0-12.0-0.42","fixation","","","","",""
"1404.1549999965355","Stimuli/Hangul_F82.bmp","188","image-keyboard-response","399","1042425","0.0-12.0-1.42","test",".","",",","",""
"null","<div style=""color:white; font-size:60px;"">+</div>","null","html-keyboard-response","400","1043426","0.0-12.0-0.43","fixation","","","","",""
"1396.1399999968708","Stimuli/Hangul_F90.bmp","188","image-keyboard-response","401","1044823","0.0-12.0-1.43","test",".","",",","",""
"null","<div style=""color:white; font-size:60px;"">+</div>","null","html-keyboard-response","402","1045825","0.0-12.0-0.44","fixation","","","","",""
"1514.7900000009686","Stimuli/Hangul_M93.bmp","188","image-keyboard-response","403","1047341","0.0-12.0-1.44","test",",","",",","",""
"null","<div style=""color:white; font-size:60px;"">+</div>","null","html-keyboard-response","404","1048344","0.0-12.0-0.45","fixation","","","","",""
"1418.3749999937136","Stimuli/Hangul_F84.bmp","190","image-keyboard-response","405","1049763","0.0-12.0-1.45","test",".","",".","",""
"null","<div style=""color:white; font-size:60px;"">+</div>","null","html-keyboard-response","406","1050767","0.0-12.0-0.46","fixation","","","","",""
"1376.1499999964144","Stimuli/Hangul_F95.bmp","190","image-keyboard-response","407","1052144","0.0-12.0-1.46","test",".","",".","",""
"null","<div style=""color:white; font-size:60px;"">+</div>","null","html-keyboard-response","408","1053151","0.0-12.0-0.47","fixation","","","","",""
"1445.979999989504","Stimuli/Hangul_M91.bmp","188","image-keyboard-response","409","1054598","0.0-12.0-1.47","test",",","",",","",""
"null","<div style=""color:white; font-size:60px;"">+</div>","null","html-keyboard-response","410","1055601","0.0-12.0-0.48","fixation","","","","",""
"1369.855000011623","Stimuli/Hangul_F91.bmp","188","image-keyboard-response","411","1056971","0.0-12.0-1.48","test",".","",",","",""
"null","<div style=""color:white; font-size:60px;"">+</div>","null","html-keyboard-response","412","1057973","0.0-12.0-0.49","fixation","","","","",""
"1396.115000010468","Stimuli/Hangul_F80.bmp","190","image-keyboard-response","413","1059371","0.0-12.0-1.49","test",".","",".","",""
"2709.3450000102166","<p style=""color:white;"">Phase I of the experiment is complete.</p> <p style=""color:white;"">Press the space bar to proceed to Phase II of the experiment.</p> ","32","html-keyboard-response","414","1062082","0.0-13.0","","","","","",""
"7801.615000003949","<p style=""color:white;"">Now we are interested in how well you can predict patterns in the series of figures. You will be asked to predict whether the next figure in the series is more male-like or female-like. When you see the <q>Next Figure</q> prompt, press the corresponding response keys to indicate your prediction: </p><p style=""color:white;""> Male &#8594 <q>,</q> (comma)</p><p style=""color:white;""> Female &#8594 <q>.</q> (period)</p><p style=""color:white;"">The actual figure will then appear on the screen. After you see the figure, please guess the assigned gender with response keys. </p><p style=""color:white;"">As before, you will receive 2 cents for correctly classifying each figure.</p><p style=""color:white;"">Press either response keys to continue.</p>","188","html-keyboard-response","415","1071890","0.0-14.0","","","","","",""
"2227.7150000007823","<p style=""color:white;"">PREDICTION BONUS</p> <p style=""color:white;"">Your prediction accuracy is the total number of correct predictions you make over the 200 trials.</p> <p style=""color:white;"">In addition to the 2 cents per correct figure classification, you have the chance to receive a bonus of 40 dollars IF your accuracy is above average relative to previous participants.</p><p style=""color:white;"">If your accuracy is below average relative to previous participants, then you will not receive the 40 dollar bonus.</p><p style=""color:white;"">Press the space bar to continue.</p>","32","html-keyboard-response","416","1074118","0.0-15.0","","","","","",""
"1290.0950000039302","<p style=""color:white;"">Here are some examples.</p> <p style=""color:white;"">For each, predict whether the next figure looks more male-like or female-like. Then, when the figure appears, guess whether it looks more male-like or female-like and indicate your choice.</p> <p style=""color:white;"">Press the space bar to continue.</p>","32","html-keyboard-response","417","1075410","0.0-16.0","","","","","",""
"473.2799999911804","<p style=""color:white;""> Next Figure: Male or Female? </p>","188","html-keyboard-response","418","1077886","0.0-17.0-0.0","prediction_train","","","",",",""
"null","<div style=""color:white; font-size:60px;"">+</div>","null","html-keyboard-response","419","1078889","0.0-17.0-1.0","fixation","","","","",""
"1458.104999997886","Stimuli/Hangul_E1.bmp","188","image-keyboard-response","420","1080349","0.0-17.0-2.0","c2_train",",","","","",","
"1066.7049999900628","<p style=""color:white;""> Next Figure: Male or Female? </p>","190","html-keyboard-response","421","1081417","0.0-17.0-0.1","prediction_train","","","",".",""
"null","<div style=""color:white; font-size:60px;"">+</div>","null","html-keyboard-response","422","1082418","0.0-17.0-1.1","fixation","","","","",""
"1664.9249999900348","Stimuli/Hangul_E0.bmp","188","image-keyboard-response","423","1084084","0.0-17.0-2.1","c2_train",",","","","",","
"798.5599999958649","<p style=""color:white;""> Next Figure: Male or Female? </p>","188","html-keyboard-response","424","1084885","0.0-17.0-0.2","prediction_train","","","",",",""
"null","<div style=""color:white; font-size:60px;"">+</div>","null","html-keyboard-response","425","1085887","0.0-17.0-1.2","fixation","","","","",""
"1435.7850000087637","Stimuli/Hangul_E2.bmp","190","image-keyboard-response","426","1087324","0.0-17.0-2.2","c2_train",".","","","","."
"1732.5699999928474","<p style=""color:white;"">Let us begin! Press the space bar when you are ready to start block 1 of 4.</p> ","32","html-keyboard-response","427","1089058","0.0-18.0","","","","","",""
"1088.6049999971874","<p style=""color:white;""> Next Figure: Male or Female? </p>","188","html-keyboard-response","428","1092150","0.0-19.0-0.0","prediction","","","",",",""
"null","<div style=""color:white; font-size:60px;"">+</div>","null","html-keyboard-response","429","1093155","0.0-19.0-1.0","fixation","","","","",""
"1389.7200000062585","Stimuli/Hangul_M0.bmp","188","image-keyboard-response","430","1094546","0.0-19.0-2.0","c2_test",",","","","",","
"620.1350000046659","<p style=""color:white;""> Next Figure: Male or Female? </p>","188","html-keyboard-response","431","1095167","0.0-19.0-0.1","prediction","","","",",",""
"null","<div style=""color:white; font-size:60px;"">+</div>","null","html-keyboard-response","432","1096169","0.0-19.0-1.1","fixation","","","","",""
"1435.775000005262","Stimuli/Hangul_M3.bmp","188","image-keyboard-response","433","1097607","0.0-19.0-2.1","c2_test",",","","","",","
"358.8400000007823","<p style=""color:white;""> Next Figure: Male or Female? </p>","188","html-keyboard-response","434","1097967","0.0-19.0-0.2","prediction","","","",",",""
"null","<div style=""color:white; font-size:60px;"">+</div>","null","html-keyboard-response","435","1098968","0.0-19.0-1.2","fixation","","","","",""
"1539.5350000034086","Stimuli/Hangul_F11.bmp","188","image-keyboard-response","436","1100508","0.0-19.0-2.2","c2_test",".","","","",","
"1068.769999998156","<p style=""color:white;""> Next Figure: Male or Female? </p>","188","html-keyboard-response","437","1101579","0.0-19.0-0.3","prediction","","","",",",""
"null","<div style=""color:white; font-size:60px;"">+</div>","null","html-keyboard-response","438","1102583","0.0-19.0-1.3","fixation","","","","",""
"1322.6149999971967","Stimuli/Hangul_M11.bmp","188","image-keyboard-response","439","1103907","0.0-19.0-2.3","c2_test",",","","","",","
"537.9300000057556","<p style=""color:white;""> Next Figure: Male or Female? </p>","190","html-keyboard-response","440","1104446","0.0-19.0-0.4","prediction","","","",".",""
"null","<div style=""color:white; font-size:60px;"">+</div>","null","html-keyboard-response","441","1105449","0.0-19.0-1.4","fixation","","","","",""
"1631.3000000081956","Stimuli/Hangul_M15.bmp","188","image-keyboard-response","442","1107082","0.0-19.0-2.4","c2_test",",","","","",","
"659.574999997858","<p style=""color:white;""> Next Figure: Male or Female? </p>","188","html-keyboard-response","443","1107743","0.0-19.0-0.5","prediction","","","",",",""
"null","<div style=""color:white; font-size:60px;"">+</div>","null","html-keyboard-response","444","1108744","0.0-19.0-1.5","fixation","","","","",""
"1416.779999999795","Stimuli/Hangul_F23.bmp","188","image-keyboard-response","445","1110162","0.0-19.0-2.5","c2_test",".","","","",","
"436.3100000047125","<p style=""color:white;""> Next Figure: Male or Female? </p>","190","html-keyboard-response","446","1110599","0.0-19.0-0.6","prediction","","","",".",""
"null","<div style=""color:white; font-size:60px;"">+</div>","null","html-keyboard-response","447","1111600","0.0-19.0-1.6","fixation","","","","",""
"2238.4799999999814","Stimuli/Hangul_F20.bmp","188","image-keyboard-response","448","1113841","0.0-19.0-2.6","c2_test",".","","","",","
"527.6149999990594","<p style=""color:white;""> Next Figure: Male or Female? </p>","188","html-keyboard-response","449","1114369","0.0-19.0-0.7","prediction","","","",",",""
"null","<div style=""color:white; font-size:60px;"">+</div>","null","html-keyboard-response","450","1115372","0.0-19.0-1.7","fixation","","","","",""
"1359.375","Stimuli/Hangul_F24.bmp","188","image-keyboard-response","451","1116733","0.0-19.0-2.7","c2_test",".","","","",","
"2598.87500001071","<p style=""color:white;""> Next Figure: Male or Female? </p>","190","html-keyboard-response","452","1119333","0.0-19.0-0.8","prediction","","","",".",""
"null","<div style=""color:white; font-size:60px;"">+</div>","null","html-keyboard-response","453","1120338","0.0-19.0-1.8","fixation","","","","",""
"2118.190000008326","Stimuli/Hangul_M21.bmp","188","image-keyboard-response","454","1122458","0.0-19.0-2.8","c2_test",",","","","",","
"618.0949999981094","<p style=""color:white;""> Next Figure: Male or Female? </p>","188","html-keyboard-response","455","1123077","0.0-19.0-0.9","prediction","","","",",",""
"null","<div style=""color:white; font-size:60px;"">+</div>","null","html-keyboard-response","456","1124083","0.0-19.0-1.9","fixation","","","","",""
"1557.3099999891128","Stimuli/Hangul_M5.bmp","188","image-keyboard-response","457","1125642","0.0-19.0-2.9","c2_test",",","","","",","
"718.065000008326","<p style=""color:white;""> Next Figure: Male or Female? </p>","188","html-keyboard-response","458","1126361","0.0-19.0-0.10","prediction","","","",",",""
"null","<div style=""color:white; font-size:60px;"">+</div>","null","html-keyboard-response","459","1127366","0.0-19.0-1.10","fixation","","","","",""
"2575.0699999916833","Stimuli/Hangul_M6.bmp","190","image-keyboard-response","460","1129942","0.0-19.0-2.10","c2_test",",","","","","."
"693.5300000042189","<p style=""color:white;""> Next Figure: Male or Female? </p>","190","html-keyboard-response","461","1130636","0.0-19.0-0.11","prediction","","","",".",""
"null","<div style=""color:white; font-size:60px;"">+</div>","null","html-keyboard-response","462","1131640","0.0-19.0-1.11","fixation","","","","",""
"1919.4900000002235","Stimuli/Hangul_F17.bmp","188","image-keyboard-response","463","1133562","0.0-19.0-2.11","c2_test",".","","","",","
"944.7999999974854","<p style=""color:white;""> Next Figure: Male or Female? </p>","188","html-keyboard-response","464","1134507","0.0-19.0-0.12","prediction","","","",",",""
"null","<div style=""color:white; font-size:60px;"">+</div>","null","html-keyboard-response","465","1135512","0.0-19.0-1.12","fixation","","","","",""
"1828.4899999999907","Stimuli/Hangul_F0.bmp","188","image-keyboard-response","466","1137342","0.0-19.0-2.12","c2_test",".","","","",","
"1190.9799999992829","<p style=""color:white;""> Next Figure: Male or Female? </p>","190","html-keyboard-response","467","1138534","0.0-19.0-0.13","prediction","","","",".",""
"null","<div style=""color:white; font-size:60px;"">+</div>","null","html-keyboard-response","468","1139540","0.0-19.0-1.13","fixation","","","","",""
"2236.1100000126753","Stimuli/Hangul_M1.bmp","188","image-keyboard-response","469","1141778","0.0-19.0-2.13","c2_test",",","","","",","
"622.4449999863282","<p style=""color:white;""> Next Figure: Male or Female? </p>","188","html-keyboard-response","470","1142403","0.0-19.0-0.14","prediction","","","",",",""
"null","<div style=""color:white; font-size:60px;"">+</div>","null","html-keyboard-response","471","1143405","0.0-19.0-1.14","fixation","","","","",""
"1629.9250000012107","Stimuli/Hangul_F13.bmp","188","image-keyboard-response","472","1145036","0.0-19.0-2.14","c2_test",".","","","",","
"416.63000000687316","<p style=""color:white;""> Next Figure: Male or Female? </p>","188","html-keyboard-response","473","1145454","0.0-19.0-0.15","prediction","","","",",",""
"null","<div style=""color:white; font-size:60px;"">+</div>","null","html-keyboard-response","474","1146459","0.0-19.0-1.15","fixation","","","","",""
"1613.464999987511","Stimuli/Hangul_M13.bmp","188","image-keyboard-response","475","1148074","0.0-19.0-2.15","c2_test",",","","","",","
"426.46499999659136","<p style=""color:white;""> Next Figure: Male or Female? </p>","188","html-keyboard-response","476","1148501","0.0-19.0-0.16","prediction","","","",",",""
"null","<div style=""color:white; font-size:60px;"">+</div>","null","html-keyboard-response","477","1149504","0.0-19.0-1.16","fixation","","","","",""
"2068.3250000001863","Stimuli/Hangul_M17.bmp","188","image-keyboard-response","478","1151574","0.0-19.0-2.16","c2_test",",","","","",","
"450.3850000035018","<p style=""color:white;""> Next Figure: Male or Female? </p>","188","html-keyboard-response","479","1152025","0.0-19.0-0.17","prediction","","","",",",""
"null","<div style=""color:white; font-size:60px;"">+</div>","null","html-keyboard-response","480","1153029","0.0-19.0-1.17","fixation","","","","",""
"1590.355000007432","Stimuli/Hangul_M18.bmp","188","image-keyboard-response","481","1154621","0.0-19.0-2.17","c2_test",",","","","",","
"414.99999999348074","<p style=""color:white;""> Next Figure: Male or Female? </p>","188","html-keyboard-response","482","1155038","0.0-19.0-0.18","prediction","","","",",",""
"null","<div style=""color:white; font-size:60px;"">+</div>","null","html-keyboard-response","483","1156043","0.0-19.0-1.18","fixation","","","","",""
"1591.5950000053272","Stimuli/Hangul_F1.bmp","190","image-keyboard-response","484","1157636","0.0-19.0-2.18","c2_test",".","","","","."
"426.7400000100024","<p style=""color:white;""> Next Figure: Male or Female? </p>","190","html-keyboard-response","485","1158064","0.0-19.0-0.19","prediction","","","",".",""
"null","<div style=""color:white; font-size:60px;"">+</div>","null","html-keyboard-response","486","1159072","0.0-19.0-1.19","fixation","","","","",""
"1341.8749999981374","Stimuli/Hangul_F4.bmp","190","image-keyboard-response","487","1160415","0.0-19.0-2.19","c2_test",".","","","","."
"280.75499999988824","<p style=""color:white;""> Next Figure: Male or Female? </p>","190","html-keyboard-response","488","1160697","0.0-19.0-0.20","prediction","","","",".",""
"null","<div style=""color:white; font-size:60px;"">+</div>","null","html-keyboard-response","489","1161698","0.0-19.0-1.20","fixation","","","","",""
"2273.984999992419","Stimuli/Hangul_F7.bmp","188","image-keyboard-response","490","1163974","0.0-19.0-2.20","c2_test",".","","","",","
"1345.5650000106543","<p style=""color:white;""> Next Figure: Male or Female? </p>","190","html-keyboard-response","491","1165321","0.0-19.0-0.21","prediction","","","",".",""
"null","<div style=""color:white; font-size:60px;"">+</div>","null","html-keyboard-response","492","1166322","0.0-19.0-1.21","fixation","","","","",""
"4712.650000001304","Stimuli/Hangul_F6.bmp","190","image-keyboard-response","493","1171037","0.0-19.0-2.21","c2_test",".","","","","."
"594.064999997383","<p style=""color:white;""> Next Figure: Male or Female? </p>","188","html-keyboard-response","494","1171632","0.0-19.0-0.22","prediction","","","",",",""
"null","<div style=""color:white; font-size:60px;"">+</div>","null","html-keyboard-response","495","1172638","0.0-19.0-1.22","fixation","","","","",""
"1562.2549999970943","Stimuli/Hangul_F14.bmp","190","image-keyboard-response","496","1174201","0.0-19.0-2.22","c2_test",".","","","","."
"468.4700000071898","<p style=""color:white;""> Next Figure: Male or Female? </p>","190","html-keyboard-response","497","1174671","0.0-19.0-0.23","prediction","","","",".",""
"null","<div style=""color:white; font-size:60px;"">+</div>","null","html-keyboard-response","498","1175677","0.0-19.0-1.23","fixation","","","","",""
"1545.3149999957532","Stimuli/Hangul_M9.bmp","188","image-keyboard-response","499","1177224","0.0-19.0-2.23","c2_test",",","","","",","
"391.30000000307336","<p style=""color:white;""> Next Figure: Male or Female? </p>","188","html-keyboard-response","500","1177617","0.0-19.0-0.24","prediction","","","",",",""
"null","<div style=""color:white; font-size:60px;"">+</div>","null","html-keyboard-response","501","1178618","0.0-19.0-1.24","fixation","","","","",""
"1393.5599999967963","Stimuli/Hangul_F21.bmp","188","image-keyboard-response","502","1180013","0.0-19.0-2.24","c2_test",".","","","",","
"1281.5750000011176","<p style=""color:white;""> Next Figure: Male or Female? </p>","188","html-keyboard-response","503","1181296","0.0-19.0-0.25","prediction","","","",",",""
"null","<div style=""color:white; font-size:60px;"">+</div>","null","html-keyboard-response","504","1182298","0.0-19.0-1.25","fixation","","","","",""
"1267.9099999950267","Stimuli/Hangul_F18.bmp","190","image-keyboard-response","505","1183568","0.0-19.0-2.25","c2_test",".","","","","."
"460.80499999504536","<p style=""color:white;""> Next Figure: Male or Female? </p>","190","html-keyboard-response","506","1184030","0.0-19.0-0.26","prediction","","","",".",""
"null","<div style=""color:white; font-size:60px;"">+</div>","null","html-keyboard-response","507","1185033","0.0-19.0-1.26","fixation","","","","",""
"2046.635000006063","Stimuli/Hangul_F22.bmp","190","image-keyboard-response","508","1187080","0.0-19.0-2.26","c2_test",".","","","","."
"413.0750000041444","<p style=""color:white;""> Next Figure: Male or Female? </p>","190","html-keyboard-response","509","1187494","0.0-19.0-0.27","prediction","","","",".",""
"null","<div style=""color:white; font-size:60px;"">+</div>","null","html-keyboard-response","510","1188496","0.0-19.0-1.27","fixation","","","","",""
"1933.2750000031665","Stimuli/Hangul_F2.bmp","188","image-keyboard-response","511","1190431","0.0-19.0-2.27","c2_test",".","","","",","
"403.90499999932945","<p style=""color:white;""> Next Figure: Male or Female? </p>","188","html-keyboard-response","512","1190836","0.0-19.0-0.28","prediction","","","",",",""
"null","<div style=""color:white; font-size:60px;"">+</div>","null","html-keyboard-response","513","1191838","0.0-19.0-1.28","fixation","","","","",""
"1460.6700000003912","Stimuli/Hangul_M7.bmp","188","image-keyboard-response","514","1193300","0.0-19.0-2.28","c2_test",",","","","",","
"336.179999998305","<p style=""color:white;""> Next Figure: Male or Female? </p>","188","html-keyboard-response","515","1193637","0.0-19.0-0.29","prediction","","","",",",""
"null","<div style=""color:white; font-size:60px;"">+</div>","null","html-keyboard-response","516","1194641","0.0-19.0-1.29","fixation","","","","",""
"1896.4500000001863","Stimuli/Hangul_F19.bmp","188","image-keyboard-response","517","1196540","0.0-19.0-2.29","c2_test",".","","","",","
"551.804999995511","<p style=""color:white;""> Next Figure: Male or Female? </p>","188","html-keyboard-response","518","1197093","0.0-19.0-0.30","prediction","","","",",",""
"null","<div style=""color:white; font-size:60px;"">+</div>","null","html-keyboard-response","519","1198095","0.0-19.0-1.30","fixation","","","","",""
"1627.3099999960978","Stimuli/Hangul_F16.bmp","188","image-keyboard-response","520","1199724","0.0-19.0-2.30","c2_test",".","","","",","
"290.5999999931082","<p style=""color:white;""> Next Figure: Male or Female? </p>","188","html-keyboard-response","521","1200016","0.0-19.0-0.31","prediction","","","",",",""
"null","<div style=""color:white; font-size:60px;"">+</div>","null","html-keyboard-response","522","1201018","0.0-19.0-1.31","fixation","","","","",""
"1517.284999994561","Stimuli/Hangul_M12.bmp","188","image-keyboard-response","523","1202536","0.0-19.0-2.31","c2_test",",","","","",","
"1112.6550000044517","<p style=""color:white;""> Next Figure: Male or Female? </p>","188","html-keyboard-response","524","1203650","0.0-19.0-0.32","prediction","","","",",",""
"null","<div style=""color:white; font-size:60px;"">+</div>","null","html-keyboard-response","525","1204652","0.0-19.0-1.32","fixation","","","","",""
"3048.4599999908824","Stimuli/Hangul_M24.bmp","188","image-keyboard-response","526","1207702","0.0-19.0-2.32","c2_test",",","","","",","
"389.9999999993015","<p style=""color:white;""> Next Figure: Male or Female? </p>","190","html-keyboard-response","527","1208093","0.0-19.0-0.33","prediction","","","",".",""
"null","<div style=""color:white; font-size:60px;"">+</div>","null","html-keyboard-response","528","1209096","0.0-19.0-1.33","fixation","","","","",""
"2235.3900000015274","Stimuli/Hangul_M16.bmp","188","image-keyboard-response","529","1211333","0.0-19.0-2.33","c2_test",",","","","",","
"775.0649999943562","<p style=""color:white;""> Next Figure: Male or Female? </p>","190","html-keyboard-response","530","1212109","0.0-19.0-0.34","prediction","","","",".",""
"null","<div style=""color:white; font-size:60px;"">+</div>","null","html-keyboard-response","531","1213111","0.0-19.0-1.34","fixation","","","","",""
"2281.9799999995157","Stimuli/Hangul_M4.bmp","190","image-keyboard-response","532","1215395","0.0-19.0-2.34","c2_test",",","","","","."
"369.5999999907799","<p style=""color:white;""> Next Figure: Male or Female? </p>","190","html-keyboard-response","533","1215766","0.0-19.0-0.35","prediction","","","",".",""
"null","<div style=""color:white; font-size:60px;"">+</div>","null","html-keyboard-response","534","1216773","0.0-19.0-1.35","fixation","","","","",""
"1312.5800000126474","Stimuli/Hangul_F8.bmp","190","image-keyboard-response","535","1218087","0.0-19.0-2.35","c2_test",".","","","","."
"333.15500000026077","<p style=""color:white;""> Next Figure: Male or Female? </p>","190","html-keyboard-response","536","1218421","0.0-19.0-0.36","prediction","","","",".",""
"null","<div style=""color:white; font-size:60px;"">+</div>","null","html-keyboard-response","537","1219423","0.0-19.0-1.36","fixation","","","","",""
"1673.595000000205","Stimuli/Hangul_F5.bmp","188","image-keyboard-response","538","1221098","0.0-19.0-2.36","c2_test",".","","","",","
"371.06499999947846","<p style=""color:white;""> Next Figure: Male or Female? </p>","188","html-keyboard-response","539","1221470","0.0-19.0-0.37","prediction","","","",",",""
"null","<div style=""color:white; font-size:60px;"">+</div>","null","html-keyboard-response","540","1222477","0.0-19.0-1.37","fixation","","","","",""
"1848.8350000116043","Stimuli/Hangul_M8.bmp","188","image-keyboard-response","541","1224328","0.0-19.0-2.37","c2_test",",","","","",","
"325.54499999969266","<p style=""color:white;""> Next Figure: Male or Female? </p>","188","html-keyboard-response","542","1224654","0.0-19.0-0.38","prediction","","","",",",""
"null","<div style=""color:white; font-size:60px;"">+</div>","null","html-keyboard-response","543","1225659","0.0-19.0-1.38","fixation","","","","",""
"3799.170000012964","Stimuli/Hangul_F15.bmp","190","image-keyboard-response","544","1229460","0.0-19.0-2.38","c2_test",".","","","","."
"559.0350000131875","<p style=""color:white;""> Next Figure: Male or Female? </p>","190","html-keyboard-response","545","1230020","0.0-19.0-0.39","prediction","","","",".",""
"null","<div style=""color:white; font-size:60px;"">+</div>","null","html-keyboard-response","546","1231022","0.0-19.0-1.39","fixation","","","","",""
"2180.124999998836","Stimuli/Hangul_M10.bmp","188","image-keyboard-response","547","1233203","0.0-19.0-2.39","c2_test",",","","","",","
"415.70000001229346","<p style=""color:white;""> Next Figure: Male or Female? </p>","188","html-keyboard-response","548","1233620","0.0-19.0-0.40","prediction","","","",",",""
"null","<div style=""color:white; font-size:60px;"">+</div>","null","html-keyboard-response","549","1234622","0.0-19.0-1.40","fixation","","","","",""
"1696.790000001667","Stimuli/Hangul_F9.bmp","188","image-keyboard-response","550","1236320","0.0-19.0-2.40","c2_test",".","","","",","
"313.970000002766","<p style=""color:white;""> Next Figure: Male or Female? </p>","188","html-keyboard-response","551","1236635","0.0-19.0-0.41","prediction","","","",",",""
"null","<div style=""color:white; font-size:60px;"">+</div>","null","html-keyboard-response","552","1237637","0.0-19.0-1.41","fixation","","","","",""
"1629.6799999980722","Stimuli/Hangul_M2.bmp","188","image-keyboard-response","553","1239268","0.0-19.0-2.41","c2_test",",","","","",","
"293.10500000440516","<p style=""color:white;""> Next Figure: Male or Female? </p>","188","html-keyboard-response","554","1239562","0.0-19.0-0.42","prediction","","","",",",""
"null","<div style=""color:white; font-size:60px;"">+</div>","null","html-keyboard-response","555","1240566","0.0-19.0-1.42","fixation","","","","",""
"2278.834999989951","Stimuli/Hangul_F12.bmp","190","image-keyboard-response","556","1242846","0.0-19.0-2.42","c2_test",".","","","","."
"335.54000000003725","<p style=""color:white;""> Next Figure: Male or Female? </p>","190","html-keyboard-response","557","1243183","0.0-19.0-0.43","prediction","","","",".",""
"null","<div style=""color:white; font-size:60px;"">+</div>","null","html-keyboard-response","558","1244186","0.0-19.0-1.43","fixation","","","","",""
"2190.854999993462","Stimuli/Hangul_M14.bmp","190","image-keyboard-response","559","1246378","0.0-19.0-2.43","c2_test",",","","","","."
"291.5199999988545","<p style=""color:white;""> Next Figure: Male or Female? </p>","190","html-keyboard-response","560","1246671","0.0-19.0-0.44","prediction","","","",".",""
"null","<div style=""color:white; font-size:60px;"">+</div>","null","html-keyboard-response","561","1247677","0.0-19.0-1.44","fixation","","","","",""
"1545.1100000063889","Stimuli/Hangul_M23.bmp","190","image-keyboard-response","562","1249224","0.0-19.0-2.44","c2_test",",","","","","."
"257.0500000002794","<p style=""color:white;""> Next Figure: Male or Female? </p>","190","html-keyboard-response","563","1249483","0.0-19.0-0.45","prediction","","","",".",""
"null","<div style=""color:white; font-size:60px;"">+</div>","null","html-keyboard-response","564","1250486","0.0-19.0-1.45","fixation","","","","",""
"1743.3049999964423","Stimuli/Hangul_M20.bmp","188","image-keyboard-response","565","1252230","0.0-19.0-2.45","c2_test",",","","","",","
"357.06500000390224","<p style=""color:white;""> Next Figure: Male or Female? </p>","188","html-keyboard-response","566","1252588","0.0-19.0-0.46","prediction","","","",",",""
"null","<div style=""color:white; font-size:60px;"">+</div>","null","html-keyboard-response","567","1253592","0.0-19.0-1.46","fixation","","","","",""
"1469.2050000012387","Stimuli/Hangul_F10.bmp","190","image-keyboard-response","568","1255062","0.0-19.0-2.46","c2_test",".","","","","."
"370.1300000101328","<p style=""color:white;""> Next Figure: Male or Female? </p>","190","html-keyboard-response","569","1255433","0.0-19.0-0.47","prediction","","","",".",""
"null","<div style=""color:white; font-size:60px;"">+</div>","null","html-keyboard-response","570","1256437","0.0-19.0-1.47","fixation","","","","",""
"2427.1399999996647","Stimuli/Hangul_M22.bmp","190","image-keyboard-response","571","1258865","0.0-19.0-2.47","c2_test",",","","","","."
"369.55499999737367","<p style=""color:white;""> Next Figure: Male or Female? </p>","190","html-keyboard-response","572","1259236","0.0-19.0-0.48","prediction","","","",".",""
"null","<div style=""color:white; font-size:60px;"">+</div>","null","html-keyboard-response","573","1260237","0.0-19.0-1.48","fixation","","","","",""
"2149.204999994021","Stimuli/Hangul_F3.bmp","188","image-keyboard-response","574","1262388","0.0-19.0-2.48","c2_test",".","","","",","
"391.13000000361353","<p style=""color:white;""> Next Figure: Male or Female? </p>","188","html-keyboard-response","575","1262781","0.0-19.0-0.49","prediction","","","",",",""
"null","<div style=""color:white; font-size:60px;"">+</div>","null","html-keyboard-response","576","1263783","0.0-19.0-1.49","fixation","","","","",""
"1922.2799999988638","Stimuli/Hangul_M19.bmp","188","image-keyboard-response","577","1265707","0.0-19.0-2.49","c2_test",",","","","",","
"131408.80499999924","<p style=""color:white;"">Good job, block 1 complete! Please take a moment to rest.</p> <p style=""color:white;"">When you are ready to continue with block 2 of 4, press the space bar.</p> ","32","html-keyboard-response","578","1397116","0.0-20.0","","","","","",""
"889.484999992419","<p style=""color:white;""> Next Figure: Male or Female? </p>","190","html-keyboard-response","579","1400011","0.0-21.0-0.0","prediction","","","",".",""
"null","<div style=""color:white; font-size:60px;"">+</div>","null","html-keyboard-response","580","1401014","0.0-21.0-1.0","fixation","","","","",""
"1839.1699999920093","Stimuli/Hangul_M28.bmp","188","image-keyboard-response","581","1402854","0.0-21.0-2.0","c2_test",",","","","",","
"481.8200000007637","<p style=""color:white;""> Next Figure: Male or Female? </p>","188","html-keyboard-response","582","1403337","0.0-21.0-0.1","prediction","","","",",",""
"null","<div style=""color:white; font-size:60px;"">+</div>","null","html-keyboard-response","583","1404341","0.0-21.0-1.1","fixation","","","","",""
"1842.0600000098348","Stimuli/Hangul_F46.bmp","188","image-keyboard-response","584","1406184","0.0-21.0-2.1","c2_test",".","","","",","
"247.38000000081956","<p style=""color:white;""> Next Figure: Male or Female? </p>","188","html-keyboard-response","585","1406432","0.0-21.0-0.2","prediction","","","",",",""
"null","<div style=""color:white; font-size:60px;"">+</div>","null","html-keyboard-response","586","1407437","0.0-21.0-1.2","fixation","","","","",""
"1615.390000006184","Stimuli/Hangul_M44.bmp","188","image-keyboard-response","587","1409054","0.0-21.0-2.2","c2_test",",","","","",","
"289.1399999933783","<p style=""color:white;""> Next Figure: Male or Female? </p>","188","html-keyboard-response","588","1409345","0.0-21.0-0.3","prediction","","","",",",""
"null","<div style=""color:white; font-size:60px;"">+</div>","null","html-keyboard-response","589","1410351","0.0-21.0-1.3","fixation","","","","",""
"1933.2999999895692","Stimuli/Hangul_M48.bmp","188","image-keyboard-response","590","1412285","0.0-21.0-2.3","c2_test",",","","","",","
"232.9500000050757","<p style=""color:white;""> Next Figure: Male or Female? </p>","188","html-keyboard-response","591","1412519","0.0-21.0-0.4","prediction","","","",",",""
"null","<div style=""color:white; font-size:60px;"">+</div>","null","html-keyboard-response","592","1413521","0.0-21.0-1.4","fixation","","","","",""
"1427.5550000020303","Stimuli/Hangul_F34.bmp","190","image-keyboard-response","593","1414950","0.0-21.0-2.4","c2_test",".","","","","."
"425.6950000128709","<p style=""color:white;""> Next Figure: Male or Female? </p>","190","html-keyboard-response","594","1415377","0.0-21.0-0.5","prediction","","","",".",""
"null","<div style=""color:white; font-size:60px;"">+</div>","null","html-keyboard-response","595","1416380","0.0-21.0-1.5","fixation","","","","",""
"1592.6299999994226","Stimuli/Hangul_M36.bmp","188","image-keyboard-response","596","1417975","0.0-21.0-2.5","c2_test",",","","","",","
"279.5650000041351","<p style=""color:white;""> Next Figure: Male or Female? </p>","188","html-keyboard-response","597","1418256","0.0-21.0-0.6","prediction","","","",",",""
"null","<div style=""color:white; font-size:60px;"">+</div>","null","html-keyboard-response","598","1419263","0.0-21.0-1.6","fixation","","","","",""
"1590.704999995185","Stimuli/Hangul_M42.bmp","188","image-keyboard-response","599","1420856","0.0-21.0-2.6","c2_test",",","","","",","
"230.16999999526888","<p style=""color:white;""> Next Figure: Male or Female? </p>","188","html-keyboard-response","600","1421091","0.0-21.0-0.7","prediction","","","",",",""
"null","<div style=""color:white; font-size:60px;"">+</div>","null","html-keyboard-response","601","1422094","0.0-21.0-1.7","fixation","","","","",""
"1486.4649999944959","Stimuli/Hangul_F37.bmp","190","image-keyboard-response","602","1423581","0.0-21.0-2.7","c2_test",".","","","","."
"367.3750000016298","<p style=""color:white;""> Next Figure: Male or Female? </p>","190","html-keyboard-response","603","1423950","0.0-21.0-0.8","prediction","","","",".",""
"null","<div style=""color:white; font-size:60px;"">+</div>","null","html-keyboard-response","604","1424952","0.0-21.0-1.8","fixation","","","","",""
"1605.4949999963865","Stimuli/Hangul_F45.bmp","188","image-keyboard-response","605","1426559","0.0-21.0-2.8","c2_test",".","","","",","
"583.089999999851","<p style=""color:white;""> Next Figure: Male or Female? </p>","188","html-keyboard-response","606","1427143","0.0-21.0-0.9","prediction","","","",",",""
"null","<div style=""color:white; font-size:60px;"">+</div>","null","html-keyboard-response","607","1428147","0.0-21.0-1.9","fixation","","","","",""
"1607.0849999960046","Stimuli/Hangul_M47.bmp","188","image-keyboard-response","608","1429755","0.0-21.0-2.9","c2_test",",","","","",","
"288.9849999919534","<p style=""color:white;""> Next Figure: Male or Female? </p>","188","html-keyboard-response","609","1430046","0.0-21.0-0.10","prediction","","","",",",""
"null","<div style=""color:white; font-size:60px;"">+</div>","null","html-keyboard-response","610","1431050","0.0-21.0-1.10","fixation","","","","",""
"1390.650000001071","Stimuli/Hangul_M38.bmp","188","image-keyboard-response","611","1432443","0.0-21.0-2.10","c2_test",",","","","",","
"225.17499999981374","<p style=""color:white;""> Next Figure: Male or Female? </p>","188","html-keyboard-response","612","1432669","0.0-21.0-0.11","prediction","","","",",",""
"null","<div style=""color:white; font-size:60px;"">+</div>","null","html-keyboard-response","613","1433674","0.0-21.0-1.11","fixation","","","","",""
"1624.9950000056997","Stimuli/Hangul_M40.bmp","188","image-keyboard-response","614","1435300","0.0-21.0-2.11","c2_test",",","","","",","
"212.44000000320375","<p style=""color:white;""> Next Figure: Male or Female? </p>","188","html-keyboard-response","615","1435514","0.0-21.0-0.12","prediction","","","",",",""
"null","<div style=""color:white; font-size:60px;"">+</div>","null","html-keyboard-response","616","1436516","0.0-21.0-1.12","fixation","","","","",""
"1808.1999999997206","Stimuli/Hangul_F48.bmp","188","image-keyboard-response","617","1438325","0.0-21.0-2.12","c2_test",".","","","",","
"248.04500000015832","<p style=""color:white;""> Next Figure: Male or Female? </p>","188","html-keyboard-response","618","1438574","0.0-21.0-0.13","prediction","","","",",",""
"null","<div style=""color:white; font-size:60px;"">+</div>","null","html-keyboard-response","619","1439579","0.0-21.0-1.13","fixation","","","","",""
"1545.7400000011548","Stimuli/Hangul_F35.bmp","190","image-keyboard-response","620","1441127","0.0-21.0-2.13","c2_test",".","","","","."
"292.3800000133924","<p style=""color:white;""> Next Figure: Male or Female? </p>","190","html-keyboard-response","621","1441420","0.0-21.0-0.14","prediction","","","",".",""
"null","<div style=""color:white; font-size:60px;"">+</div>","null","html-keyboard-response","622","1442422","0.0-21.0-1.14","fixation","","","","",""
"1494.960000010673","Stimuli/Hangul_M26.bmp","188","image-keyboard-response","623","1443918","0.0-21.0-2.14","c2_test",",","","","",","
"842.250000001397","<p style=""color:white;""> Next Figure: Male or Female? </p>","188","html-keyboard-response","624","1444761","0.0-21.0-0.15","prediction","","","",",",""
"null","<div style=""color:white; font-size:60px;"">+</div>","null","html-keyboard-response","625","1445764","0.0-21.0-1.15","fixation","","","","",""
"1709.260000003269","Stimuli/Hangul_M41.bmp","188","image-keyboard-response","626","1447475","0.0-21.0-2.15","c2_test",",","","","",","
"231.78499999642372","<p style=""color:white;""> Next Figure: Male or Female? </p>","188","html-keyboard-response","627","1447707","0.0-21.0-0.16","prediction","","","",",",""
"null","<div style=""color:white; font-size:60px;"">+</div>","null","html-keyboard-response","628","1448712","0.0-21.0-1.16","fixation","","","","",""
"1583.4150000009686","Stimuli/Hangul_F49.bmp","188","image-keyboard-response","629","1450296","0.0-21.0-2.16","c2_test",".","","","",","
"335.9599999967031","<p style=""color:white;""> Next Figure: Male or Female? </p>","188","html-keyboard-response","630","1450634","0.0-21.0-0.17","prediction","","","",",",""
"null","<div style=""color:white; font-size:60px;"">+</div>","null","html-keyboard-response","631","1451638","0.0-21.0-1.17","fixation","","","","",""
"1592.8100000019185","Stimuli/Hangul_F27.bmp","188","image-keyboard-response","632","1453232","0.0-21.0-2.17","c2_test",".","","","",","
"280.0149999966379","<p style=""color:white;""> Next Figure: Male or Female? </p>","188","html-keyboard-response","633","1453513","0.0-21.0-0.18","prediction","","","",",",""
"null","<div style=""color:white; font-size:60px;"">+</div>","null","html-keyboard-response","634","1454516","0.0-21.0-1.18","fixation","","","","",""
"1540.0400000070222","Stimuli/Hangul_F32.bmp","190","image-keyboard-response","635","1456056","0.0-21.0-2.18","c2_test",".","","","","."
"369.92000001179986","<p style=""color:white;""> Next Figure: Male or Female? </p>","190","html-keyboard-response","636","1456428","0.0-21.0-0.19","prediction","","","",".",""
"null","<div style=""color:white; font-size:60px;"">+</div>","null","html-keyboard-response","637","1457430","0.0-21.0-1.19","fixation","","","","",""
"1710.0950000020675","Stimuli/Hangul_F28.bmp","190","image-keyboard-response","638","1459141","0.0-21.0-2.19","c2_test",".","","","","."
"322.8999999994412","<p style=""color:white;""> Next Figure: Male or Female? </p>","190","html-keyboard-response","639","1459465","0.0-21.0-0.20","prediction","","","",".",""
"null","<div style=""color:white; font-size:60px;"">+</div>","null","html-keyboard-response","640","1460472","0.0-21.0-1.20","fixation","","","","",""
"2535.455000004731","Stimuli/Hangul_F41.bmp","190","image-keyboard-response","641","1463009","0.0-21.0-2.20","c2_test",".","","","","."
"290.62499999441206","<p style=""color:white;""> Next Figure: Male or Female? </p>","190","html-keyboard-response","642","1463301","0.0-21.0-0.21","prediction","","","",".",""
"null","<div style=""color:white; font-size:60px;"">+</div>","null","html-keyboard-response","643","1464303","0.0-21.0-1.21","fixation","","","","",""
"2203.4050000074785","Stimuli/Hangul_M31.bmp","188","image-keyboard-response","644","1466508","0.0-21.0-2.21","c2_test",",","","","",","
"23906.365000002552","<p style=""color:white;""> Next Figure: Male or Female? </p>","188","html-keyboard-response","645","1490415","0.0-21.0-0.22","prediction","","","",",",""
"null","<div style=""color:white; font-size:60px;"">+</div>","null","html-keyboard-response","646","1491420","0.0-21.0-1.22","fixation","","","","",""
"2175.185000000056","Stimuli/Hangul_M43.bmp","190","image-keyboard-response","647","1493597","0.0-21.0-2.22","c2_test",",","","","","."
"370.9249999956228","<p style=""color:white;""> Next Figure: Male or Female? </p>","190","html-keyboard-response","648","1493969","0.0-21.0-0.23","prediction","","","",".",""
"null","<div style=""color:white; font-size:60px;"">+</div>","null","html-keyboard-response","649","1494975","0.0-21.0-1.23","fixation","","","","",""
"2537.370000005234","Stimuli/Hangul_F26.bmp","188","image-keyboard-response","650","1497513","0.0-21.0-2.23","c2_test",".","","","",","
"369.3199999979697","<p style=""color:white;""> Next Figure: Male or Female? </p>","188","html-keyboard-response","651","1497884","0.0-21.0-0.24","prediction","","","",",",""
"null","<div style=""color:white; font-size:60px;"">+</div>","null","html-keyboard-response","652","1498890","0.0-21.0-1.24","fixation","","","","",""
"1716.4749999938067","Stimuli/Hangul_M35.bmp","188","image-keyboard-response","653","1500608","0.0-21.0-2.24","c2_test",",","","","",","
"211.68500000191852","<p style=""color:white;""> Next Figure: Male or Female? </p>","188","html-keyboard-response","654","1500820","0.0-21.0-0.25","prediction","","","",",",""
"null","<div style=""color:white; font-size:60px;"">+</div>","null","html-keyboard-response","655","1501823","0.0-21.0-1.25","fixation","","","","",""
