"rt","stimulus","key_press","trial_type","trial_index","time_elapsed","internal_node_id","test_part","correct_response","C1_train","C1","A","C2"
"1686.9399999268353","<p style=""color:white;"">Welcome to the experiment! Press any key to begin.</p>","32","html-keyboard-response","0","1786","0.0-0.0","","","","","",""
"18849.63999991305","<p style=""color:white;"">You will see a series of abstract figures. They are adaptations of signs in the Korean alphabet, but that is not important for this study. </p><p style=""color:white;"">Abstract figures sometimes have a more masculine or feminine shape. Here, each figure has already been assigned a gender as <q>Male</q> or <q>Female</q> by a panel of respondents in a pilot study. The respondents were not given specific instructions on how to do this, but were only told to use their intuition and to take into account the entire configuration of the stimulus. </p><p style=""color:white;"">Your task now is to guess the assigned gender of each figure. Please press the corresponding response keys to indicate your choice: </p><p style=""color:white;""> Male &#8594 <q>,</q> (comma)</p><p style=""color:white;""> Female &#8594 <q>.</q> (period)</p><p style=""color:white;"">Press either response keys to continue.</p>","188","html-keyboard-response","1","20641","0.0-1.0","","","","","",""
"8411.275000078604","<p style=""color:white;"">Your choice is correct if it matches the gender assigned by the majority of respondents in the pilot study.</p> <p style=""color:white;"">For each correct choice you will receive 2 cents. There will be 200 trials divided into 4 blocks of 50 trials. You will be able to take a break after every 50 trials.</p> <p style=""color:white;"">Press the space bar to continue.</p>","32","html-keyboard-response","2","29055","0.0-2.0","","","","","",""
"2630.265000043437","<p style=""color:white;"">Here are some examples.</p> <p style=""color:white;"">For each, guess whether the assigned figure is male-like or female-like and indicate your choice by pressing either response keys.</p> <p style=""color:white;"">Press the space bar to continue.</p>","32","html-keyboard-response","3","31688","0.0-3.0","","","","","",""
"null","<div style=""color:white; font-size:60px;"">+</div>","null","html-keyboard-response","4","34695","0.0-4.0-0.0","fixation","","","","",""
"2320.4000000841916","Stimuli/Hangul_E2.bmp","188","image-keyboard-response","5","37021","0.0-4.0-1.0","c1_train",".",",","","",""
"null","<div style=""color:white; font-size:60px;"">+</div>","null","html-keyboard-response","6","38025","0.0-4.0-0.1","fixation","","","","",""
"2125.0750001054257","Stimuli/Hangul_E1.bmp","190","image-keyboard-response","7","40153","0.0-4.0-1.1","c1_train",",",".","","",""
"null","<div style=""color:white; font-size:60px;"">+</div>","null","html-keyboard-response","8","41156","0.0-4.0-0.2","fixation","","","","",""
"3025.804999982938","Stimuli/Hangul_E0.bmp","188","image-keyboard-response","9","44183","0.0-4.0-1.2","c1_train",",",",","","",""
"1019.4950001314282","<p style=""color:white;"">Let us begin! Press the space bar when you are ready to start block 1 of 4.</p> ","32","html-keyboard-response","10","45205","0.0-5.0","","","","","",""
"null","<div style=""color:white; font-size:60px;"">+</div>","null","html-keyboard-response","11","48209","0.0-6.0-0.0","fixation","","","","",""
"2117.3300000373274","Stimuli/Hangul_M16.bmp","188","image-keyboard-response","12","50331","0.0-6.0-1.0","test",",","",",","",""
"null","<div style=""color:white; font-size:60px;"">+</div>","null","html-keyboard-response","13","51334","0.0-6.0-0.1","fixation","","","","",""
"1812.510000076145","Stimuli/Hangul_F19.bmp","190","image-keyboard-response","14","53149","0.0-6.0-1.1","test",".","",".","",""
"null","<div style=""color:white; font-size:60px;"">+</div>","null","html-keyboard-response","15","54154","0.0-6.0-0.2","fixation","","","","",""
"1385.2649999316782","Stimuli/Hangul_M20.bmp","188","image-keyboard-response","16","55540","0.0-6.0-1.2","test",",","",",","",""
"null","<div style=""color:white; font-size:60px;"">+</div>","null","html-keyboard-response","17","56545","0.0-6.0-0.3","fixation","","","","",""
"2434.9599999841303","Stimuli/Hangul_F1.bmp","188","image-keyboard-response","18","58984","0.0-6.0-1.3","test",".","",",","",""
"null","<div style=""color:white; font-size:60px;"">+</div>","null","html-keyboard-response","19","59987","0.0-6.0-0.4","fixation","","","","",""
"2754.4799998868257","Stimuli/Hangul_F16.bmp","190","image-keyboard-response","20","62743","0.0-6.0-1.4","test",".","",".","",""
"null","<div style=""color:white; font-size:60px;"">+</div>","null","html-keyboard-response","21","63745","0.0-6.0-0.5","fixation","","","","",""
"2508.4299999289215","Stimuli/Hangul_M1.bmp","188","image-keyboard-response","22","66256","0.0-6.0-1.5","test",",","",",","",""
"null","<div style=""color:white; font-size:60px;"">+</div>","null","html-keyboard-response","23","67258","0.0-6.0-0.6","fixation","","","","",""
"2063.185000093654","Stimuli/Hangul_M10.bmp","190","image-keyboard-response","24","69323","0.0-6.0-1.6","test",",","",".","",""
"null","<div style=""color:white; font-size:60px;"">+</div>","null","html-keyboard-response","25","70345","0.0-6.0-0.7","fixation","","","","",""
"1787.0450001209974","Stimuli/Hangul_F20.bmp","190","image-keyboard-response","26","72140","0.0-6.0-1.7","test",".","",".","",""
"null","<div style=""color:white; font-size:60px;"">+</div>","null","html-keyboard-response","27","73144","0.0-6.0-0.8","fixation","","","","",""
"1859.910000115633","Stimuli/Hangul_F17.bmp","190","image-keyboard-response","28","75006","0.0-6.0-1.8","test",".","",".","",""
"null","<div style=""color:white; font-size:60px;"">+</div>","null","html-keyboard-response","29","76008","0.0-6.0-0.9","fixation","","","","",""
"1600.994999986142","Stimuli/Hangul_F22.bmp","188","image-keyboard-response","30","77611","0.0-6.0-1.9","test",".","",",","",""
"null","<div style=""color:white; font-size:60px;"">+</div>","null","html-keyboard-response","31","78614","0.0-6.0-0.10","fixation","","","","",""
"1654.8999999649823","Stimuli/Hangul_M22.bmp","188","image-keyboard-response","32","80273","0.0-6.0-1.10","test",",","",",","",""
"null","<div style=""color:white; font-size:60px;"">+</div>","null","html-keyboard-response","33","81276","0.0-6.0-0.11","fixation","","","","",""
"2110.1999999955297","Stimuli/Hangul_F14.bmp","190","image-keyboard-response","34","83388","0.0-6.0-1.11","test",".","",".","",""
"null","<div style=""color:white; font-size:60px;"">+</div>","null","html-keyboard-response","35","84391","0.0-6.0-0.12","fixation","","","","",""
"1625.3649999853224","Stimuli/Hangul_M8.bmp","188","image-keyboard-response","36","86018","0.0-6.0-1.12","test",",","",",","",""
"null","<div style=""color:white; font-size:60px;"">+</div>","null","html-keyboard-response","37","87022","0.0-6.0-0.13","fixation","","","","",""
"2756.3500001560897","Stimuli/Hangul_F23.bmp","190","image-keyboard-response","38","89782","0.0-6.0-1.13","test",".","",".","",""
"null","<div style=""color:white; font-size:60px;"">+</div>","null","html-keyboard-response","39","90785","0.0-6.0-0.14","fixation","","","","",""
"2243.135000113398","Stimuli/Hangul_F5.bmp","188","image-keyboard-response","40","93030","0.0-6.0-1.14","test",".","",",","",""
"null","<div style=""color:white; font-size:60px;"">+</div>","null","html-keyboard-response","41","94033","0.0-6.0-0.15","fixation","","","","",""
"3139.8300000000745","Stimuli/Hangul_M3.bmp","188","image-keyboard-response","42","97177","0.0-6.0-1.15","test",",","",",","",""
"null","<div style=""color:white; font-size:60px;"">+</div>","null","html-keyboard-response","43","98179","0.0-6.0-0.16","fixation","","","","",""
"1555.4300001822412","Stimuli/Hangul_M15.bmp","188","image-keyboard-response","44","99739","0.0-6.0-1.16","test",",","",",","",""
"null","<div style=""color:white; font-size:60px;"">+</div>","null","html-keyboard-response","45","100741","0.0-6.0-0.17","fixation","","","","",""
"1922.6550001185387","Stimuli/Hangul_F6.bmp","190","image-keyboard-response","46","102666","0.0-6.0-1.17","test",".","",".","",""
"null","<div style=""color:white; font-size:60px;"">+</div>","null","html-keyboard-response","47","103669","0.0-6.0-0.18","fixation","","","","",""
"5908.79000001587","Stimuli/Hangul_M18.bmp","188","image-keyboard-response","48","109579","0.0-6.0-1.18","test",",","",",","",""
"null","<div style=""color:white; font-size:60px;"">+</div>","null","html-keyboard-response","49","110582","0.0-6.0-0.19","fixation","","","","",""
"644.68999998644","Stimuli/Hangul_M2.bmp","188","image-keyboard-response","50","111228","0.0-6.0-1.19","test",",","",",","",""
"null","<div style=""color:white; font-size:60px;"">+</div>","null","html-keyboard-response","51","112231","0.0-6.0-0.20","fixation","","","","",""
"506.010000128299","Stimuli/Hangul_M19.bmp","188","image-keyboard-response","52","112740","0.0-6.0-1.20","test",",","",",","",""
"null","<div style=""color:white; font-size:60px;"">+</div>","null","html-keyboard-response","53","113742","0.0-6.0-0.21","fixation","","","","",""
"101.68499988503754","Stimuli/Hangul_M9.bmp","190","image-keyboard-response","54","113845","0.0-6.0-1.21","test",",","",".","",""
"null","<div style=""color:white; font-size:60px;"">+</div>","null","html-keyboard-response","55","114851","0.0-6.0-0.22","fixation","","","","",""
"101.09000001102686","Stimuli/Hangul_M17.bmp","188","image-keyboard-response","56","114954","0.0-6.0-1.22","test",",","",",","",""
"null","<div style=""color:white; font-size:60px;"">+</div>","null","html-keyboard-response","57","115959","0.0-6.0-0.23","fixation","","","","",""
"1492.1750000212342","Stimuli/Hangul_M23.bmp","188","image-keyboard-response","58","117454","0.0-6.0-1.23","test",",","",",","",""
"null","<div style=""color:white; font-size:60px;"">+</div>","null","html-keyboard-response","59","118457","0.0-6.0-0.24","fixation","","","","",""
"905.775000108406","Stimuli/Hangul_F2.bmp","188","image-keyboard-response","60","119365","0.0-6.0-1.24","test",".","",",","",""
"null","<div style=""color:white; font-size:60px;"">+</div>","null","html-keyboard-response","61","120368","0.0-6.0-0.25","fixation","","","","",""
"145.9599998779595","Stimuli/Hangul_F13.bmp","188","image-keyboard-response","62","120516","0.0-6.0-1.25","test",".","",",","",""
"null","<div style=""color:white; font-size:60px;"">+</div>","null","html-keyboard-response","63","121519","0.0-6.0-0.26","fixation","","","","",""
"93.83999998681247","Stimuli/Hangul_M24.bmp","188","image-keyboard-response","64","121615","0.0-6.0-1.26","test",",","",",","",""
"null","<div style=""color:white; font-size:60px;"">+</div>","null","html-keyboard-response","65","122617","0.0-6.0-0.27","fixation","","","","",""
"72.48499989509583","Stimuli/Hangul_F21.bmp","188","image-keyboard-response","66","122692","0.0-6.0-1.27","test",".","",",","",""
"null","<div style=""color:white; font-size:60px;"">+</div>","null","html-keyboard-response","67","123695","0.0-6.0-0.28","fixation","","","","",""
"242.91999987326562","Stimuli/Hangul_F8.bmp","190","image-keyboard-response","68","123940","0.0-6.0-1.28","test",".","",".","",""
"null","<div style=""color:white; font-size:60px;"">+</div>","null","html-keyboard-response","69","124951","0.0-6.0-0.29","fixation","","","","",""
"1708.4599998779595","Stimuli/Hangul_M5.bmp","188","image-keyboard-response","70","126661","0.0-6.0-1.29","test",",","",",","",""
"null","<div style=""color:white; font-size:60px;"">+</div>","null","html-keyboard-response","71","127665","0.0-6.0-0.30","fixation","","","","",""
"2390.5150000937283","Stimuli/Hangul_M7.bmp","188","image-keyboard-response","72","130057","0.0-6.0-1.30","test",",","",",","",""
"null","<div style=""color:white; font-size:60px;"">+</div>","null","html-keyboard-response","73","131060","0.0-6.0-0.31","fixation","","","","",""
"727.0949999801815","Stimuli/Hangul_F12.bmp","188","image-keyboard-response","74","131789","0.0-6.0-1.31","test",".","",",","",""
"null","<div style=""color:white; font-size:60px;"">+</div>","null","html-keyboard-response","75","132791","0.0-6.0-0.32","fixation","","","","",""
"47.12500004097819","Stimuli/Hangul_M11.bmp","188","image-keyboard-response","76","132840","0.0-6.0-1.32","test",",","",",","",""
"null","<div style=""color:white; font-size:60px;"">+</div>","null","html-keyboard-response","77","133843","0.0-6.0-0.33","fixation","","","","",""
"50.89500010944903","Stimuli/Hangul_F15.bmp","190","image-keyboard-response","78","133896","0.0-6.0-1.33","test",".","",".","",""
"null","<div style=""color:white; font-size:60px;"">+</div>","null","html-keyboard-response","79","134899","0.0-6.0-0.34","fixation","","","","",""
"537.745000096038","Stimuli/Hangul_F11.bmp","190","image-keyboard-response","80","135437","0.0-6.0-1.34","test",".","",".","",""
"null","<div style=""color:white; font-size:60px;"">+</div>","null","html-keyboard-response","81","136439","0.0-6.0-0.35","fixation","","","","",""
"719.1100001800805","Stimuli/Hangul_M21.bmp","188","image-keyboard-response","82","137160","0.0-6.0-1.35","test",",","",",","",""
"null","<div style=""color:white; font-size:60px;"">+</div>","null","html-keyboard-response","83","138163","0.0-6.0-0.36","fixation","","","","",""
"316.80999998934567","Stimuli/Hangul_F18.bmp","190","image-keyboard-response","84","138482","0.0-6.0-1.36","test",".","",".","",""
"null","<div style=""color:white; font-size:60px;"">+</div>","null","html-keyboard-response","85","139486","0.0-6.0-0.37","fixation","","","","",""
"1422.810000134632","Stimuli/Hangul_M12.bmp","188","image-keyboard-response","86","140911","0.0-6.0-1.37","test",",","",",","",""
"null","<div style=""color:white; font-size:60px;"">+</div>","null","html-keyboard-response","87","141914","0.0-6.0-0.38","fixation","","","","",""
"1953.1849999912083","Stimuli/Hangul_M0.bmp","188","image-keyboard-response","88","143869","0.0-6.0-1.38","test",",","",",","",""
"null","<div style=""color:white; font-size:60px;"">+</div>","null","html-keyboard-response","89","144871","0.0-6.0-0.39","fixation","","","","",""
"1658.8250000495464","Stimuli/Hangul_F0.bmp","188","image-keyboard-response","90","146532","0.0-6.0-1.39","test",".","",",","",""
"null","<div style=""color:white; font-size:60px;"">+</div>","null","html-keyboard-response","91","147535","0.0-6.0-0.40","fixation","","","","",""
"1407.029999885708","Stimuli/Hangul_M6.bmp","188","image-keyboard-response","92","148945","0.0-6.0-1.40","test",",","",",","",""
"null","<div style=""color:white; font-size:60px;"">+</div>","null","html-keyboard-response","93","149948","0.0-6.0-0.41","fixation","","","","",""
"737.7700000070035","Stimuli/Hangul_F3.bmp","188","image-keyboard-response","94","150687","0.0-6.0-1.41","test",".","",",","",""
"null","<div style=""color:white; font-size:60px;"">+</div>","null","html-keyboard-response","95","151689","0.0-6.0-0.42","fixation","","","","",""
"145.96499991603196","Stimuli/Hangul_F4.bmp","188","image-keyboard-response","96","151836","0.0-6.0-1.42","test",".","",",","",""
"null","<div style=""color:white; font-size:60px;"">+</div>","null","html-keyboard-response","97","152839","0.0-6.0-0.43","fixation","","","","",""
"1403.9099998772144","Stimuli/Hangul_F7.bmp","188","image-keyboard-response","98","154245","0.0-6.0-1.43","test",".","",",","",""
"null","<div style=""color:white; font-size:60px;"">+</div>","null","html-keyboard-response","99","155247","0.0-6.0-0.44","fixation","","","","",""
"1516.7449999134988","Stimuli/Hangul_M14.bmp","188","image-keyboard-response","100","156765","0.0-6.0-1.44","test",",","",",","",""
"null","<div style=""color:white; font-size:60px;"">+</div>","null","html-keyboard-response","101","157768","0.0-6.0-0.45","fixation","","","","",""
"1461.8400000035763","Stimuli/Hangul_F10.bmp","188","image-keyboard-response","102","159233","0.0-6.0-1.45","test",".","",",","",""
"null","<div style=""color:white; font-size:60px;"">+</div>","null","html-keyboard-response","103","160236","0.0-6.0-0.46","fixation","","","","",""
"83.77999998629093","Stimuli/Hangul_F24.bmp","190","image-keyboard-response","104","160322","0.0-6.0-1.46","test",".","",".","",""
"null","<div style=""color:white; font-size:60px;"">+</div>","null","html-keyboard-response","105","161325","0.0-6.0-0.47","fixation","","","","",""
"211.16499998606741","Stimuli/Hangul_M4.bmp","188","image-keyboard-response","106","161540","0.0-6.0-1.47","test",",","",",","",""
"null","<div style=""color:white; font-size:60px;"">+</div>","null","html-keyboard-response","107","162546","0.0-6.0-0.48","fixation","","","","",""
"293.0250000208616","Stimuli/Hangul_F9.bmp","188","image-keyboard-response","108","162841","0.0-6.0-1.48","test",".","",",","",""
"null","<div style=""color:white; font-size:60px;"">+</div>","null","html-keyboard-response","109","163844","0.0-6.0-0.49","fixation","","","","",""
"1308.2600000780076","Stimuli/Hangul_M13.bmp","188","image-keyboard-response","110","165155","0.0-6.0-1.49","test",",","",",","",""
"3325.4899999592453","<p style=""color:white;"">Good job, block 1 complete! Please take a moment to rest.</p> <p style=""color:white;"">When you are ready to continue with block 2 of 4, press the space bar.</p> ","32","html-keyboard-response","111","168483","0.0-7.0","","","","","",""
"null","<div style=""color:white; font-size:60px;"">+</div>","null","html-keyboard-response","112","171486","0.0-8.0-0.0","fixation","","","","",""
"812.3099999502301","Stimuli/Hangul_M49.bmp","188","image-keyboard-response","113","172301","0.0-8.0-1.0","test",",","",",","",""
"null","<div style=""color:white; font-size:60px;"">+</div>","null","html-keyboard-response","114","173303","0.0-8.0-0.1","fixation","","","","",""
"29.295000014826655","Stimuli/Hangul_F25.bmp","190","image-keyboard-response","115","173335","0.0-8.0-1.1","test",".","",".","",""
"null","<div style=""color:white; font-size:60px;"">+</div>","null","html-keyboard-response","116","174337","0.0-8.0-0.2","fixation","","","","",""
"300.04499992355704","Stimuli/Hangul_M29.bmp","190","image-keyboard-response","117","174640","0.0-8.0-1.2","test",",","",".","",""
"null","<div style=""color:white; font-size:60px;"">+</div>","null","html-keyboard-response","118","175643","0.0-8.0-0.3","fixation","","","","",""
"301.2550000566989","Stimuli/Hangul_M27.bmp","190","image-keyboard-response","119","175946","0.0-8.0-1.3","test",",","",".","",""
"null","<div style=""color:white; font-size:60px;"">+</div>","null","html-keyboard-response","120","176949","0.0-8.0-0.4","fixation","","","","",""
"599.2349998559803","Stimuli/Hangul_M38.bmp","188","image-keyboard-response","121","177549","0.0-8.0-1.4","test",",","",",","",""
"null","<div style=""color:white; font-size:60px;"">+</div>","null","html-keyboard-response","122","178555","0.0-8.0-0.5","fixation","","","","",""
"513.8199999928474","Stimuli/Hangul_M30.bmp","190","image-keyboard-response","123","179071","0.0-8.0-1.5","test",",","",".","",""
"null","<div style=""color:white; font-size:60px;"">+</div>","null","html-keyboard-response","124","180075","0.0-8.0-0.6","fixation","","","","",""
"164.27500010468066","Stimuli/Hangul_F39.bmp","190","image-keyboard-response","125","180247","0.0-8.0-1.6","test",".","",".","",""
"null","<div style=""color:white; font-size:60px;"">+</div>","null","html-keyboard-response","126","181251","0.0-8.0-0.7","fixation","","","","",""
"417.81999985687435","Stimuli/Hangul_F44.bmp","188","image-keyboard-response","127","181670","0.0-8.0-1.7","test",".","",",","",""
"null","<div style=""color:white; font-size:60px;"">+</div>","null","html-keyboard-response","128","182673","0.0-8.0-0.8","fixation","","","","",""
"263.19000008516014","Stimuli/Hangul_M48.bmp","188","image-keyboard-response","129","182939","0.0-8.0-1.8","test",",","",",","",""
"null","<div style=""color:white; font-size:60px;"">+</div>","null","html-keyboard-response","130","183942","0.0-8.0-0.9","fixation","","","","",""
"1148.4049998689443","Stimuli/Hangul_M36.bmp","188","image-keyboard-response","131","185092","0.0-8.0-1.9","test",",","",",","",""
"null","<div style=""color:white; font-size:60px;"">+</div>","null","html-keyboard-response","132","186095","0.0-8.0-0.10","fixation","","","","",""
"563.5900001507252","Stimuli/Hangul_F31.bmp","188","image-keyboard-response","133","186660","0.0-8.0-1.10","test",".","",",","",""
"null","<div style=""color:white; font-size:60px;"">+</div>","null","html-keyboard-response","134","187663","0.0-8.0-0.11","fixation","","","","",""
"1787.3199998866767","Stimuli/Hangul_F47.bmp","188","image-keyboard-response","135","189452","0.0-8.0-1.11","test",".","",",","",""
"null","<div style=""color:white; font-size:60px;"">+</div>","null","html-keyboard-response","136","190455","0.0-8.0-0.12","fixation","","","","",""
"58.105000061914325","Stimuli/Hangul_F42.bmp","188","image-keyboard-response","137","190515","0.0-8.0-1.12","test",".","",",","",""
"null","<div style=""color:white; font-size:60px;"">+</div>","null","html-keyboard-response","138","191517","0.0-8.0-0.13","fixation","","","","",""
"318.69999994523823","Stimuli/Hangul_M40.bmp","190","image-keyboard-response","139","191838","0.0-8.0-1.13","test",",","",".","",""
"null","<div style=""color:white; font-size:60px;"">+</div>","null","html-keyboard-response","140","192841","0.0-8.0-0.14","fixation","","","","",""
"516.2949999794364","Stimuli/Hangul_M37.bmp","188","image-keyboard-response","141","193359","0.0-8.0-1.14","test",",","",",","",""
"null","<div style=""color:white; font-size:60px;"">+</div>","null","html-keyboard-response","142","194362","0.0-8.0-0.15","fixation","","","","",""
"1785.6349998619407","Stimuli/Hangul_F36.bmp","188","image-keyboard-response","143","196149","0.0-8.0-1.15","test",".","",",","",""
"null","<div style=""color:white; font-size:60px;"">+</div>","null","html-keyboard-response","144","197152","0.0-8.0-0.16","fixation","","","","",""
"315.58499997481704","Stimuli/Hangul_M28.bmp","188","image-keyboard-response","145","197469","0.0-8.0-1.16","test",",","",",","",""
"null","<div style=""color:white; font-size:60px;"">+</div>","null","html-keyboard-response","146","198472","0.0-8.0-0.17","fixation","","","","",""
"961.7500000167638","Stimuli/Hangul_F46.bmp","188","image-keyboard-response","147","199436","0.0-8.0-1.17","test",".","",",","",""
"null","<div style=""color:white; font-size:60px;"">+</div>","null","html-keyboard-response","148","200438","0.0-8.0-0.18","fixation","","","","",""
"112.34500003047287","Stimuli/Hangul_M47.bmp","190","image-keyboard-response","149","200553","0.0-8.0-1.18","test",",","",".","",""
"null","<div style=""color:white; font-size:60px;"">+</div>","null","html-keyboard-response","150","201556","0.0-8.0-0.19","fixation","","","","",""
"2766.2549999076873","Stimuli/Hangul_M35.bmp","188","image-keyboard-response","151","204324","0.0-8.0-1.19","test",",","",",","",""
"null","<div style=""color:white; font-size:60px;"">+</div>","null","html-keyboard-response","152","205328","0.0-8.0-0.20","fixation","","","","",""
"344.67500005848706","Stimuli/Hangul_M44.bmp","188","image-keyboard-response","153","205674","0.0-8.0-1.20","test",",","",",","",""
"null","<div style=""color:white; font-size:60px;"">+</div>","null","html-keyboard-response","154","206677","0.0-8.0-0.21","fixation","","","","",""
"1593.3649998623878","Stimuli/Hangul_F34.bmp","188","image-keyboard-response","155","208272","0.0-8.0-1.21","test",".","",",","",""
"null","<div style=""color:white; font-size:60px;"">+</div>","null","html-keyboard-response","156","209274","0.0-8.0-0.22","fixation","","","","",""
"78.04499985650182","Stimuli/Hangul_M46.bmp","190","image-keyboard-response","157","209353","0.0-8.0-1.22","test",",","",".","",""
"null","<div style=""color:white; font-size:60px;"">+</div>","null","html-keyboard-response","158","210355","0.0-8.0-0.23","fixation","","","","",""
"594.5049999281764","Stimuli/Hangul_F27.bmp","190","image-keyboard-response","159","210953","0.0-8.0-1.23","test",".","",".","",""
"null","<div style=""color:white; font-size:60px;"">+</div>","null","html-keyboard-response","160","211957","0.0-8.0-0.24","fixation","","","","",""
"46.6499999165535","Stimuli/Hangul_F40.bmp","188","image-keyboard-response","161","212006","0.0-8.0-1.24","test",".","",",","",""
"null","<div style=""color:white; font-size:60px;"">+</div>","null","html-keyboard-response","162","213008","0.0-8.0-0.25","fixation","","","","",""
"23.750000167638063","Stimuli/Hangul_M39.bmp","190","image-keyboard-response","163","213034","0.0-8.0-1.25","test",",","",".","",""
"null","<div style=""color:white; font-size:60px;"">+</div>","null","html-keyboard-response","164","214036","0.0-8.0-0.26","fixation","","","","",""
"768.4600001666695","Stimuli/Hangul_F38.bmp","188","image-keyboard-response","165","214807","0.0-8.0-1.26","test",".","",",","",""
"null","<div style=""color:white; font-size:60px;"">+</div>","null","html-keyboard-response","166","215810","0.0-8.0-0.27","fixation","","","","",""
"26.030000066384673","Stimuli/Hangul_F41.bmp","190","image-keyboard-response","167","215837","0.0-8.0-1.27","test",".","",".","",""
"null","<div style=""color:white; font-size:60px;"">+</div>","null","html-keyboard-response","168","216840","0.0-8.0-0.28","fixation","","","","",""
"667.1249999199063","Stimuli/Hangul_M42.bmp","190","image-keyboard-response","169","217509","0.0-8.0-1.28","test",",","",".","",""
"null","<div style=""color:white; font-size:60px;"">+</div>","null","html-keyboard-response","170","218511","0.0-8.0-0.29","fixation","","","","",""
"1276.7600000370294","Stimuli/Hangul_F26.bmp","188","image-keyboard-response","171","219790","0.0-8.0-1.29","test",".","",",","",""
"null","<div style=""color:white; font-size:60px;"">+</div>","null","html-keyboard-response","172","220792","0.0-8.0-0.30","fixation","","","","",""
"560.1899998728186","Stimuli/Hangul_F45.bmp","190","image-keyboard-response","173","221354","0.0-8.0-1.30","test",".","",".","",""
"null","<div style=""color:white; font-size:60px;"">+</div>","null","html-keyboard-response","174","222357","0.0-8.0-0.31","fixation","","","","",""
"442.59499991312623","Stimuli/Hangul_F32.bmp","190","image-keyboard-response","175","222802","0.0-8.0-1.31","test",".","",".","",""
"null","<div style=""color:white; font-size:60px;"">+</div>","null","html-keyboard-response","176","223805","0.0-8.0-0.32","fixation","","","","",""
"2087.455000029877","Stimuli/Hangul_F30.bmp","188","image-keyboard-response","177","225894","0.0-8.0-1.32","test",".","",",","",""
"null","<div style=""color:white; font-size:60px;"">+</div>","null","html-keyboard-response","178","226897","0.0-8.0-0.33","fixation","","","","",""
"193.0350000038743","Stimuli/Hangul_F33.bmp","190","image-keyboard-response","179","227092","0.0-8.0-1.33","test",".","",".","",""
"null","<div style=""color:white; font-size:60px;"">+</div>","null","html-keyboard-response","180","228095","0.0-8.0-0.34","fixation","","","","",""
"455.7950000744313","Stimuli/Hangul_M26.bmp","188","image-keyboard-response","181","228553","0.0-8.0-1.34","test",",","",",","",""
"null","<div style=""color:white; font-size:60px;"">+</div>","null","html-keyboard-response","182","229556","0.0-8.0-0.35","fixation","","","","",""
"847.9249998927116","Stimuli/Hangul_F48.bmp","188","image-keyboard-response","183","230406","0.0-8.0-1.35","test",".","",",","",""
"null","<div style=""color:white; font-size:60px;"">+</div>","null","html-keyboard-response","184","231410","0.0-8.0-0.36","fixation","","","","",""
"67.29999999515712","Stimuli/Hangul_F29.bmp","190","image-keyboard-response","185","231480","0.0-8.0-1.36","test",".","",".","",""
"null","<div style=""color:white; font-size:60px;"">+</div>","null","html-keyboard-response","186","232482","0.0-8.0-0.37","fixation","","","","",""
"437.84500006586313","Stimuli/Hangul_F49.bmp","188","image-keyboard-response","187","232923","0.0-8.0-1.37","test",".","",",","",""
"null","<div style=""color:white; font-size:60px;"">+</div>","null","html-keyboard-response","188","233927","0.0-8.0-0.38","fixation","","","","",""
"89.42500012926757","Stimuli/Hangul_M34.bmp","188","image-keyboard-response","189","234020","0.0-8.0-1.38","test",",","",",","",""
"null","<div style=""color:white; font-size:60px;"">+</div>","null","html-keyboard-response","190","235024","0.0-8.0-0.39","fixation","","","","",""
"1205.8000001125038","Stimuli/Hangul_M32.bmp","188","image-keyboard-response","191","236232","0.0-8.0-1.39","test",",","",",","",""
"null","<div style=""color:white; font-size:60px;"">+</div>","null","html-keyboard-response","192","237236","0.0-8.0-0.40","fixation","","","","",""
"741.0849998705089","Stimuli/Hangul_F37.bmp","188","image-keyboard-response","193","237979","0.0-8.0-1.40","test",".","",",","",""
"null","<div style=""color:white; font-size:60px;"">+</div>","null","html-keyboard-response","194","238983","0.0-8.0-0.41","fixation","","","","",""
"932.2399999946356","Stimuli/Hangul_F43.bmp","188","image-keyboard-response","195","239918","0.0-8.0-1.41","test",".","",",","",""
"null","<div style=""color:white; font-size:60px;"">+</div>","null","html-keyboard-response","196","240922","0.0-8.0-0.42","fixation","","","","",""
"478.8399999961257","Stimuli/Hangul_M45.bmp","188","image-keyboard-response","197","241403","0.0-8.0-1.42","test",",","",",","",""
"null","<div style=""color:white; font-size:60px;"">+</div>","null","html-keyboard-response","198","242406","0.0-8.0-0.43","fixation","","","","",""
"535.765000153333","Stimuli/Hangul_M33.bmp","190","image-keyboard-response","199","242951","0.0-8.0-1.43","test",",","",".","",""
"null","<div style=""color:white; font-size:60px;"">+</div>","null","html-keyboard-response","200","243953","0.0-8.0-0.44","fixation","","","","",""
"579.9950000364333","Stimuli/Hangul_M31.bmp","190","image-keyboard-response","201","244535","0.0-8.0-1.44","test",",","",".","",""
"null","<div style=""color:white; font-size:60px;"">+</div>","null","html-keyboard-response","202","245538","0.0-8.0-0.45","fixation","","","","",""
"348.40499982237816","Stimuli/Hangul_F35.bmp","190","image-keyboard-response","203","245888","0.0-8.0-1.45","test",".","",".","",""
"null","<div style=""color:white; font-size:60px;"">+</div>","null","html-keyboard-response","204","246890","0.0-8.0-0.46","fixation","","","","",""
"132.42999999783933","Stimuli/Hangul_F28.bmp","188","image-keyboard-response","205","247025","0.0-8.0-1.46","test",".","",",","",""
"null","<div style=""color:white; font-size:60px;"">+</div>","null","html-keyboard-response","206","248027","0.0-8.0-0.47","fixation","","","","",""
"410.26500007137656","Stimuli/Hangul_M25.bmp","190","image-keyboard-response","207","248439","0.0-8.0-1.47","test",",","",".","",""
"null","<div style=""color:white; font-size:60px;"">+</div>","null","html-keyboard-response","208","249441","0.0-8.0-0.48","fixation","","","","",""
"4013.455000007525","Stimuli/Hangul_M43.bmp","188","image-keyboard-response","209","253455","0.0-8.0-1.48","test",",","",",","",""
"null","<div style=""color:white; font-size:60px;"">+</div>","null","html-keyboard-response","210","254458","0.0-8.0-0.49","fixation","","","","",""
"1151.0699999053031","Stimuli/Hangul_M41.bmp","188","image-keyboard-response","211","255612","0.0-8.0-1.49","test",",","",",","",""
"2371.5399999637157","<p style=""color:white;"">Half way there! Please take a moment to rest.</p> <p style=""color:white;"">When you are ready to continue with block 3 of 4, press the space bar.</p> ","32","html-keyboard-response","212","257987","0.0-9.0","","","","","",""
"null","<div style=""color:white; font-size:60px;"">+</div>","null","html-keyboard-response","213","260991","0.0-10.0-0.0","fixation","","","","",""
"937.150000128895","Stimuli/Hangul_F57.bmp","188","image-keyboard-response","214","261932","0.0-10.0-1.0","test",".","",",","",""
"null","<div style=""color:white; font-size:60px;"">+</div>","null","html-keyboard-response","215","262936","0.0-10.0-0.1","fixation","","","","",""
"1387.0200000237674","Stimuli/Hangul_M64.bmp","188","image-keyboard-response","216","264325","0.0-10.0-1.1","test",",","",",","",""
"null","<div style=""color:white; font-size:60px;"">+</div>","null","html-keyboard-response","217","265328","0.0-10.0-0.2","fixation","","","","",""
"1706.3599999528378","Stimuli/Hangul_M69.bmp","188","image-keyboard-response","218","267039","0.0-10.0-1.2","test",",","",",","",""
"null","<div style=""color:white; font-size:60px;"">+</div>","null","html-keyboard-response","219","268043","0.0-10.0-0.3","fixation","","","","",""
"1702.5949999224395","Stimuli/Hangul_M60.bmp","188","image-keyboard-response","220","269747","0.0-10.0-1.3","test",",","",",","",""
"null","<div style=""color:white; font-size:60px;"">+</div>","null","html-keyboard-response","221","270750","0.0-10.0-0.4","fixation","","","","",""
"1641.814999980852","Stimuli/Hangul_M50.bmp","188","image-keyboard-response","222","272394","0.0-10.0-1.4","test",",","",",","",""
"null","<div style=""color:white; font-size:60px;"">+</div>","null","html-keyboard-response","223","273397","0.0-10.0-0.5","fixation","","","","",""
"1985.8099999837577","Stimuli/Hangul_M72.bmp","188","image-keyboard-response","224","275386","0.0-10.0-1.5","test",",","",",","",""
"null","<div style=""color:white; font-size:60px;"">+</div>","null","html-keyboard-response","225","276391","0.0-10.0-0.6","fixation","","","","",""
"2487.2250000480562","Stimuli/Hangul_F63.bmp","188","image-keyboard-response","226","278879","0.0-10.0-1.6","test",".","",",","",""
"null","<div style=""color:white; font-size:60px;"">+</div>","null","html-keyboard-response","227","279882","0.0-10.0-0.7","fixation","","","","",""
"1792.5200001336634","Stimuli/Hangul_F71.bmp","188","image-keyboard-response","228","281676","0.0-10.0-1.7","test",".","",",","",""
"null","<div style=""color:white; font-size:60px;"">+</div>","null","html-keyboard-response","229","282679","0.0-10.0-0.8","fixation","","","","",""
"2061.7050000000745","Stimuli/Hangul_M71.bmp","188","image-keyboard-response","230","284743","0.0-10.0-1.8","test",",","",",","",""
"null","<div style=""color:white; font-size:60px;"">+</div>","null","html-keyboard-response","231","285746","0.0-10.0-0.9","fixation","","","","",""
"2199.860000051558","Stimuli/Hangul_F56.bmp","188","image-keyboard-response","232","287948","0.0-10.0-1.9","test",".","",",","",""
"null","<div style=""color:white; font-size:60px;"">+</div>","null","html-keyboard-response","233","288951","0.0-10.0-0.10","fixation","","","","",""
"2070.54500002414","Stimuli/Hangul_F54.bmp","190","image-keyboard-response","234","291025","0.0-10.0-1.10","test",".","",".","",""
"null","<div style=""color:white; font-size:60px;"">+</div>","null","html-keyboard-response","235","292027","0.0-10.0-0.11","fixation","","","","",""
"2262.7349998801947","Stimuli/Hangul_M61.bmp","190","image-keyboard-response","236","294291","0.0-10.0-1.11","test",",","",".","",""
"null","<div style=""color:white; font-size:60px;"">+</div>","null","html-keyboard-response","237","295293","0.0-10.0-0.12","fixation","","","","",""
"1814.8550000041723","Stimuli/Hangul_M55.bmp","190","image-keyboard-response","238","297112","0.0-10.0-1.12","test",",","",".","",""
"null","<div style=""color:white; font-size:60px;"">+</div>","null","html-keyboard-response","239","298115","0.0-10.0-0.13","fixation","","","","",""
"1846.170000033453","Stimuli/Hangul_M63.bmp","188","image-keyboard-response","240","299963","0.0-10.0-1.13","test",",","",",","",""
"null","<div style=""color:white; font-size:60px;"">+</div>","null","html-keyboard-response","241","300966","0.0-10.0-0.14","fixation","","","","",""
"46.74499994143844","Stimuli/Hangul_F58.bmp","190","image-keyboard-response","242","301014","0.0-10.0-1.14","test",".","",".","",""
"null","<div style=""color:white; font-size:60px;"">+</div>","null","html-keyboard-response","243","302017","0.0-10.0-0.15","fixation","","","","",""
"820.6749998498708","Stimuli/Hangul_M58.bmp","190","image-keyboard-response","244","302840","0.0-10.0-1.15","test",",","",".","",""
"null","<div style=""color:white; font-size:60px;"">+</div>","null","html-keyboard-response","245","303843","0.0-10.0-0.16","fixation","","","","",""
"1979.2100000195205","Stimuli/Hangul_F68.bmp","190","image-keyboard-response","246","305824","0.0-10.0-1.16","test",".","",".","",""
"null","<div style=""color:white; font-size:60px;"">+</div>","null","html-keyboard-response","247","306836","0.0-10.0-0.17","fixation","","","","",""
"882.1849999949336","Stimuli/Hangul_M70.bmp","190","image-keyboard-response","248","307719","0.0-10.0-1.17","test",",","",".","",""
"null","<div style=""color:white; font-size:60px;"">+</div>","null","html-keyboard-response","249","308721","0.0-10.0-0.18","fixation","","","","",""
"2146.76499995403","Stimuli/Hangul_M66.bmp","188","image-keyboard-response","250","310871","0.0-10.0-1.18","test",",","",",","",""
"null","<div style=""color:white; font-size:60px;"">+</div>","null","html-keyboard-response","251","311874","0.0-10.0-0.19","fixation","","","","",""
"2614.5949999336153","Stimuli/Hangul_M52.bmp","188","image-keyboard-response","252","314492","0.0-10.0-1.19","test",",","",",","",""
"null","<div style=""color:white; font-size:60px;"">+</div>","null","html-keyboard-response","253","315495","0.0-10.0-0.20","fixation","","","","",""
"1453.9050001185387","Stimuli/Hangul_M67.bmp","188","image-keyboard-response","254","316951","0.0-10.0-1.20","test",",","",",","",""
"null","<div style=""color:white; font-size:60px;"">+</div>","null","html-keyboard-response","255","317954","0.0-10.0-0.21","fixation","","","","",""
"892.1600000467151","Stimuli/Hangul_F70.bmp","188","image-keyboard-response","256","318851","0.0-10.0-1.21","test",".","",",","",""
"null","<div style=""color:white; font-size:60px;"">+</div>","null","html-keyboard-response","257","319853","0.0-10.0-0.22","fixation","","","","",""
"964.3100001849234","Stimuli/Hangul_F59.bmp","188","image-keyboard-response","258","320819","0.0-10.0-1.22","test",".","",",","",""
"null","<div style=""color:white; font-size:60px;"">+</div>","null","html-keyboard-response","259","321825","0.0-10.0-0.23","fixation","","","","",""
"3761.540000094101","Stimuli/Hangul_F53.bmp","188","image-keyboard-response","260","325588","0.0-10.0-1.23","test",".","",",","",""
"null","<div style=""color:white; font-size:60px;"">+</div>","null","html-keyboard-response","261","326592","0.0-10.0-0.24","fixation","","","","",""
"908.5949999280274","Stimuli/Hangul_F69.bmp","188","image-keyboard-response","262","327504","0.0-10.0-1.24","test",".","",",","",""
"null","<div style=""color:white; font-size:60px;"">+</div>","null","html-keyboard-response","263","328506","0.0-10.0-0.25","fixation","","","","",""
"1727.1450001280755","Stimuli/Hangul_F50.bmp","188","image-keyboard-response","264","330236","0.0-10.0-1.25","test",".","",",","",""
"null","<div style=""color:white; font-size:60px;"">+</div>","null","html-keyboard-response","265","331239","0.0-10.0-0.26","fixation","","","","",""
"105.5999998934567","Stimuli/Hangul_M54.bmp","188","image-keyboard-response","266","331349","0.0-10.0-1.26","test",",","",",","",""
"null","<div style=""color:white; font-size:60px;"">+</div>","null","html-keyboard-response","267","332353","0.0-10.0-0.27","fixation","","","","",""
"2702.3749998770654","Stimuli/Hangul_F67.bmp","188","image-keyboard-response","268","335058","0.0-10.0-1.27","test",".","",",","",""
"null","<div style=""color:white; font-size:60px;"">+</div>","null","html-keyboard-response","269","336062","0.0-10.0-0.28","fixation","","","","",""
"712.4400001484901","Stimuli/Hangul_F60.bmp","188","image-keyboard-response","270","336778","0.0-10.0-1.28","test",".","",",","",""
"null","<div style=""color:white; font-size:60px;"">+</div>","null","html-keyboard-response","271","337782","0.0-10.0-0.29","fixation","","","","",""
"787.9800000227988","Stimuli/Hangul_F72.bmp","188","image-keyboard-response","272","338572","0.0-10.0-1.29","test",".","",",","",""
"null","<div style=""color:white; font-size:60px;"">+</div>","null","html-keyboard-response","273","339581","0.0-10.0-0.30","fixation","","","","",""
"1092.2699999064207","Stimuli/Hangul_F55.bmp","188","image-keyboard-response","274","340675","0.0-10.0-1.30","test",".","",",","",""
"null","<div style=""color:white; font-size:60px;"">+</div>","null","html-keyboard-response","275","341679","0.0-10.0-0.31","fixation","","","","",""
"412.57499996572733","Stimuli/Hangul_M68.bmp","190","image-keyboard-response","276","342094","0.0-10.0-1.31","test",",","",".","",""
"null","<div style=""color:white; font-size:60px;"">+</div>","null","html-keyboard-response","277","343097","0.0-10.0-0.32","fixation","","","","",""
"699.555000057444","Stimuli/Hangul_F64.bmp","190","image-keyboard-response","278","343799","0.0-10.0-1.32","test",".","",".","",""
"null","<div style=""color:white; font-size:60px;"">+</div>","null","html-keyboard-response","279","344802","0.0-10.0-0.33","fixation","","","","",""
"139.3349999561906","Stimuli/Hangul_F52.bmp","188","image-keyboard-response","280","344943","0.0-10.0-1.33","test",".","",",","",""
"null","<div style=""color:white; font-size:60px;"">+</div>","null","html-keyboard-response","281","345947","0.0-10.0-0.34","fixation","","","","",""
"2207.610000157729","Stimuli/Hangul_F61.bmp","188","image-keyboard-response","282","348156","0.0-10.0-1.34","test",".","",",","",""
"null","<div style=""color:white; font-size:60px;"">+</div>","null","html-keyboard-response","283","349159","0.0-10.0-0.35","fixation","","","","",""
"1600.5950001999736","Stimuli/Hangul_M57.bmp","188","image-keyboard-response","284","350763","0.0-10.0-1.35","test",",","",",","",""
"null","<div style=""color:white; font-size:60px;"">+</div>","null","html-keyboard-response","285","351766","0.0-10.0-0.36","fixation","","","","",""
"1216.3999998010695","Stimuli/Hangul_F73.bmp","188","image-keyboard-response","286","352984","0.0-10.0-1.36","test",".","",",","",""
"null","<div style=""color:white; font-size:60px;"">+</div>","null","html-keyboard-response","287","353987","0.0-10.0-0.37","fixation","","","","",""
"1368.335000006482","Stimuli/Hangul_M62.bmp","188","image-keyboard-response","288","355357","0.0-10.0-1.37","test",",","",",","",""
"null","<div style=""color:white; font-size:60px;"">+</div>","null","html-keyboard-response","289","356362","0.0-10.0-0.38","fixation","","","","",""
"1249.735000077635","Stimuli/Hangul_M56.bmp","188","image-keyboard-response","290","357613","0.0-10.0-1.38","test",",","",",","",""
"null","<div style=""color:white; font-size:60px;"">+</div>","null","html-keyboard-response","291","358617","0.0-10.0-0.39","fixation","","","","",""
"774.9499999918044","Stimuli/Hangul_M73.bmp","188","image-keyboard-response","292","359394","0.0-10.0-1.39","test",",","",",","",""
"null","<div style=""color:white; font-size:60px;"">+</div>","null","html-keyboard-response","293","360397","0.0-10.0-0.40","fixation","","","","",""
"1616.6799999773502","Stimuli/Hangul_M51.bmp","188","image-keyboard-response","294","362015","0.0-10.0-1.40","test",",","",",","",""
"null","<div style=""color:white; font-size:60px;"">+</div>","null","html-keyboard-response","295","363018","0.0-10.0-0.41","fixation","","","","",""
"1260.6099999975413","Stimuli/Hangul_M65.bmp","188","image-keyboard-response","296","364281","0.0-10.0-1.41","test",",","",",","",""
"null","<div style=""color:white; font-size:60px;"">+</div>","null","html-keyboard-response","297","365284","0.0-10.0-0.42","fixation","","","","",""
"1062.354999827221","Stimuli/Hangul_M59.bmp","188","image-keyboard-response","298","366349","0.0-10.0-1.42","test",",","",",","",""
"null","<div style=""color:white; font-size:60px;"">+</div>","null","html-keyboard-response","299","367353","0.0-10.0-0.43","fixation","","","","",""
"2339.295000070706","Stimuli/Hangul_F51.bmp","190","image-keyboard-response","300","369694","0.0-10.0-1.43","test",".","",".","",""
"null","<div style=""color:white; font-size:60px;"">+</div>","null","html-keyboard-response","301","370696","0.0-10.0-0.44","fixation","","","","",""
"2891.444999957457","Stimuli/Hangul_F62.bmp","188","image-keyboard-response","302","373589","0.0-10.0-1.44","test",".","",",","",""
"null","<div style=""color:white; font-size:60px;"">+</div>","null","html-keyboard-response","303","374592","0.0-10.0-0.45","fixation","","","","",""
"7362.879999913275","Stimuli/Hangul_F66.bmp","188","image-keyboard-response","304","381958","0.0-10.0-1.45","test",".","",",","",""
"null","<div style=""color:white; font-size:60px;"">+</div>","null","html-keyboard-response","305","382960","0.0-10.0-0.46","fixation","","","","",""
"1737.1450001373887","Stimuli/Hangul_M74.bmp","188","image-keyboard-response","306","384701","0.0-10.0-1.46","test",",","",",","",""
"null","<div style=""color:white; font-size:60px;"">+</div>","null","html-keyboard-response","307","385703","0.0-10.0-0.47","fixation","","","","",""
"1678.1899998895824","Stimuli/Hangul_F74.bmp","188","image-keyboard-response","308","387383","0.0-10.0-1.47","test",".","",",","",""
"null","<div style=""color:white; font-size:60px;"">+</div>","null","html-keyboard-response","309","388387","0.0-10.0-0.48","fixation","","","","",""
"2234.764999942854","Stimuli/Hangul_F65.bmp","188","image-keyboard-response","310","390624","0.0-10.0-1.48","test",".","",",","",""
"null","<div style=""color:white; font-size:60px;"">+</div>","null","html-keyboard-response","311","391627","0.0-10.0-0.49","fixation","","","","",""
"1573.97500006482","Stimuli/Hangul_M53.bmp","188","image-keyboard-response","312","393203","0.0-10.0-1.49","test",",","",",","",""
"2093.360000057146","<p style=""color:white;"">One more block to go! Please take a moment to rest.</p> <p style=""color:white;"">When you are ready to continue with block 4 of 4, press the space bar.</p> ","32","html-keyboard-response","313","395299","0.0-11.0","","","","","",""
"null","<div style=""color:white; font-size:60px;"">+</div>","null","html-keyboard-response","314","398303","0.0-12.0-0.0","fixation","","","","",""
"2169.474999886006","Stimuli/Hangul_M87.bmp","188","image-keyboard-response","315","400476","0.0-12.0-1.0","test",",","",",","",""
"null","<div style=""color:white; font-size:60px;"">+</div>","null","html-keyboard-response","316","401478","0.0-12.0-0.1","fixation","","","","",""
"1900.2100001089275","Stimuli/Hangul_M98.bmp","188","image-keyboard-response","317","403380","0.0-12.0-1.1","test",",","",",","",""
"null","<div style=""color:white; font-size:60px;"">+</div>","null","html-keyboard-response","318","404384","0.0-12.0-0.2","fixation","","","","",""
"50.54500000551343","Stimuli/Hangul_M99.bmp","188","image-keyboard-response","319","404439","0.0-12.0-1.2","test",",","",",","",""
"null","<div style=""color:white; font-size:60px;"">+</div>","null","html-keyboard-response","320","405442","0.0-12.0-0.3","fixation","","","","",""
"1049.379999982193","Stimuli/Hangul_M93.bmp","188","image-keyboard-response","321","406493","0.0-12.0-1.3","test",",","",",","",""
"null","<div style=""color:white; font-size:60px;"">+</div>","null","html-keyboard-response","322","407495","0.0-12.0-0.4","fixation","","","","",""
"61.135000083595514","Stimuli/Hangul_M86.bmp","188","image-keyboard-response","323","407558","0.0-12.0-1.4","test",",","",",","",""
"null","<div style=""color:white; font-size:60px;"">+</div>","null","html-keyboard-response","324","408561","0.0-12.0-0.5","fixation","","","","",""
"1971.350000007078","Stimuli/Hangul_F83.bmp","188","image-keyboard-response","325","410534","0.0-12.0-1.5","test",".","",",","",""
"null","<div style=""color:white; font-size:60px;"">+</div>","null","html-keyboard-response","326","411535","0.0-12.0-0.6","fixation","","","","",""
"885.9600001014769","Stimuli/Hangul_F98.bmp","188","image-keyboard-response","327","412423","0.0-12.0-1.6","test",".","",",","",""
"null","<div style=""color:white; font-size:60px;"">+</div>","null","html-keyboard-response","328","413425","0.0-12.0-0.7","fixation","","","","",""
"542.2199999447912","Stimuli/Hangul_M92.bmp","188","image-keyboard-response","329","413968","0.0-12.0-1.7","test",",","",",","",""
"null","<div style=""color:white; font-size:60px;"">+</div>","null","html-keyboard-response","330","414970","0.0-12.0-0.8","fixation","","","","",""
"2944.2650000564754","Stimuli/Hangul_M85.bmp","188","image-keyboard-response","331","417915","0.0-12.0-1.8","test",",","",",","",""
"null","<div style=""color:white; font-size:60px;"">+</div>","null","html-keyboard-response","332","418918","0.0-12.0-0.9","fixation","","","","",""
"1610.5749998241663","Stimuli/Hangul_M95.bmp","188","image-keyboard-response","333","420535","0.0-12.0-1.9","test",",","",",","",""
"null","<div style=""color:white; font-size:60px;"">+</div>","null","html-keyboard-response","334","421536","0.0-12.0-0.10","fixation","","","","",""
"1110.4999999515712","Stimuli/Hangul_F94.bmp","188","image-keyboard-response","335","422648","0.0-12.0-1.10","test",".","",",","",""
"null","<div style=""color:white; font-size:60px;"">+</div>","null","html-keyboard-response","336","423650","0.0-12.0-0.11","fixation","","","","",""
"7.095000008121133","Stimuli/Hangul_M75.bmp","188","image-keyboard-response","337","423660","0.0-12.0-1.11","test",",","",",","",""
"null","<div style=""color:white; font-size:60px;"">+</div>","null","html-keyboard-response","338","424664","0.0-12.0-0.12","fixation","","","","",""
"1152.1149999462068","Stimuli/Hangul_F79.bmp","190","image-keyboard-response","339","425818","0.0-12.0-1.12","test",".","",".","",""
"null","<div style=""color:white; font-size:60px;"">+</div>","null","html-keyboard-response","340","426821","0.0-12.0-0.13","fixation","","","","",""
"3370.9300002083182","Stimuli/Hangul_F96.bmp","188","image-keyboard-response","341","430195","0.0-12.0-1.13","test",".","",",","",""
"null","<div style=""color:white; font-size:60px;"">+</div>","null","html-keyboard-response","342","431197","0.0-12.0-0.14","fixation","","","","",""
"456.53999992646277","Stimuli/Hangul_F76.bmp","188","image-keyboard-response","343","431656","0.0-12.0-1.14","test",".","",",","",""
"null","<div style=""color:white; font-size:60px;"">+</div>","null","html-keyboard-response","344","432658","0.0-12.0-0.15","fixation","","","","",""
"156.819999916479","Stimuli/Hangul_F95.bmp","188","image-keyboard-response","345","432816","0.0-12.0-1.15","test",".","",",","",""
"null","<div style=""color:white; font-size:60px;"">+</div>","null","html-keyboard-response","346","433819","0.0-12.0-0.16","fixation","","","","",""
"1099.97499990277","Stimuli/Hangul_M82.bmp","188","image-keyboard-response","347","434923","0.0-12.0-1.16","test",",","",",","",""
"null","<div style=""color:white; font-size:60px;"">+</div>","null","html-keyboard-response","348","435926","0.0-12.0-0.17","fixation","","","","",""
"213.63000012934208","Stimuli/Hangul_M88.bmp","188","image-keyboard-response","349","436142","0.0-12.0-1.17","test",",","",",","",""
"null","<div style=""color:white; font-size:60px;"">+</div>","null","html-keyboard-response","350","437145","0.0-12.0-0.18","fixation","","","","",""
"1324.6899999212474","Stimuli/Hangul_M80.bmp","188","image-keyboard-response","351","438473","0.0-12.0-1.18","test",",","",",","",""
"null","<div style=""color:white; font-size:60px;"">+</div>","null","html-keyboard-response","352","439476","0.0-12.0-0.19","fixation","","","","",""
"2050.8649998810142","Stimuli/Hangul_F84.bmp","188","image-keyboard-response","353","441537","0.0-12.0-1.19","test",".","",",","",""
"null","<div style=""color:white; font-size:60px;"">+</div>","null","html-keyboard-response","354","442540","0.0-12.0-0.20","fixation","","","","",""
"543.695000000298","Stimuli/Hangul_M81.bmp","188","image-keyboard-response","355","443085","0.0-12.0-1.20","test",",","",",","",""
"null","<div style=""color:white; font-size:60px;"">+</div>","null","html-keyboard-response","356","444088","0.0-12.0-0.21","fixation","","","","",""
"1270.8850000053644","Stimuli/Hangul_M79.bmp","188","image-keyboard-response","357","445361","0.0-12.0-1.21","test",",","",",","",""
"null","<div style=""color:white; font-size:60px;"">+</div>","null","html-keyboard-response","358","446364","0.0-12.0-0.22","fixation","","","","",""
"38.880000123754144","Stimuli/Hangul_F93.bmp","188","image-keyboard-response","359","446405","0.0-12.0-1.22","test",".","",",","",""
"null","<div style=""color:white; font-size:60px;"">+</div>","null","html-keyboard-response","360","447408","0.0-12.0-0.23","fixation","","","","",""
"1041.9950000941753","Stimuli/Hangul_F87.bmp","188","image-keyboard-response","361","448452","0.0-12.0-1.23","test",".","",",","",""
"null","<div style=""color:white; font-size:60px;"">+</div>","null","html-keyboard-response","362","449454","0.0-12.0-0.24","fixation","","","","",""
"293.6199998948723","Stimuli/Hangul_F92.bmp","188","image-keyboard-response","363","449750","0.0-12.0-1.24","test",".","",",","",""
"null","<div style=""color:white; font-size:60px;"">+</div>","null","html-keyboard-response","364","450754","0.0-12.0-0.25","fixation","","","","",""
"1065.1749998796731","Stimuli/Hangul_F99.bmp","188","image-keyboard-response","365","451821","0.0-12.0-1.25","test",".","",",","",""
"null","<div style=""color:white; font-size:60px;"">+</div>","null","html-keyboard-response","366","452825","0.0-12.0-0.26","fixation","","","","",""
"4458.845000015572","Stimuli/Hangul_M78.bmp","188","image-keyboard-response","367","457286","0.0-12.0-1.26","test",",","",",","",""
"null","<div style=""color:white; font-size:60px;"">+</div>","null","html-keyboard-response","368","458289","0.0-12.0-0.27","fixation","","","","",""
"2019.6199999190867","Stimuli/Hangul_F85.bmp","188","image-keyboard-response","369","460313","0.0-12.0-1.27","test",".","",",","",""
"null","<div style=""color:white; font-size:60px;"">+</div>","null","html-keyboard-response","370","461316","0.0-12.0-0.28","fixation","","","","",""
"1805.570000084117","Stimuli/Hangul_M94.bmp","188","image-keyboard-response","371","463124","0.0-12.0-1.28","test",",","",",","",""
"null","<div style=""color:white; font-size:60px;"">+</div>","null","html-keyboard-response","372","464127","0.0-12.0-0.29","fixation","","","","",""
"1932.5800000224262","Stimuli/Hangul_F78.bmp","188","image-keyboard-response","373","466062","0.0-12.0-1.29","test",".","",",","",""
"null","<div style=""color:white; font-size:60px;"">+</div>","null","html-keyboard-response","374","467064","0.0-12.0-0.30","fixation","","","","",""
"8196.045000106096","Stimuli/Hangul_M84.bmp","188","image-keyboard-response","375","475263","0.0-12.0-1.30","test",",","",",","",""
"null","<div style=""color:white; font-size:60px;"">+</div>","null","html-keyboard-response","376","476267","0.0-12.0-0.31","fixation","","","","",""
"1704.8049999866635","Stimuli/Hangul_F97.bmp","188","image-keyboard-response","377","477975","0.0-12.0-1.31","test",".","",",","",""
"null","<div style=""color:white; font-size:60px;"">+</div>","null","html-keyboard-response","378","478977","0.0-12.0-0.32","fixation","","","","",""
"1473.075000103563","Stimuli/Hangul_F88.bmp","188","image-keyboard-response","379","480452","0.0-12.0-1.32","test",".","",",","",""
"null","<div style=""color:white; font-size:60px;"">+</div>","null","html-keyboard-response","380","481456","0.0-12.0-0.33","fixation","","","","",""
"1264.740000013262","Stimuli/Hangul_M83.bmp","188","image-keyboard-response","381","482722","0.0-12.0-1.33","test",",","",",","",""
"null","<div style=""color:white; font-size:60px;"">+</div>","null","html-keyboard-response","382","483724","0.0-12.0-0.34","fixation","","","","",""
"1831.1900000553578","Stimuli/Hangul_M97.bmp","188","image-keyboard-response","383","485557","0.0-12.0-1.34","test",",","",",","",""
"null","<div style=""color:white; font-size:60px;"">+</div>","null","html-keyboard-response","384","486560","0.0-12.0-0.35","fixation","","","","",""
"869.1650000400841","Stimuli/Hangul_F86.bmp","188","image-keyboard-response","385","487432","0.0-12.0-1.35","test",".","",",","",""
"null","<div style=""color:white; font-size:60px;"">+</div>","null","html-keyboard-response","386","488435","0.0-12.0-0.36","fixation","","","","",""
"647.1899999305606","Stimuli/Hangul_F89.bmp","190","image-keyboard-response","387","489084","0.0-12.0-1.36","test",".","",".","",""
"null","<div style=""color:white; font-size:60px;"">+</div>","null","html-keyboard-response","388","490087","0.0-12.0-0.37","fixation","","","","",""
"660.3900000918657","Stimuli/Hangul_F81.bmp","190","image-keyboard-response","389","490749","0.0-12.0-1.37","test",".","",".","",""
"null","<div style=""color:white; font-size:60px;"">+</div>","null","html-keyboard-response","390","491752","0.0-12.0-0.38","fixation","","","","",""
"462.4550000298768","Stimuli/Hangul_M76.bmp","190","image-keyboard-response","391","492216","0.0-12.0-1.38","test",",","",".","",""
"null","<div style=""color:white; font-size:60px;"">+</div>","null","html-keyboard-response","392","493219","0.0-12.0-0.39","fixation","","","","",""
"175.51500000990927","Stimuli/Hangul_M77.bmp","190","image-keyboard-response","393","493396","0.0-12.0-1.39","test",",","",".","",""
"null","<div style=""color:white; font-size:60px;"">+</div>","null","html-keyboard-response","394","494399","0.0-12.0-0.40","fixation","","","","",""
"57.55000002682209","Stimuli/Hangul_M91.bmp","190","image-keyboard-response","395","494459","0.0-12.0-1.40","test",",","",".","",""
"null","<div style=""color:white; font-size:60px;"">+</div>","null","html-keyboard-response","396","495461","0.0-12.0-0.41","fixation","","","","",""
"119.94500015862286","Stimuli/Hangul_F90.bmp","190","image-keyboard-response","397","495582","0.0-12.0-1.41","test",".","",".","",""
"null","<div style=""color:white; font-size:60px;"">+</div>","null","html-keyboard-response","398","496584","0.0-12.0-0.42","fixation","","","","",""
"127.39500007592142","Stimuli/Hangul_F91.bmp","190","image-keyboard-response","399","496713","0.0-12.0-1.42","test",".","",".","",""
"null","<div style=""color:white; font-size:60px;"">+</div>","null","html-keyboard-response","400","497717","0.0-12.0-0.43","fixation","","","","",""
"178.33500006236136","Stimuli/Hangul_F75.bmp","188","image-keyboard-response","401","497898","0.0-12.0-1.43","test",".","",",","",""
"null","<div style=""color:white; font-size:60px;"">+</div>","null","html-keyboard-response","402","498901","0.0-12.0-0.44","fixation","","","","",""
"319.2300000227988","Stimuli/Hangul_F80.bmp","188","image-keyboard-response","403","499222","0.0-12.0-1.44","test",".","",",","",""
"null","<div style=""color:white; font-size:60px;"">+</div>","null","html-keyboard-response","404","500225","0.0-12.0-0.45","fixation","","","","",""
"293.6199998948723","Stimuli/Hangul_M90.bmp","190","image-keyboard-response","405","500521","0.0-12.0-1.45","test",",","",".","",""
"null","<div style=""color:white; font-size:60px;"">+</div>","null","html-keyboard-response","406","501523","0.0-12.0-0.46","fixation","","","","",""
"99.48999993503094","Stimuli/Hangul_F82.bmp","190","image-keyboard-response","407","501625","0.0-12.0-1.46","test",".","",".","",""
"null","<div style=""color:white; font-size:60px;"">+</div>","null","html-keyboard-response","408","502628","0.0-12.0-0.47","fixation","","","","",""
"74.55000001937151","Stimuli/Hangul_M96.bmp","188","image-keyboard-response","409","502705","0.0-12.0-1.47","test",",","",",","",""
"null","<div style=""color:white; font-size:60px;"">+</div>","null","html-keyboard-response","410","503708","0.0-12.0-0.48","fixation","","","","",""
"34.020000137388706","Stimuli/Hangul_M89.bmp","188","image-keyboard-response","411","503743","0.0-12.0-1.48","test",",","",",","",""
"null","<div style=""color:white; font-size:60px;"">+</div>","null","html-keyboard-response","412","504747","0.0-12.0-0.49","fixation","","","","",""
"219.35999998822808","Stimuli/Hangul_F77.bmp","188","image-keyboard-response","413","504969","0.0-12.0-1.49","test",".","",",","",""
"5299.355000024661","<p style=""color:white;"">Phase I of the experiment is complete.</p> <p style=""color:white;"">Press the space bar to proceed to Phase II of the experiment.</p> ","32","html-keyboard-response","414","510271","0.0-13.0","","","","","",""
"12393.014999805018","<p style=""color:white;"">Now we are interested in how well you can predict patterns in the series of figures. You will be asked to predict whether the next figure in the series is more male-like or female-like. When you see the <q>Next Figure</q> prompt, press the corresponding response keys to indicate your prediction: </p><p style=""color:white;""> Male &#8594 <q>,</q> (comma)</p><p style=""color:white;""> Female &#8594 <q>.</q> (period)</p><p style=""color:white;"">The actual figure will then appear on the screen. After you see the figure, please guess the assigned gender with response keys. </p><p style=""color:white;"">As before, you will receive 2 cents for correctly classifying each figure.</p><p style=""color:white;"">Press either response keys to continue.</p>","188","html-keyboard-response","415","524668","0.0-14.0","","","","","",""
"2246.460000053048","<p style=""color:white;"">PREDICTION BONUS</p> <p style=""color:white;"">Your prediction accuracy is the total number of correct predictions you make over the 200 trials.</p> <p style=""color:white;"">In addition to the 2 cents per correct figure classification, you have the chance to receive a bonus of 40 dollars IF your accuracy is above average relative to previous participants.</p><p style=""color:white;"">If your accuracy is below average relative to previous participants, then you will not receive the 40 dollar bonus.</p><p style=""color:white;"">Press the space bar to continue.</p>","32","html-keyboard-response","416","526917","0.0-15.0","","","","","",""
"743.2000001426786","<p style=""color:white;"">Here are some examples.</p> <p style=""color:white;"">For each, predict whether the next figure looks more male-like or female-like. Then, when the figure appears, guess whether it looks more male-like or female-like and indicate your choice.</p> <p style=""color:white;"">Press the space bar to continue.</p>","32","html-keyboard-response","417","527663","0.0-16.0","","","","","",""
"1419.71500008367","<p style=""color:white;""> Next Figure: Male or Female? </p>","188","html-keyboard-response","418","531086","0.0-17.0-0.0","prediction_train","","","",",",""
"null","<div style=""color:white; font-size:60px;"">+</div>","null","html-keyboard-response","419","532090","0.0-17.0-1.0","fixation","","","","",""
"3830.3549999836832","Stimuli/Hangul_E0.bmp","188","image-keyboard-response","420","535923","0.0-17.0-2.0","c2_train",",","","","",","
"894.1550001036376","<p style=""color:white;""> Next Figure: Male or Female? </p>","188","html-keyboard-response","421","536820","0.0-17.0-0.1","prediction_train","","","",",",""
"null","<div style=""color:white; font-size:60px;"">+</div>","null","html-keyboard-response","422","537824","0.0-17.0-1.1","fixation","","","","",""
"1208.6799999233335","Stimuli/Hangul_E1.bmp","188","image-keyboard-response","423","539036","0.0-17.0-2.1","c2_train",",","","","",","
"616.7899998836219","<p style=""color:white;""> Next Figure: Male or Female? </p>","188","html-keyboard-response","424","539655","0.0-17.0-0.2","prediction_train","","","",",",""
"null","<div style=""color:white; font-size:60px;"">+</div>","null","html-keyboard-response","425","540657","0.0-17.0-1.2","fixation","","","","",""
"1109.584999969229","Stimuli/Hangul_E2.bmp","188","image-keyboard-response","426","541772","0.0-17.0-2.2","c2_train",".","","","",","
"12424.194999970496","<p style=""color:white;"">Let us begin! Press the space bar when you are ready to start block 1 of 4.</p> ","32","html-keyboard-response","427","554199","0.0-18.0","","","","","",""
"2310.1150000002235","<p style=""color:white;""> Next Figure: Male or Female? </p>","190","html-keyboard-response","428","558515","0.0-19.0-0.0","prediction","","","",".",""
"null","<div style=""color:white; font-size:60px;"">+</div>","null","html-keyboard-response","429","559519","0.0-19.0-1.0","fixation","","","","",""
"2027.0950000267476","Stimuli/Hangul_M24.bmp","188","image-keyboard-response","430","561550","0.0-19.0-2.0","c2_test",",","","","",","
"2019.1150000318885","<p style=""color:white;""> Next Figure: Male or Female? </p>","188","html-keyboard-response","431","563572","0.0-19.0-0.1","prediction","","","",",",""
"null","<div style=""color:white; font-size:60px;"">+</div>","null","html-keyboard-response","432","564576","0.0-19.0-1.1","fixation","","","","",""
"314.26999997347593","Stimuli/Hangul_F9.bmp","188","image-keyboard-response","433","564901","0.0-19.0-2.1","c2_test",".","","","",","
"1023.9049999509007","<p style=""color:white;""> Next Figure: Male or Female? </p>","188","html-keyboard-response","434","565927","0.0-19.0-0.2","prediction","","","",",",""
"null","<div style=""color:white; font-size:60px;"">+</div>","null","html-keyboard-response","435","566930","0.0-19.0-1.2","fixation","","","","",""
"412.8250000067055","Stimuli/Hangul_M8.bmp","188","image-keyboard-response","436","567345","0.0-19.0-2.2","c2_test",",","","","",","
"782.5900001917034","<p style=""color:white;""> Next Figure: Male or Female? </p>","190","html-keyboard-response","437","568130","0.0-19.0-0.3","prediction","","","",".",""
"null","<div style=""color:white; font-size:60px;"">+</div>","null","html-keyboard-response","438","569134","0.0-19.0-1.3","fixation","","","","",""
"77.62499991804361","Stimuli/Hangul_F16.bmp","188","image-keyboard-response","439","569214","0.0-19.0-2.3","c2_test",".","","","",","
"1335.1350000593811","<p style=""color:white;""> Next Figure: Male or Female? </p>","190","html-keyboard-response","440","570550","0.0-19.0-0.4","prediction","","","",".",""
"null","<div style=""color:white; font-size:60px;"">+</div>","null","html-keyboard-response","441","571553","0.0-19.0-1.4","fixation","","","","",""
"2160.135000012815","Stimuli/Hangul_F14.bmp","188","image-keyboard-response","442","573716","0.0-19.0-2.4","c2_test",".","","","",","
"847.3449999000877","<p style=""color:white;""> Next Figure: Male or Female? </p>","190","html-keyboard-response","443","574565","0.0-19.0-0.5","prediction","","","",".",""
"null","<div style=""color:white; font-size:60px;"">+</div>","null","html-keyboard-response","444","575568","0.0-19.0-1.5","fixation","","","","",""
"484.19500002637506","Stimuli/Hangul_F21.bmp","190","image-keyboard-response","445","576055","0.0-19.0-2.5","c2_test",".","","","","."
"1070.1150000095367","<p style=""color:white;""> Next Figure: Male or Female? </p>","190","html-keyboard-response","446","577128","0.0-19.0-0.6","prediction","","","",".",""
"null","<div style=""color:white; font-size:60px;"">+</div>","null","html-keyboard-response","447","578130","0.0-19.0-1.6","fixation","","","","",""
"686.9149999693036","Stimuli/Hangul_F18.bmp","188","image-keyboard-response","448","578819","0.0-19.0-2.6","c2_test",".","","","",","
"788.4899999480695","<p style=""color:white;""> Next Figure: Male or Female? </p>","190","html-keyboard-response","449","579610","0.0-19.0-0.7","prediction","","","",".",""
"null","<div style=""color:white; font-size:60px;"">+</div>","null","html-keyboard-response","450","580613","0.0-19.0-1.7","fixation","","","","",""
"1332.8400000464171","Stimuli/Hangul_F4.bmp","188","image-keyboard-response","451","581949","0.0-19.0-2.7","c2_test",".","","","",","
"267.5250000320375","<p style=""color:white;""> Next Figure: Male or Female? </p>","190","html-keyboard-response","452","582220","0.0-19.0-0.8","prediction","","","",".",""
"null","<div style=""color:white; font-size:60px;"">+</div>","null","html-keyboard-response","453","583223","0.0-19.0-1.8","fixation","","","","",""
"498.0599998962134","Stimuli/Hangul_M18.bmp","190","image-keyboard-response","454","583723","0.0-19.0-2.8","c2_test",",","","","","."
"212.2250001411885","<p style=""color:white;""> Next Figure: Male or Female? </p>","188","html-keyboard-response","455","583937","0.0-19.0-0.9","prediction","","","",",",""
"null","<div style=""color:white; font-size:60px;"">+</div>","null","html-keyboard-response","456","584940","0.0-19.0-1.9","fixation","","","","",""
"246.75000016577542","Stimuli/Hangul_F7.bmp","188","image-keyboard-response","457","585189","0.0-19.0-2.9","c2_test",".","","","",","
"147.07499998621643","<p style=""color:white;""> Next Figure: Male or Female? </p>","190","html-keyboard-response","458","585338","0.0-19.0-0.10","prediction","","","",".",""
"null","<div style=""color:white; font-size:60px;"">+</div>","null","html-keyboard-response","459","586341","0.0-19.0-1.10","fixation","","","","",""
"401.68999996967614","Stimuli/Hangul_M23.bmp","190","image-keyboard-response","460","586745","0.0-19.0-2.10","c2_test",",","","","","."
"241.47999985143542","<p style=""color:white;""> Next Figure: Male or Female? </p>","188","html-keyboard-response","461","586989","0.0-19.0-0.11","prediction","","","",",",""
"null","<div style=""color:white; font-size:60px;"">+</div>","null","html-keyboard-response","462","587991","0.0-19.0-1.11","fixation","","","","",""
"777.2450000047684","Stimuli/Hangul_M7.bmp","188","image-keyboard-response","463","588771","0.0-19.0-2.11","c2_test",",","","","",","
"423.634999897331","<p style=""color:white;""> Next Figure: Male or Female? </p>","190","html-keyboard-response","464","589197","0.0-19.0-0.12","prediction","","","",".",""
"null","<div style=""color:white; font-size:60px;"">+</div>","null","html-keyboard-response","465","590200","0.0-19.0-1.12","fixation","","","","",""
"271.50000003166497","Stimuli/Hangul_F10.bmp","190","image-keyboard-response","466","590473","0.0-19.0-2.12","c2_test",".","","","","."
"82.52500020898879","<p style=""color:white;""> Next Figure: Male or Female? </p>","188","html-keyboard-response","467","590558","0.0-19.0-0.13","prediction","","","",",",""
"null","<div style=""color:white; font-size:60px;"">+</div>","null","html-keyboard-response","468","591561","0.0-19.0-1.13","fixation","","","","",""
"319.9799999129027","Stimuli/Hangul_F0.bmp","188","image-keyboard-response","469","591883","0.0-19.0-2.13","c2_test",".","","","",","
"71.81500014849007","<p style=""color:white;""> Next Figure: Male or Female? </p>","190","html-keyboard-response","470","591960","0.0-19.0-0.14","prediction","","","",".",""
"null","<div style=""color:white; font-size:60px;"">+</div>","null","html-keyboard-response","471","592963","0.0-19.0-1.14","fixation","","","","",""
"18.37499998509884","Stimuli/Hangul_M16.bmp","188","image-keyboard-response","472","592983","0.0-19.0-2.14","c2_test",",","","","",","
"68.13999987207353","<p style=""color:white;""> Next Figure: Male or Female? </p>","190","html-keyboard-response","473","593054","0.0-19.0-0.15","prediction","","","",".",""
"null","<div style=""color:white; font-size:60px;"">+</div>","null","html-keyboard-response","474","594057","0.0-19.0-1.15","fixation","","","","",""
"353.14000002108514","Stimuli/Hangul_F12.bmp","188","image-keyboard-response","475","594412","0.0-19.0-2.15","c2_test",".","","","",","
"141.93499996326864","<p style=""color:white;""> Next Figure: Male or Female? </p>","190","html-keyboard-response","476","594556","0.0-19.0-0.16","prediction","","","",".",""
"null","<div style=""color:white; font-size:60px;"">+</div>","null","html-keyboard-response","477","595561","0.0-19.0-1.16","fixation","","","","",""
"794.9099999386817","Stimuli/Hangul_M0.bmp","188","image-keyboard-response","478","596357","0.0-19.0-2.16","c2_test",",","","","",","
"101.71000007539988","<p style=""color:white;""> Next Figure: Male or Female? </p>","190","html-keyboard-response","479","596461","0.0-19.0-0.17","prediction","","","",".",""
"null","<div style=""color:white; font-size:60px;"">+</div>","null","html-keyboard-response","480","597464","0.0-19.0-1.17","fixation","","","","",""
"878.3999998122454","Stimuli/Hangul_F24.bmp","188","image-keyboard-response","481","598345","0.0-19.0-2.17","c2_test",".","","","",","
"6.820000009611249","<p style=""color:white;""> Next Figure: Male or Female? </p>","190","html-keyboard-response","482","598354","0.0-19.0-0.18","prediction","","","",".",""
"null","<div style=""color:white; font-size:60px;"">+</div>","null","html-keyboard-response","483","599357","0.0-19.0-1.18","fixation","","","","",""
"305.2099999040365","Stimuli/Hangul_F13.bmp","188","image-keyboard-response","484","599664","0.0-19.0-2.18","c2_test",".","","","",","
"144.77999997325242","<p style=""color:white;""> Next Figure: Male or Female? </p>","190","html-keyboard-response","485","599811","0.0-19.0-0.19","prediction","","","",".",""
"null","<div style=""color:white; font-size:60px;"">+</div>","null","html-keyboard-response","486","600814","0.0-19.0-1.19","fixation","","","","",""
"172.1099999267608","Stimuli/Hangul_F17.bmp","188","image-keyboard-response","487","600988","0.0-19.0-2.19","c2_test",".","","","",","
"96.77999978885055","<p style=""color:white;""> Next Figure: Male or Female? </p>","190","html-keyboard-response","488","601086","0.0-19.0-0.20","prediction","","","",".",""
"null","<div style=""color:white; font-size:60px;"">+</div>","null","html-keyboard-response","489","602087","0.0-19.0-1.20","fixation","","","","",""
"987.009999807924","Stimuli/Hangul_F1.bmp","188","image-keyboard-response","490","603076","0.0-19.0-2.20","c2_test",".","","","",","
"151.91999985836446","<p style=""color:white;""> Next Figure: Male or Female? </p>","190","html-keyboard-response","491","603231","0.0-19.0-0.21","prediction","","","",".",""
"null","<div style=""color:white; font-size:60px;"">+</div>","null","html-keyboard-response","492","604234","0.0-19.0-1.21","fixation","","","","",""
"65.3800000436604","Stimuli/Hangul_M2.bmp","188","image-keyboard-response","493","604302","0.0-19.0-2.21","c2_test",",","","","",","
"710.5100001208484","<p style=""color:white;""> Next Figure: Male or Female? </p>","190","html-keyboard-response","494","605017","0.0-19.0-0.22","prediction","","","",".",""
"null","<div style=""color:white; font-size:60px;"">+</div>","null","html-keyboard-response","495","606020","0.0-19.0-1.22","fixation","","","","",""
"509.529999922961","Stimuli/Hangul_M12.bmp","188","image-keyboard-response","496","606531","0.0-19.0-2.22","c2_test",",","","","",","
"71.32000010460615","<p style=""color:white;""> Next Figure: Male or Female? </p>","190","html-keyboard-response","497","606605","0.0-19.0-0.23","prediction","","","",".",""
"null","<div style=""color:white; font-size:60px;"">+</div>","null","html-keyboard-response","498","607607","0.0-19.0-1.23","fixation","","","","",""
"30.99499992094934","Stimuli/Hangul_M5.bmp","188","image-keyboard-response","499","607640","0.0-19.0-2.23","c2_test",",","","","",","
"1390.8700000029057","<p style=""color:white;""> Next Figure: Male or Female? </p>","190","html-keyboard-response","500","609033","0.0-19.0-0.24","prediction","","","",".",""
"null","<div style=""color:white; font-size:60px;"">+</div>","null","html-keyboard-response","501","610037","0.0-19.0-1.24","fixation","","","","",""
"1561.079999897629","Stimuli/Hangul_F6.bmp","190","image-keyboard-response","502","611600","0.0-19.0-2.24","c2_test",".","","","","."
"4.889999981969595","<p style=""color:white;""> Next Figure: Male or Female? </p>","188","html-keyboard-response","503","611607","0.0-19.0-0.25","prediction","","","",",",""
"null","<div style=""color:white; font-size:60px;"">+</div>","null","html-keyboard-response","504","612611","0.0-19.0-1.25","fixation","","","","",""
"934.150000102818","Stimuli/Hangul_M20.bmp","188","image-keyboard-response","505","613548","0.0-19.0-2.25","c2_test",",","","","",","
"54.914999986067414","<p style=""color:white;""> Next Figure: Male or Female? </p>","190","html-keyboard-response","506","613606","0.0-19.0-0.26","prediction","","","",".",""
"null","<div style=""color:white; font-size:60px;"">+</div>","null","html-keyboard-response","507","614608","0.0-19.0-1.26","fixation","","","","",""
"76.37999998405576","Stimuli/Hangul_M6.bmp","188","image-keyboard-response","508","614686","0.0-19.0-2.26","c2_test",",","","","",","
"911.2450000829995","<p style=""color:white;""> Next Figure: Male or Female? </p>","190","html-keyboard-response","509","615600","0.0-19.0-0.27","prediction","","","",".",""
"null","<div style=""color:white; font-size:60px;"">+</div>","null","html-keyboard-response","510","616602","0.0-19.0-1.27","fixation","","","","",""
"1065.910000121221","Stimuli/Hangul_M10.bmp","190","image-keyboard-response","511","617670","0.0-19.0-2.27","c2_test",",","","","","."
"8.339999942108989","<p style=""color:white;""> Next Figure: Male or Female? </p>","188","html-keyboard-response","512","617681","0.0-19.0-0.28","prediction","","","",",",""
"null","<div style=""color:white; font-size:60px;"">+</div>","null","html-keyboard-response","513","618686","0.0-19.0-1.28","fixation","","","","",""
"556.9700000341982","Stimuli/Hangul_M1.bmp","188","image-keyboard-response","514","619246","0.0-19.0-2.28","c2_test",",","","","",","
"11.479999870061874","<p style=""color:white;""> Next Figure: Male or Female? </p>","190","html-keyboard-response","515","619260","0.0-19.0-0.29","prediction","","","",".",""
"null","<div style=""color:white; font-size:60px;"">+</div>","null","html-keyboard-response","516","620262","0.0-19.0-1.29","fixation","","","","",""
"1305.655000032857","Stimuli/Hangul_F8.bmp","188","image-keyboard-response","517","621570","0.0-19.0-2.29","c2_test",".","","","",","
"70.50500018522143","<p style=""color:white;""> Next Figure: Male or Female? </p>","190","html-keyboard-response","518","621644","0.0-19.0-0.30","prediction","","","",".",""
"null","<div style=""color:white; font-size:60px;"">+</div>","null","html-keyboard-response","519","622646","0.0-19.0-1.30","fixation","","","","",""
"1281.2350001186132","Stimuli/Hangul_M14.bmp","188","image-keyboard-response","520","623929","0.0-19.0-2.30","c2_test",",","","","",","
"75.14499989338219","<p style=""color:white;""> Next Figure: Male or Female? </p>","190","html-keyboard-response","521","624007","0.0-19.0-0.31","prediction","","","",".",""
"null","<div style=""color:white; font-size:60px;"">+</div>","null","html-keyboard-response","522","625010","0.0-19.0-1.31","fixation","","","","",""
"293.3200001716614","Stimuli/Hangul_M9.bmp","188","image-keyboard-response","523","625305","0.0-19.0-2.31","c2_test",",","","","",","
"803.370000096038","<p style=""color:white;""> Next Figure: Male or Female? </p>","190","html-keyboard-response","524","626111","0.0-19.0-0.32","prediction","","","",".",""
"null","<div style=""color:white; font-size:60px;"">+</div>","null","html-keyboard-response","525","627115","0.0-19.0-1.32","fixation","","","","",""
"228.82000007666647","Stimuli/Hangul_M11.bmp","188","image-keyboard-response","526","627346","0.0-19.0-2.32","c2_test",",","","","",","
"568.9550000242889","<p style=""color:white;""> Next Figure: Male or Female? </p>","190","html-keyboard-response","527","627917","0.0-19.0-0.33","prediction","","","",".",""
"null","<div style=""color:white; font-size:60px;"">+</div>","null","html-keyboard-response","528","628921","0.0-19.0-1.33","fixation","","","","",""
"1.6649998724460602","Stimuli/Hangul_F15.bmp","188","image-keyboard-response","529","628924","0.0-19.0-2.33","c2_test",".","","","",","
"663.6249998118728","<p style=""color:white;""> Next Figure: Male or Female? </p>","190","html-keyboard-response","530","629590","0.0-19.0-0.34","prediction","","","",".",""
"null","<div style=""color:white; font-size:60px;"">+</div>","null","html-keyboard-response","531","630593","0.0-19.0-1.34","fixation","","","","",""
"465.47000017017126","Stimuli/Hangul_M22.bmp","190","image-keyboard-response","532","631060","0.0-19.0-2.34","c2_test",",","","","","."
"121.64500006474555","<p style=""color:white;""> Next Figure: Male or Female? </p>","188","html-keyboard-response","533","631184","0.0-19.0-0.35","prediction","","","",",",""
"null","<div style=""color:white; font-size:60px;"">+</div>","null","html-keyboard-response","534","632188","0.0-19.0-1.35","fixation","","","","",""
"447.6399999111891","Stimuli/Hangul_F23.bmp","190","image-keyboard-response","535","632637","0.0-19.0-2.35","c2_test",".","","","","."
"1528.6999999079853","<p style=""color:white;""> Next Figure: Male or Female? </p>","188","html-keyboard-response","536","634168","0.0-19.0-0.36","prediction","","","",",",""
"null","<div style=""color:white; font-size:60px;"">+</div>","null","html-keyboard-response","537","635172","0.0-19.0-1.36","fixation","","","","",""
"703.7349999882281","Stimuli/Hangul_M3.bmp","188","image-keyboard-response","538","635879","0.0-19.0-2.36","c2_test",",","","","",","
"766.6449998505414","<p style=""color:white;""> Next Figure: Male or Female? </p>","190","html-keyboard-response","539","636647","0.0-19.0-0.37","prediction","","","",".",""
"null","<div style=""color:white; font-size:60px;"">+</div>","null","html-keyboard-response","540","637650","0.0-19.0-1.37","fixation","","","","",""
"569.2900000140071","Stimuli/Hangul_F20.bmp","190","image-keyboard-response","541","638221","0.0-19.0-2.37","c2_test",".","","","","."
"191.19499996304512","<p style=""color:white;""> Next Figure: Male or Female? </p>","188","html-keyboard-response","542","638415","0.0-19.0-0.38","prediction","","","",",",""
"null","<div style=""color:white; font-size:60px;"">+</div>","null","html-keyboard-response","543","639417","0.0-19.0-1.38","fixation","","","","",""
"601.7650000285357","Stimuli/Hangul_M17.bmp","190","image-keyboard-response","544","640021","0.0-19.0-2.38","c2_test",",","","","","."
"79.39500012435019","<p style=""color:white;""> Next Figure: Male or Female? </p>","188","html-keyboard-response","545","640103","0.0-19.0-0.39","prediction","","","",",",""
"null","<div style=""color:white; font-size:60px;"">+</div>","null","html-keyboard-response","546","641105","0.0-19.0-1.39","fixation","","","","",""
"857.9299999400973","Stimuli/Hangul_F19.bmp","188","image-keyboard-response","547","641966","0.0-19.0-2.39","c2_test",".","","","",","
"91.10500011593103","<p style=""color:white;""> Next Figure: Male or Female? </p>","190","html-keyboard-response","548","642060","0.0-19.0-0.40","prediction","","","",".",""
"null","<div style=""color:white; font-size:60px;"">+</div>","null","html-keyboard-response","549","643065","0.0-19.0-1.40","fixation","","","","",""
"54.659999907016754","Stimuli/Hangul_F5.bmp","190","image-keyboard-response","550","643122","0.0-19.0-2.40","c2_test",".","","","","."
"70.01000014133751","<p style=""color:white;""> Next Figure: Male or Female? </p>","188","html-keyboard-response","551","643195","0.0-19.0-0.41","prediction","","","",",",""
"null","<div style=""color:white; font-size:60px;"">+</div>","null","html-keyboard-response","552","644205","0.0-19.0-1.41","fixation","","","","",""
"1061.5149999503046","Stimuli/Hangul_M15.bmp","190","image-keyboard-response","553","645268","0.0-19.0-2.41","c2_test",",","","","","."
"117.59999999776483","<p style=""color:white;""> Next Figure: Male or Female? </p>","188","html-keyboard-response","554","645387","0.0-19.0-0.42","prediction","","","",",",""
"null","<div style=""color:white; font-size:60px;"">+</div>","null","html-keyboard-response","555","646388","0.0-19.0-1.42","fixation","","","","",""
"237.42999997921288","Stimuli/Hangul_M19.bmp","188","image-keyboard-response","556","646628","0.0-19.0-2.42","c2_test",",","","","",","
"650.1400000415742","<p style=""color:white;""> Next Figure: Male or Female? </p>","190","html-keyboard-response","557","647280","0.0-19.0-0.43","prediction","","","",".",""
"null","<div style=""color:white; font-size:60px;"">+</div>","null","html-keyboard-response","558","648283","0.0-19.0-1.43","fixation","","","","",""
"516.3499999325722","Stimuli/Hangul_F22.bmp","188","image-keyboard-response","559","648802","0.0-19.0-2.43","c2_test",".","","","",","
"105.86499981582165","<p style=""color:white;""> Next Figure: Male or Female? </p>","190","html-keyboard-response","560","648910","0.0-19.0-0.44","prediction","","","",".",""
"null","<div style=""color:white; font-size:60px;"">+</div>","null","html-keyboard-response","561","649913","0.0-19.0-1.44","fixation","","","","",""
"137.83999998122454","Stimuli/Hangul_F11.bmp","190","image-keyboard-response","562","650052","0.0-19.0-2.44","c2_test",".","","","","."
"7.200000109151006","<p style=""color:white;""> Next Figure: Male or Female? </p>","188","html-keyboard-response","563","650062","0.0-19.0-0.45","prediction","","","",",",""
"null","<div style=""color:white; font-size:60px;"">+</div>","null","html-keyboard-response","564","651064","0.0-19.0-1.45","fixation","","","","",""
"394.27999989129603","Stimuli/Hangul_F2.bmp","190","image-keyboard-response","565","651460","0.0-19.0-2.45","c2_test",".","","","","."
"157.48499985784292","<p style=""color:white;""> Next Figure: Male or Female? </p>","188","html-keyboard-response","566","651620","0.0-19.0-0.46","prediction","","","",",",""
"null","<div style=""color:white; font-size:60px;"">+</div>","null","html-keyboard-response","567","652623","0.0-19.0-1.46","fixation","","","","",""
"318.1949998252094","Stimuli/Hangul_F3.bmp","188","image-keyboard-response","568","652943","0.0-19.0-2.46","c2_test",".","","","",","
"66.36000005528331","<p style=""color:white;""> Next Figure: Male or Female? </p>","190","html-keyboard-response","569","653011","0.0-19.0-0.47","prediction","","","",".",""
"null","<div style=""color:white; font-size:60px;"">+</div>","null","html-keyboard-response","570","654016","0.0-19.0-1.47","fixation","","","","",""
"1920.9200001787394","Stimuli/Hangul_M4.bmp","188","image-keyboard-response","571","655939","0.0-19.0-2.47","c2_test",",","","","",","
"54.195000091567636","<p style=""color:white;""> Next Figure: Male or Female? </p>","190","html-keyboard-response","572","655995","0.0-19.0-0.48","prediction","","","",".",""
"null","<div style=""color:white; font-size:60px;"">+</div>","null","html-keyboard-response","573","656999","0.0-19.0-1.48","fixation","","","","",""
"1215.2050000149757","Stimuli/Hangul_M13.bmp","190","image-keyboard-response","574","658217","0.0-19.0-2.48","c2_test",",","","","","."
"47.294999938458204","<p style=""color:white;""> Next Figure: Male or Female? </p>","188","html-keyboard-response","575","658267","0.0-19.0-0.49","prediction","","","",",",""
"null","<div style=""color:white; font-size:60px;"">+</div>","null","html-keyboard-response","576","659270","0.0-19.0-1.49","fixation","","","","",""
"1713.9200000092387","Stimuli/Hangul_M21.bmp","188","image-keyboard-response","577","660986","0.0-19.0-2.49","c2_test",",","","","",","
"5969.434999860823","<p style=""color:white;"">Good job, block 1 complete! Please take a moment to rest.</p> <p style=""color:white;"">When you are ready to continue with block 2 of 4, press the space bar.</p> ","32","html-keyboard-response","578","666958","0.0-20.0","","","","","",""
"391.78499998524785","<p style=""color:white;""> Next Figure: Male or Female? </p>","190","html-keyboard-response","579","669354","0.0-21.0-0.0","prediction","","","",".",""
"null","<div style=""color:white; font-size:60px;"">+</div>","null","html-keyboard-response","580","670357","0.0-21.0-1.0","fixation","","","","",""
"1576.5050000045449","Stimuli/Hangul_F34.bmp","190","image-keyboard-response","581","671937","0.0-21.0-2.0","c2_test",".","","","","."
"1158.6849999148399","<p style=""color:white;""> Next Figure: Male or Female? </p>","190","html-keyboard-response","582","673098","0.0-21.0-0.1","prediction","","","",".",""
"null","<div style=""color:white; font-size:60px;"">+</div>","null","html-keyboard-response","583","674101","0.0-21.0-1.1","fixation","","","","",""
"274.76499998010695","Stimuli/Hangul_F28.bmp","190","image-keyboard-response","584","674379","0.0-21.0-2.1","c2_test",".","","","","."
"616.3800000213087","<p style=""color:white;""> Next Figure: Male or Female? </p>","190","html-keyboard-response","585","674997","0.0-21.0-0.2","prediction","","","",".",""
"null","<div style=""color:white; font-size:60px;"">+</div>","null","html-keyboard-response","586","676001","0.0-21.0-1.2","fixation","","","","",""
"273.31000007689","Stimuli/Hangul_M41.bmp","190","image-keyboard-response","587","676276","0.0-21.0-2.2","c2_test",",","","","","."
"446.61500002257526","<p style=""color:white;""> Next Figure: Male or Female? </p>","190","html-keyboard-response","588","676725","0.0-21.0-0.3","prediction","","","",".",""
"null","<div style=""color:white; font-size:60px;"">+</div>","null","html-keyboard-response","589","677727","0.0-21.0-1.3","fixation","","","","",""
"191.1849998869002","Stimuli/Hangul_F25.bmp","190","image-keyboard-response","590","677921","0.0-21.0-2.3","c2_test",".","","","","."
"446.1000000592321","<p style=""color:white;""> Next Figure: Male or Female? </p>","188","html-keyboard-response","591","678369","0.0-21.0-0.4","prediction","","","",",",""
"null","<div style=""color:white; font-size:60px;"">+</div>","null","html-keyboard-response","592","679372","0.0-21.0-1.4","fixation","","","","",""
"215.10999999009073","Stimuli/Hangul_M37.bmp","188","image-keyboard-response","593","679589","0.0-21.0-2.4","c2_test",",","","","",","
"429.0599999949336","<p style=""color:white;""> Next Figure: Male or Female? </p>","190","html-keyboard-response","594","680021","0.0-21.0-0.5","prediction","","","",".",""
"null","<div style=""color:white; font-size:60px;"">+</div>","null","html-keyboard-response","595","681025","0.0-21.0-1.5","fixation","","","","",""
"56.49499990977347","Stimuli/Hangul_M40.bmp","190","image-keyboard-response","596","681083","0.0-21.0-2.5","c2_test",",","","","","."
"223.2249998487532","<p style=""color:white;""> Next Figure: Male or Female? </p>","190","html-keyboard-response","597","681309","0.0-21.0-0.6","prediction","","","",".",""
"null","<div style=""color:white; font-size:60px;"">+</div>","null","html-keyboard-response","598","682313","0.0-21.0-1.6","fixation","","","","",""
"188.81999980658293","Stimuli/Hangul_F32.bmp","190","image-keyboard-response","599","682504","0.0-21.0-2.6","c2_test",".","","","","."
"296.71999998390675","<p style=""color:white;""> Next Figure: Male or Female? </p>","190","html-keyboard-response","600","682803","0.0-21.0-0.7","prediction","","","",".",""
"null","<div style=""color:white; font-size:60px;"">+</div>","null","html-keyboard-response","601","683805","0.0-21.0-1.7","fixation","","","","",""
"57.05499998293817","Stimuli/Hangul_M44.bmp","190","image-keyboard-response","602","683864","0.0-21.0-2.7","c2_test",",","","","","."
"260.29499992728233","<p style=""color:white;""> Next Figure: Male or Female? </p>","190","html-keyboard-response","603","684127","0.0-21.0-0.8","prediction","","","",".",""
"null","<div style=""color:white; font-size:60px;"">+</div>","null","html-keyboard-response","604","685130","0.0-21.0-1.8","fixation","","","","",""
"29.759999830275774","Stimuli/Hangul_F48.bmp","188","image-keyboard-response","605","685162","0.0-21.0-2.8","c2_test",".","","","",","
"210.77500004321337","<p style=""color:white;""> Next Figure: Male or Female? </p>","188","html-keyboard-response","606","685379","0.0-21.0-0.9","prediction","","","",",",""
"null","<div style=""color:white; font-size:60px;"">+</div>","null","html-keyboard-response","607","686382","0.0-21.0-1.9","fixation","","","","",""
"13.544999994337559","Stimuli/Hangul_M30.bmp","188","image-keyboard-response","608","686398","0.0-21.0-2.9","c2_test",",","","","",","
"206.89000003039837","<p style=""color:white;""> Next Figure: Male or Female? </p>","188","html-keyboard-response","609","686607","0.0-21.0-0.10","prediction","","","",",",""
"null","<div style=""color:white; font-size:60px;"">+</div>","null","html-keyboard-response","610","687611","0.0-21.0-1.10","fixation","","","","",""
"44.8900000192225","Stimuli/Hangul_M34.bmp","188","image-keyboard-response","611","687658","0.0-21.0-2.10","c2_test",",","","","",","
"246.030000038445","<p style=""color:white;""> Next Figure: Male or Female? </p>","188","html-keyboard-response","612","687907","0.0-21.0-0.11","prediction","","","",",",""
"null","<div style=""color:white; font-size:60px;"">+</div>","null","html-keyboard-response","613","688910","0.0-21.0-1.11","fixation","","","","",""
"126.84000004082918","Stimuli/Hangul_F40.bmp","190","image-keyboard-response","614","689039","0.0-21.0-2.11","c2_test",".","","","","."
"237.43500001728535","<p style=""color:white;""> Next Figure: Male or Female? </p>","190","html-keyboard-response","615","689278","0.0-21.0-0.12","prediction","","","",".",""
"null","<div style=""color:white; font-size:60px;"">+</div>","null","html-keyboard-response","616","690283","0.0-21.0-1.12","fixation","","","","",""
"52.71499999798834","Stimuli/Hangul_M46.bmp","188","image-keyboard-response","617","690339","0.0-21.0-2.12","c2_test",",","","","",","
"603.2400000840425","<p style=""color:white;""> Next Figure: Male or Female? </p>","188","html-keyboard-response","618","690945","0.0-21.0-0.13","prediction","","","",",",""
"null","<div style=""color:white; font-size:60px;"">+</div>","null","html-keyboard-response","619","691947","0.0-21.0-1.13","fixation","","","","",""
"341.42499999143183","Stimuli/Hangul_F33.bmp","188","image-keyboard-response","620","692290","0.0-21.0-2.13","c2_test",".","","","",","
"363.20500005967915","<p style=""color:white;""> Next Figure: Male or Female? </p>","188","html-keyboard-response","621","692656","0.0-21.0-0.14","prediction","","","",",",""
"null","<div style=""color:white; font-size:60px;"">+</div>","null","html-keyboard-response","622","693659","0.0-21.0-1.14","fixation","","","","",""
"726.5249998308718","Stimuli/Hangul_M38.bmp","188","image-keyboard-response","623","694388","0.0-21.0-2.14","c2_test",",","","","",","
"824.640000006184","<p style=""color:white;""> Next Figure: Male or Female? </p>","190","html-keyboard-response","624","695214","0.0-21.0-0.15","prediction","","","",".",""
"null","<div style=""color:white; font-size:60px;"">+</div>","null","html-keyboard-response","625","696216","0.0-21.0-1.15","fixation","","","","",""
"41.57499992288649","Stimuli/Hangul_M43.bmp","190","image-keyboard-response","626","696260","0.0-21.0-2.15","c2_test",",","","","","."
"284.3400000128895","<p style=""color:white;""> Next Figure: Male or Female? </p>","188","html-keyboard-response","627","696547","0.0-21.0-0.16","prediction","","","",",",""
"null","<div style=""color:white; font-size:60px;"">+</div>","null","html-keyboard-response","628","697550","0.0-21.0-1.16","fixation","","","","",""
"85.23999992758036","Stimuli/Hangul_M49.bmp","190","image-keyboard-response","629","697638","0.0-21.0-2.16","c2_test",",","","","","."
"164.18499988503754","<p style=""color:white;""> Next Figure: Male or Female? </p>","188","html-keyboard-response","630","697804","0.0-21.0-0.17","prediction","","","",",",""
"null","<div style=""color:white; font-size:60px;"">+</div>","null","html-keyboard-response","631","698807","0.0-21.0-1.17","fixation","","","","",""
"109.84999989159405","Stimuli/Hangul_M25.bmp","190","image-keyboard-response","632","698919","0.0-21.0-2.17","c2_test",",","","","","."
"6.86999992467463","<p style=""color:white;""> Next Figure: Male or Female? </p>","188","html-keyboard-response","633","698928","0.0-21.0-0.18","prediction","","","",",",""
"null","<div style=""color:white; font-size:60px;"">+</div>","null","html-keyboard-response","634","699931","0.0-21.0-1.18","fixation","","","","",""
"224.27499992772937","Stimuli/Hangul_M26.bmp","190","image-keyboard-response","635","700158","0.0-21.0-2.18","c2_test",",","","","","."
"47.0699998550117","<p style=""color:white;""> Next Figure: Male or Female? </p>","188","html-keyboard-response","636","700207","0.0-21.0-0.19","prediction","","","",",",""
"null","<div style=""color:white; font-size:60px;"">+</div>","null","html-keyboard-response","637","701210","0.0-21.0-1.19","fixation","","","","",""
"429.9449999816716","Stimuli/Hangul_M39.bmp","190","image-keyboard-response","638","701642","0.0-21.0-2.19","c2_test",",","","","","."
"145.55000001564622","<p style=""color:white;""> Next Figure: Male or Female? </p>","188","html-keyboard-response","639","701791","0.0-21.0-0.20","prediction","","","",",",""
"null","<div style=""color:white; font-size:60px;"">+</div>","null","html-keyboard-response","640","702794","0.0-21.0-1.20","fixation","","","","",""
"346.9999998342246","Stimuli/Hangul_M36.bmp","190","image-keyboard-response","641","703143","0.0-21.0-2.20","c2_test",",","","","","."
"54.315000073984265","<p style=""color:white;""> Next Figure: Male or Female? </p>","188","html-keyboard-response","642","703200","0.0-21.0-0.21","prediction","","","",",",""
"null","<div style=""color:white; font-size:60px;"">+</div>","null","html-keyboard-response","643","704203","0.0-21.0-1.21","fixation","","","","",""
"133.39500012807548","Stimuli/Hangul_F44.bmp","190","image-keyboard-response","644","704339","0.0-21.0-2.21","c2_test",".","","","","."
"70.33499982208014","<p style=""color:white;""> Next Figure: Male or Female? </p>","188","html-keyboard-response","645","704411","0.0-21.0-0.22","prediction","","","",",",""
"null","<div style=""color:white; font-size:60px;"">+</div>","null","html-keyboard-response","646","705414","0.0-21.0-1.22","fixation","","","","",""
"2721.529999980703","Stimuli/Hangul_F41.bmp","190","image-keyboard-response","647","708137","0.0-21.0-2.22","c2_test",".","","","","."
"442.9699999745935","<p style=""color:white;""> Next Figure: Male or Female? </p>","188","html-keyboard-response","648","708581","0.0-21.0-0.23","prediction","","","",",",""
"null","<div style=""color:white; font-size:60px;"">+</div>","null","html-keyboard-response","649","709584","0.0-21.0-1.23","fixation","","","","",""
"169.20999996364117","Stimuli/Hangul_M45.bmp","190","image-keyboard-response","650","709757","0.0-21.0-2.23","c2_test",",","","","","."
"105.56500009261072","<p style=""color:white;""> Next Figure: Male or Female? </p>","188","html-keyboard-response","651","709865","0.0-21.0-0.24","prediction","","","",",",""
"null","<div style=""color:white; font-size:60px;"">+</div>","null","html-keyboard-response","652","710868","0.0-21.0-1.24","fixation","","","","",""
"1478.31999999471","Stimuli/Hangul_M32.bmp","190","image-keyboard-response","653","712348","0.0-21.0-2.24","c2_test",",","","","","."
"9.520000079646707","<p style=""color:white;""> Next Figure: Male or Female? </p>","188","html-keyboard-response","654","712360","0.0-21.0-0.25","prediction","","","",",",""
"null","<div style=""color:white; font-size:60px;"">+</div>","null","html-keyboard-response","655","713364","0.0-21.0-1.25","fixation","","","","",""
"449.9349999241531","Stimuli/Hangul_M48.bmp","190","image-keyboard-response","656","713817","0.0-21.0-2.25","c2_test",",","","","","."
"7.295000134035945","<p style=""color:white;""> Next Figure: Male or Female? </p>","188","html-keyboard-response","657","713826","0.0-21.0-0.26","prediction","","","",",",""
