"rt","stimulus","key_press","trial_type","trial_index","time_elapsed","internal_node_id","test_part","correct_response","C1_train","C1","A","C2"
"1579.9600000027567","<p style=""color:white;"">Welcome to the experiment! Press any key to begin.</p>","32","html-keyboard-response","0","1587","0.0-0.0","","","","","",""
"7802.575000037905","<p style=""color:white;"">You will see a series of abstract figures. They are adaptations of signs in the Korean alphabet, but that is not important for this study. </p><p style=""color:white;"">Abstract figures sometimes have a more masculine or feminine shape. Here, each figure has already been assigned a gender as <q>Male</q> or <q>Female</q> by a panel of respondents in a pilot study. The respondents were not given specific instructions on how to do this, but were only told to use their intuition and to take into account the entire configuration of the stimulus. </p><p style=""color:white;"">Your task now is to guess the assigned gender of each figure. Please press the corresponding response keys to indicate your choice: </p><p style=""color:white;""> Male &#8594 <q>,</q> (comma)</p><p style=""color:white;""> Female &#8594 <q>.</q> (period)</p><p style=""color:white;"">Press either response keys to continue.</p>","188","html-keyboard-response","1","9391","0.0-1.0","","","","","",""
"2682.5100000132807","<p style=""color:white;"">Your choice is correct if it matches the gender assigned by the majority of respondents in the pilot study.</p> <p style=""color:white;"">For each correct choice you will receive 2 cents. There will be 200 trials divided into 4 blocks of 50 trials. You will be able to take a break after every 50 trials.</p> <p style=""color:white;"">Press the space bar to continue.</p>","32","html-keyboard-response","2","12074","0.0-2.0","","","","","",""
"1265.0900000007823","<p style=""color:white;"">Here are some examples.</p> <p style=""color:white;"">For each, guess whether the assigned figure is male-like or female-like and indicate your choice by pressing either response keys.</p> <p style=""color:white;"">Press the space bar to continue.</p>","32","html-keyboard-response","3","13340","0.0-3.0","","","","","",""
"null","<div style=""color:white; font-size:60px;"">+</div>","null","html-keyboard-response","4","16342","0.0-4.0-0.0","fixation","","","","",""
"1245.824999990873","Stimuli/Hangul_E1.bmp","190","image-keyboard-response","5","17590","0.0-4.0-1.0","c1_train",",",".","","",""
"null","<div style=""color:white; font-size:60px;"">+</div>","null","html-keyboard-response","6","18592","0.0-4.0-0.1","fixation","","","","",""
"652.9350000200793","Stimuli/Hangul_E2.bmp","188","image-keyboard-response","7","19245","0.0-4.0-1.1","c1_train",".",",","","",""
"null","<div style=""color:white; font-size:60px;"">+</div>","null","html-keyboard-response","8","20247","0.0-4.0-0.2","fixation","","","","",""
"753.1399999861605","Stimuli/Hangul_E0.bmp","188","image-keyboard-response","9","21001","0.0-4.0-1.2","c1_train",",",",","","",""
"986.1750000272878","<p style=""color:white;"">Let us begin! Press the space bar when you are ready to start block 1 of 4.</p> ","32","html-keyboard-response","10","21987","0.0-5.0","","","","","",""
"null","<div style=""color:white; font-size:60px;"">+</div>","null","html-keyboard-response","11","24992","0.0-6.0-0.0","fixation","","","","",""
"646.0349999833852","Stimuli/Hangul_F10.bmp","190","image-keyboard-response","12","25639","0.0-6.0-1.0","test",".","",".","",""
"null","<div style=""color:white; font-size:60px;"">+</div>","null","html-keyboard-response","13","26641","0.0-6.0-0.1","fixation","","","","",""
"628.5999999963678","Stimuli/Hangul_M3.bmp","190","image-keyboard-response","14","27271","0.0-6.0-1.1","test",",","",".","",""
"null","<div style=""color:white; font-size:60px;"">+</div>","null","html-keyboard-response","15","28273","0.0-6.0-0.2","fixation","","","","",""
"564.0349999885075","Stimuli/Hangul_M19.bmp","188","image-keyboard-response","16","28837","0.0-6.0-1.2","test",",","",",","",""
"null","<div style=""color:white; font-size:60px;"">+</div>","null","html-keyboard-response","17","29838","0.0-6.0-0.3","fixation","","","","",""
"448.22500000009313","Stimuli/Hangul_M23.bmp","190","image-keyboard-response","18","30287","0.0-6.0-1.3","test",",","",".","",""
"null","<div style=""color:white; font-size:60px;"">+</div>","null","html-keyboard-response","19","31288","0.0-6.0-0.4","fixation","","","","",""
"482.02500003390014","Stimuli/Hangul_F13.bmp","188","image-keyboard-response","20","31771","0.0-6.0-1.4","test",".","",",","",""
"null","<div style=""color:white; font-size:60px;"">+</div>","null","html-keyboard-response","21","32772","0.0-6.0-0.5","fixation","","","","",""
"482.42000001482666","Stimuli/Hangul_F23.bmp","188","image-keyboard-response","22","33256","0.0-6.0-1.5","test",".","",",","",""
"null","<div style=""color:white; font-size:60px;"">+</div>","null","html-keyboard-response","23","34258","0.0-6.0-0.6","fixation","","","","",""
"602.6200000196695","Stimuli/Hangul_F22.bmp","190","image-keyboard-response","24","34862","0.0-6.0-1.6","test",".","",".","",""
"null","<div style=""color:white; font-size:60px;"">+</div>","null","html-keyboard-response","25","35871","0.0-6.0-0.7","fixation","","","","",""
"395.4399999929592","Stimuli/Hangul_M5.bmp","190","image-keyboard-response","26","36268","0.0-6.0-1.7","test",",","",".","",""
"null","<div style=""color:white; font-size:60px;"">+</div>","null","html-keyboard-response","27","37271","0.0-6.0-0.8","fixation","","","","",""
"393.7199999927543","Stimuli/Hangul_M4.bmp","188","image-keyboard-response","28","37665","0.0-6.0-1.8","test",",","",",","",""
"null","<div style=""color:white; font-size:60px;"">+</div>","null","html-keyboard-response","29","38667","0.0-6.0-0.9","fixation","","","","",""
"239.62499998742715","Stimuli/Hangul_M9.bmp","188","image-keyboard-response","30","38907","0.0-6.0-1.9","test",",","",",","",""
"null","<div style=""color:white; font-size:60px;"">+</div>","null","html-keyboard-response","31","39909","0.0-6.0-0.10","fixation","","","","",""
"569.725000008475","Stimuli/Hangul_M11.bmp","188","image-keyboard-response","32","40479","0.0-6.0-1.10","test",",","",",","",""
"null","<div style=""color:white; font-size:60px;"">+</div>","null","html-keyboard-response","33","41481","0.0-6.0-0.11","fixation","","","","",""
"358.6900000227615","Stimuli/Hangul_F15.bmp","190","image-keyboard-response","34","41840","0.0-6.0-1.11","test",".","",".","",""
"null","<div style=""color:white; font-size:60px;"">+</div>","null","html-keyboard-response","35","42842","0.0-6.0-0.12","fixation","","","","",""
"648.4099999652244","Stimuli/Hangul_F17.bmp","188","image-keyboard-response","36","43492","0.0-6.0-1.12","test",".","",",","",""
"null","<div style=""color:white; font-size:60px;"">+</div>","null","html-keyboard-response","37","44494","0.0-6.0-0.13","fixation","","","","",""
"380.1200000452809","Stimuli/Hangul_F16.bmp","188","image-keyboard-response","38","44875","0.0-6.0-1.13","test",".","",",","",""
"null","<div style=""color:white; font-size:60px;"">+</div>","null","html-keyboard-response","39","45877","0.0-6.0-0.14","fixation","","","","",""
"702.4999999557622","Stimuli/Hangul_M15.bmp","188","image-keyboard-response","40","46580","0.0-6.0-1.14","test",",","",",","",""
"null","<div style=""color:white; font-size:60px;"">+</div>","null","html-keyboard-response","41","47581","0.0-6.0-0.15","fixation","","","","",""
"631.7900000140071","Stimuli/Hangul_F4.bmp","188","image-keyboard-response","42","48213","0.0-6.0-1.15","test",".","",",","",""
"null","<div style=""color:white; font-size:60px;"">+</div>","null","html-keyboard-response","43","49215","0.0-6.0-0.16","fixation","","","","",""
"648.6349999904633","Stimuli/Hangul_F20.bmp","190","image-keyboard-response","44","49864","0.0-6.0-1.16","test",".","",".","",""
"null","<div style=""color:white; font-size:60px;"">+</div>","null","html-keyboard-response","45","50866","0.0-6.0-0.17","fixation","","","","",""
"595.7500000367872","Stimuli/Hangul_F11.bmp","188","image-keyboard-response","46","51462","0.0-6.0-1.17","test",".","",",","",""
"null","<div style=""color:white; font-size:60px;"">+</div>","null","html-keyboard-response","47","52465","0.0-6.0-0.18","fixation","","","","",""
"631.775000016205","Stimuli/Hangul_M7.bmp","190","image-keyboard-response","48","53097","0.0-6.0-1.18","test",",","",".","",""
"null","<div style=""color:white; font-size:60px;"">+</div>","null","html-keyboard-response","49","54100","0.0-6.0-0.19","fixation","","","","",""
"534.3799999682233","Stimuli/Hangul_F12.bmp","190","image-keyboard-response","50","54635","0.0-6.0-1.19","test",".","",".","",""
"null","<div style=""color:white; font-size:60px;"">+</div>","null","html-keyboard-response","51","55636","0.0-6.0-0.20","fixation","","","","",""
"736.5500000305474","Stimuli/Hangul_F7.bmp","190","image-keyboard-response","52","56373","0.0-6.0-1.20","test",".","",".","",""
"null","<div style=""color:white; font-size:60px;"">+</div>","null","html-keyboard-response","53","57374","0.0-6.0-0.21","fixation","","","","",""
"595.1899999636225","Stimuli/Hangul_F0.bmp","190","image-keyboard-response","54","57970","0.0-6.0-1.21","test",".","",".","",""
"null","<div style=""color:white; font-size:60px;"">+</div>","null","html-keyboard-response","55","58972","0.0-6.0-0.22","fixation","","","","",""
"483.7699999916367","Stimuli/Hangul_F3.bmp","188","image-keyboard-response","56","59456","0.0-6.0-1.22","test",".","",",","",""
"null","<div style=""color:white; font-size:60px;"">+</div>","null","html-keyboard-response","57","60458","0.0-6.0-0.23","fixation","","","","",""
"617.6300000515766","Stimuli/Hangul_M0.bmp","188","image-keyboard-response","58","61077","0.0-6.0-1.23","test",",","",",","",""
"null","<div style=""color:white; font-size:60px;"">+</div>","null","html-keyboard-response","59","62078","0.0-6.0-0.24","fixation","","","","",""
"543.1949999765493","Stimuli/Hangul_F21.bmp","190","image-keyboard-response","60","62622","0.0-6.0-1.24","test",".","",".","",""
"null","<div style=""color:white; font-size:60px;"">+</div>","null","html-keyboard-response","61","63624","0.0-6.0-0.25","fixation","","","","",""
"536.4000000408851","Stimuli/Hangul_M8.bmp","190","image-keyboard-response","62","64161","0.0-6.0-1.25","test",",","",".","",""
"null","<div style=""color:white; font-size:60px;"">+</div>","null","html-keyboard-response","63","65163","0.0-6.0-0.26","fixation","","","","",""
"578.2950000138953","Stimuli/Hangul_M20.bmp","190","image-keyboard-response","64","65743","0.0-6.0-1.26","test",",","",".","",""
"null","<div style=""color:white; font-size:60px;"">+</div>","null","html-keyboard-response","65","66744","0.0-6.0-0.27","fixation","","","","",""
"579.1350000072271","Stimuli/Hangul_M6.bmp","190","image-keyboard-response","66","67324","0.0-6.0-1.27","test",",","",".","",""
"null","<div style=""color:white; font-size:60px;"">+</div>","null","html-keyboard-response","67","68325","0.0-6.0-0.28","fixation","","","","",""
"563.6650000233203","Stimuli/Hangul_M2.bmp","190","image-keyboard-response","68","68891","0.0-6.0-1.28","test",",","",".","",""
"null","<div style=""color:white; font-size:60px;"">+</div>","null","html-keyboard-response","69","69894","0.0-6.0-0.29","fixation","","","","",""
"624.950000026729","Stimuli/Hangul_F9.bmp","188","image-keyboard-response","70","70519","0.0-6.0-1.29","test",".","",",","",""
"null","<div style=""color:white; font-size:60px;"">+</div>","null","html-keyboard-response","71","71521","0.0-6.0-0.30","fixation","","","","",""
"607.7199999708682","Stimuli/Hangul_M21.bmp","190","image-keyboard-response","72","72129","0.0-6.0-1.30","test",",","",".","",""
"null","<div style=""color:white; font-size:60px;"">+</div>","null","html-keyboard-response","73","73131","0.0-6.0-0.31","fixation","","","","",""
"586.3149999640882","Stimuli/Hangul_F14.bmp","190","image-keyboard-response","74","73718","0.0-6.0-1.31","test",".","",".","",""
"null","<div style=""color:white; font-size:60px;"">+</div>","null","html-keyboard-response","75","74720","0.0-6.0-0.32","fixation","","","","",""
"619.9950000154786","Stimuli/Hangul_F6.bmp","188","image-keyboard-response","76","75341","0.0-6.0-1.32","test",".","",",","",""
"null","<div style=""color:white; font-size:60px;"">+</div>","null","html-keyboard-response","77","76342","0.0-6.0-0.33","fixation","","","","",""
"618.8100000144914","Stimuli/Hangul_M22.bmp","188","image-keyboard-response","78","76961","0.0-6.0-1.33","test",",","",",","",""
"null","<div style=""color:white; font-size:60px;"">+</div>","null","html-keyboard-response","79","77962","0.0-6.0-0.34","fixation","","","","",""
"647.8249999927357","Stimuli/Hangul_M17.bmp","188","image-keyboard-response","80","78611","0.0-6.0-1.34","test",",","",",","",""
"null","<div style=""color:white; font-size:60px;"">+</div>","null","html-keyboard-response","81","79613","0.0-6.0-0.35","fixation","","","","",""
"936.9799999985844","Stimuli/Hangul_M12.bmp","188","image-keyboard-response","82","80550","0.0-6.0-1.35","test",",","",",","",""
"null","<div style=""color:white; font-size:60px;"">+</div>","null","html-keyboard-response","83","81552","0.0-6.0-0.36","fixation","","","","",""
"508.3349999622442","Stimuli/Hangul_M10.bmp","190","image-keyboard-response","84","82061","0.0-6.0-1.36","test",",","",".","",""
"null","<div style=""color:white; font-size:60px;"">+</div>","null","html-keyboard-response","85","83062","0.0-6.0-0.37","fixation","","","","",""
"1364.6399999852292","Stimuli/Hangul_M14.bmp","190","image-keyboard-response","86","84427","0.0-6.0-1.37","test",",","",".","",""
"null","<div style=""color:white; font-size:60px;"">+</div>","null","html-keyboard-response","87","85429","0.0-6.0-0.38","fixation","","","","",""
"816.2299999967217","Stimuli/Hangul_F2.bmp","190","image-keyboard-response","88","86246","0.0-6.0-1.38","test",".","",".","",""
"null","<div style=""color:white; font-size:60px;"">+</div>","null","html-keyboard-response","89","87248","0.0-6.0-0.39","fixation","","","","",""
"642.1700000064448","Stimuli/Hangul_M13.bmp","188","image-keyboard-response","90","87891","0.0-6.0-1.39","test",",","",",","",""
"null","<div style=""color:white; font-size:60px;"">+</div>","null","html-keyboard-response","91","88893","0.0-6.0-0.40","fixation","","","","",""
"632.6450000051409","Stimuli/Hangul_F24.bmp","188","image-keyboard-response","92","89526","0.0-6.0-1.40","test",".","",",","",""
"null","<div style=""color:white; font-size:60px;"">+</div>","null","html-keyboard-response","93","90528","0.0-6.0-0.41","fixation","","","","",""
"648.5550000215881","Stimuli/Hangul_M18.bmp","190","image-keyboard-response","94","91177","0.0-6.0-1.41","test",",","",".","",""
"null","<div style=""color:white; font-size:60px;"">+</div>","null","html-keyboard-response","95","92180","0.0-6.0-0.42","fixation","","","","",""
"669.9599999701604","Stimuli/Hangul_M24.bmp","190","image-keyboard-response","96","92851","0.0-6.0-1.42","test",",","",".","",""
"null","<div style=""color:white; font-size:60px;"">+</div>","null","html-keyboard-response","97","93852","0.0-6.0-0.43","fixation","","","","",""
"712.6849999767728","Stimuli/Hangul_F1.bmp","188","image-keyboard-response","98","94565","0.0-6.0-1.43","test",".","",",","",""
"null","<div style=""color:white; font-size:60px;"">+</div>","null","html-keyboard-response","99","95567","0.0-6.0-0.44","fixation","","","","",""
"583.9200000045821","Stimuli/Hangul_M1.bmp","190","image-keyboard-response","100","96151","0.0-6.0-1.44","test",",","",".","",""
"null","<div style=""color:white; font-size:60px;"">+</div>","null","html-keyboard-response","101","97153","0.0-6.0-0.45","fixation","","","","",""
"588.8249999843538","Stimuli/Hangul_F8.bmp","190","image-keyboard-response","102","97743","0.0-6.0-1.45","test",".","",".","",""
"null","<div style=""color:white; font-size:60px;"">+</div>","null","html-keyboard-response","103","98744","0.0-6.0-0.46","fixation","","","","",""
"798.6650000093505","Stimuli/Hangul_F5.bmp","190","image-keyboard-response","104","99544","0.0-6.0-1.46","test",".","",".","",""
"null","<div style=""color:white; font-size:60px;"">+</div>","null","html-keyboard-response","105","100546","0.0-6.0-0.47","fixation","","","","",""
"733.1950000370853","Stimuli/Hangul_F19.bmp","188","image-keyboard-response","106","101287","0.0-6.0-1.47","test",".","",",","",""
"null","<div style=""color:white; font-size:60px;"">+</div>","null","html-keyboard-response","107","102290","0.0-6.0-0.48","fixation","","","","",""
"981.03500000434","Stimuli/Hangul_M16.bmp","188","image-keyboard-response","108","103271","0.0-6.0-1.48","test",",","",",","",""
"null","<div style=""color:white; font-size:60px;"">+</div>","null","html-keyboard-response","109","104273","0.0-6.0-0.49","fixation","","","","",""
"824.2800000007264","Stimuli/Hangul_F18.bmp","188","image-keyboard-response","110","105097","0.0-6.0-1.49","test",".","",",","",""
"2373.9049999858253","<p style=""color:white;"">Good job, block 1 complete! Please take a moment to rest.</p> <p style=""color:white;"">When you are ready to continue with block 2 of 4, press the space bar.</p> ","32","html-keyboard-response","111","107472","0.0-7.0","","","","","",""
"null","<div style=""color:white; font-size:60px;"">+</div>","null","html-keyboard-response","112","110474","0.0-8.0-0.0","fixation","","","","",""
"799.135000037495","Stimuli/Hangul_M48.bmp","190","image-keyboard-response","113","111274","0.0-8.0-1.0","test",",","",".","",""
"null","<div style=""color:white; font-size:60px;"">+</div>","null","html-keyboard-response","114","112275","0.0-8.0-0.1","fixation","","","","",""
"758.7350000394508","Stimuli/Hangul_F42.bmp","190","image-keyboard-response","115","113035","0.0-8.0-1.1","test",".","",".","",""
"null","<div style=""color:white; font-size:60px;"">+</div>","null","html-keyboard-response","116","114037","0.0-8.0-0.2","fixation","","","","",""
"645.8800000254996","Stimuli/Hangul_M45.bmp","190","image-keyboard-response","117","114684","0.0-8.0-1.2","test",",","",".","",""
"null","<div style=""color:white; font-size:60px;"">+</div>","null","html-keyboard-response","118","115685","0.0-8.0-0.3","fixation","","","","",""
"681.6000000108033","Stimuli/Hangul_F35.bmp","190","image-keyboard-response","119","116368","0.0-8.0-1.3","test",".","",".","",""
"null","<div style=""color:white; font-size:60px;"">+</div>","null","html-keyboard-response","120","117370","0.0-8.0-0.4","fixation","","","","",""
"707.1250000153668","Stimuli/Hangul_F41.bmp","190","image-keyboard-response","121","118078","0.0-8.0-1.4","test",".","",".","",""
"null","<div style=""color:white; font-size:60px;"">+</div>","null","html-keyboard-response","122","119081","0.0-8.0-0.5","fixation","","","","",""
"755.78000000678","Stimuli/Hangul_F30.bmp","188","image-keyboard-response","123","119838","0.0-8.0-1.5","test",".","",",","",""
"null","<div style=""color:white; font-size:60px;"">+</div>","null","html-keyboard-response","124","120840","0.0-8.0-0.6","fixation","","","","",""
"852.2699999739416","Stimuli/Hangul_F27.bmp","188","image-keyboard-response","125","121697","0.0-8.0-1.6","test",".","",",","",""
"null","<div style=""color:white; font-size:60px;"">+</div>","null","html-keyboard-response","126","122699","0.0-8.0-0.7","fixation","","","","",""
"637.3749999911524","Stimuli/Hangul_M32.bmp","190","image-keyboard-response","127","123338","0.0-8.0-1.7","test",",","",".","",""
"null","<div style=""color:white; font-size:60px;"">+</div>","null","html-keyboard-response","128","124340","0.0-8.0-0.8","fixation","","","","",""
"594.0950000076555","Stimuli/Hangul_F47.bmp","190","image-keyboard-response","129","124935","0.0-8.0-1.8","test",".","",".","",""
"null","<div style=""color:white; font-size:60px;"">+</div>","null","html-keyboard-response","130","125937","0.0-8.0-0.9","fixation","","","","",""
"440.2400000253692","Stimuli/Hangul_M44.bmp","188","image-keyboard-response","131","126377","0.0-8.0-1.9","test",",","",",","",""
"null","<div style=""color:white; font-size:60px;"">+</div>","null","html-keyboard-response","132","127379","0.0-8.0-0.10","fixation","","","","",""
"547.1350000007078","Stimuli/Hangul_M46.bmp","188","image-keyboard-response","133","127927","0.0-8.0-1.10","test",",","",",","",""
"null","<div style=""color:white; font-size:60px;"">+</div>","null","html-keyboard-response","134","128929","0.0-8.0-0.11","fixation","","","","",""
"619.9950000154786","Stimuli/Hangul_F46.bmp","188","image-keyboard-response","135","129550","0.0-8.0-1.11","test",".","",",","",""
"null","<div style=""color:white; font-size:60px;"">+</div>","null","html-keyboard-response","136","130551","0.0-8.0-0.12","fixation","","","","",""
"613.7849999940954","Stimuli/Hangul_F45.bmp","190","image-keyboard-response","137","131165","0.0-8.0-1.12","test",".","",".","",""
"null","<div style=""color:white; font-size:60px;"">+</div>","null","html-keyboard-response","138","132166","0.0-8.0-0.13","fixation","","","","",""
"585.4800000088289","Stimuli/Hangul_M26.bmp","190","image-keyboard-response","139","132752","0.0-8.0-1.13","test",",","",".","",""
"null","<div style=""color:white; font-size:60px;"">+</div>","null","html-keyboard-response","140","133754","0.0-8.0-0.14","fixation","","","","",""
"420.4950000275858","Stimuli/Hangul_M41.bmp","190","image-keyboard-response","141","134175","0.0-8.0-1.14","test",",","",".","",""
"null","<div style=""color:white; font-size:60px;"">+</div>","null","html-keyboard-response","142","135176","0.0-8.0-0.15","fixation","","","","",""
"554.6300000278279","Stimuli/Hangul_F40.bmp","188","image-keyboard-response","143","135731","0.0-8.0-1.15","test",".","",",","",""
"null","<div style=""color:white; font-size:60px;"">+</div>","null","html-keyboard-response","144","136732","0.0-8.0-0.16","fixation","","","","",""
"639.9099999689497","Stimuli/Hangul_F25.bmp","190","image-keyboard-response","145","137373","0.0-8.0-1.16","test",".","",".","",""
"null","<div style=""color:white; font-size:60px;"">+</div>","null","html-keyboard-response","146","138375","0.0-8.0-0.17","fixation","","","","",""
"448.4449999872595","Stimuli/Hangul_M30.bmp","190","image-keyboard-response","147","138823","0.0-8.0-1.17","test",",","",".","",""
"null","<div style=""color:white; font-size:60px;"">+</div>","null","html-keyboard-response","148","139825","0.0-8.0-0.18","fixation","","","","",""
"403.7499999976717","Stimuli/Hangul_M43.bmp","188","image-keyboard-response","149","140230","0.0-8.0-1.18","test",",","",",","",""
"null","<div style=""color:white; font-size:60px;"">+</div>","null","html-keyboard-response","150","141231","0.0-8.0-0.19","fixation","","","","",""
"608.7600000319071","Stimuli/Hangul_M31.bmp","188","image-keyboard-response","151","141841","0.0-8.0-1.19","test",",","",",","",""
"null","<div style=""color:white; font-size:60px;"">+</div>","null","html-keyboard-response","152","142842","0.0-8.0-0.20","fixation","","","","",""
"577.6949999853969","Stimuli/Hangul_M38.bmp","190","image-keyboard-response","153","143420","0.0-8.0-1.20","test",",","",".","",""
"null","<div style=""color:white; font-size:60px;"">+</div>","null","html-keyboard-response","154","144422","0.0-8.0-0.21","fixation","","","","",""
"519.8149999487214","Stimuli/Hangul_F29.bmp","190","image-keyboard-response","155","144942","0.0-8.0-1.21","test",".","",".","",""
"null","<div style=""color:white; font-size:60px;"">+</div>","null","html-keyboard-response","156","145943","0.0-8.0-0.22","fixation","","","","",""
"566.9500000076368","Stimuli/Hangul_M40.bmp","188","image-keyboard-response","157","146511","0.0-8.0-1.22","test",",","",",","",""
"null","<div style=""color:white; font-size:60px;"">+</div>","null","html-keyboard-response","158","147513","0.0-8.0-0.23","fixation","","","","",""
"798.0400000233203","Stimuli/Hangul_M39.bmp","190","image-keyboard-response","159","148312","0.0-8.0-1.23","test",",","",".","",""
"null","<div style=""color:white; font-size:60px;"">+</div>","null","html-keyboard-response","160","149313","0.0-8.0-0.24","fixation","","","","",""
"674.4499999913387","Stimuli/Hangul_M34.bmp","190","image-keyboard-response","161","149988","0.0-8.0-1.24","test",",","",".","",""
"null","<div style=""color:white; font-size:60px;"">+</div>","null","html-keyboard-response","162","150990","0.0-8.0-0.25","fixation","","","","",""
"455.3650000016205","Stimuli/Hangul_F26.bmp","190","image-keyboard-response","163","151446","0.0-8.0-1.25","test",".","",".","",""
"null","<div style=""color:white; font-size:60px;"">+</div>","null","html-keyboard-response","164","152448","0.0-8.0-0.26","fixation","","","","",""
"2041.9750000000931","Stimuli/Hangul_F39.bmp","188","image-keyboard-response","165","154491","0.0-8.0-1.26","test",".","",",","",""
"null","<div style=""color:white; font-size:60px;"">+</div>","null","html-keyboard-response","166","155492","0.0-8.0-0.27","fixation","","","","",""
"1798.1399999698624","Stimuli/Hangul_F32.bmp","188","image-keyboard-response","167","157291","0.0-8.0-1.27","test",".","",",","",""
"null","<div style=""color:white; font-size:60px;"">+</div>","null","html-keyboard-response","168","158294","0.0-8.0-0.28","fixation","","","","",""
"1213.8999999733642","Stimuli/Hangul_F37.bmp","188","image-keyboard-response","169","159509","0.0-8.0-1.28","test",".","",",","",""
"null","<div style=""color:white; font-size:60px;"">+</div>","null","html-keyboard-response","170","160511","0.0-8.0-0.29","fixation","","","","",""
"1157.42499998305","Stimuli/Hangul_M36.bmp","190","image-keyboard-response","171","161669","0.0-8.0-1.29","test",",","",".","",""
"null","<div style=""color:white; font-size:60px;"">+</div>","null","html-keyboard-response","172","162671","0.0-8.0-0.30","fixation","","","","",""
"853.0899999896064","Stimuli/Hangul_M47.bmp","190","image-keyboard-response","173","163524","0.0-8.0-1.30","test",",","",".","",""
"null","<div style=""color:white; font-size:60px;"">+</div>","null","html-keyboard-response","174","164526","0.0-8.0-0.31","fixation","","","","",""
"848.8549999892712","Stimuli/Hangul_M25.bmp","190","image-keyboard-response","175","165376","0.0-8.0-1.31","test",",","",".","",""
"null","<div style=""color:white; font-size:60px;"">+</div>","null","html-keyboard-response","176","166378","0.0-8.0-0.32","fixation","","","","",""
"761.144999996759","Stimuli/Hangul_M35.bmp","190","image-keyboard-response","177","167140","0.0-8.0-1.32","test",",","",".","",""
"null","<div style=""color:white; font-size:60px;"">+</div>","null","html-keyboard-response","178","168141","0.0-8.0-0.33","fixation","","","","",""
"654.7650000429712","Stimuli/Hangul_M37.bmp","190","image-keyboard-response","179","168797","0.0-8.0-1.33","test",",","",".","",""
"null","<div style=""color:white; font-size:60px;"">+</div>","null","html-keyboard-response","180","169799","0.0-8.0-0.34","fixation","","","","",""
"1326.13499998115","Stimuli/Hangul_M33.bmp","188","image-keyboard-response","181","171126","0.0-8.0-1.34","test",",","",",","",""
"null","<div style=""color:white; font-size:60px;"">+</div>","null","html-keyboard-response","182","172127","0.0-8.0-0.35","fixation","","","","",""
"921.7550000175834","Stimuli/Hangul_F44.bmp","190","image-keyboard-response","183","173050","0.0-8.0-1.35","test",".","",".","",""
"null","<div style=""color:white; font-size:60px;"">+</div>","null","html-keyboard-response","184","174051","0.0-8.0-0.36","fixation","","","","",""
"674.3850000202656","Stimuli/Hangul_M29.bmp","188","image-keyboard-response","185","174726","0.0-8.0-1.36","test",",","",",","",""
"null","<div style=""color:white; font-size:60px;"">+</div>","null","html-keyboard-response","186","175728","0.0-8.0-0.37","fixation","","","","",""
"559.7449999768287","Stimuli/Hangul_F34.bmp","188","image-keyboard-response","187","176288","0.0-8.0-1.37","test",".","",",","",""
"null","<div style=""color:white; font-size:60px;"">+</div>","null","html-keyboard-response","188","177290","0.0-8.0-0.38","fixation","","","","",""
"660.3450000402518","Stimuli/Hangul_M27.bmp","188","image-keyboard-response","189","177952","0.0-8.0-1.38","test",",","",",","",""
"null","<div style=""color:white; font-size:60px;"">+</div>","null","html-keyboard-response","190","178954","0.0-8.0-0.39","fixation","","","","",""
"795.9399999817833","Stimuli/Hangul_F31.bmp","190","image-keyboard-response","191","179751","0.0-8.0-1.39","test",".","",".","",""
"null","<div style=""color:white; font-size:60px;"">+</div>","null","html-keyboard-response","192","180752","0.0-8.0-0.40","fixation","","","","",""
"648.8200000021607","Stimuli/Hangul_F28.bmp","188","image-keyboard-response","193","181402","0.0-8.0-1.40","test",".","",",","",""
"null","<div style=""color:white; font-size:60px;"">+</div>","null","html-keyboard-response","194","182403","0.0-8.0-0.41","fixation","","","","",""
"665.3099999530241","Stimuli/Hangul_M28.bmp","188","image-keyboard-response","195","183069","0.0-8.0-1.41","test",",","",",","",""
"null","<div style=""color:white; font-size:60px;"">+</div>","null","html-keyboard-response","196","184071","0.0-8.0-0.42","fixation","","","","",""
"727.4550000438467","Stimuli/Hangul_M42.bmp","188","image-keyboard-response","197","184799","0.0-8.0-1.42","test",",","",",","",""
"null","<div style=""color:white; font-size:60px;"">+</div>","null","html-keyboard-response","198","185801","0.0-8.0-0.43","fixation","","","","",""
"784.990000014659","Stimuli/Hangul_M49.bmp","188","image-keyboard-response","199","186587","0.0-8.0-1.43","test",",","",",","",""
"null","<div style=""color:white; font-size:60px;"">+</div>","null","html-keyboard-response","200","187589","0.0-8.0-0.44","fixation","","","","",""
"698.7100000260398","Stimuli/Hangul_F36.bmp","188","image-keyboard-response","201","188289","0.0-8.0-1.44","test",".","",",","",""
"null","<div style=""color:white; font-size:60px;"">+</div>","null","html-keyboard-response","202","189291","0.0-8.0-0.45","fixation","","","","",""
"694.0049999975599","Stimuli/Hangul_F38.bmp","188","image-keyboard-response","203","189986","0.0-8.0-1.45","test",".","",",","",""
"null","<div style=""color:white; font-size:60px;"">+</div>","null","html-keyboard-response","204","190988","0.0-8.0-0.46","fixation","","","","",""
"840.8899999922141","Stimuli/Hangul_F33.bmp","190","image-keyboard-response","205","191830","0.0-8.0-1.46","test",".","",".","",""
"null","<div style=""color:white; font-size:60px;"">+</div>","null","html-keyboard-response","206","192832","0.0-8.0-0.47","fixation","","","","",""
"684.9200000287965","Stimuli/Hangul_F49.bmp","188","image-keyboard-response","207","193519","0.0-8.0-1.47","test",".","",",","",""
"null","<div style=""color:white; font-size:60px;"">+</div>","null","html-keyboard-response","208","194523","0.0-8.0-0.48","fixation","","","","",""
"779.3599999858998","Stimuli/Hangul_F48.bmp","188","image-keyboard-response","209","195303","0.0-8.0-1.48","test",".","",",","",""
"null","<div style=""color:white; font-size:60px;"">+</div>","null","html-keyboard-response","210","196304","0.0-8.0-0.49","fixation","","","","",""
"683.9499999769032","Stimuli/Hangul_F43.bmp","188","image-keyboard-response","211","196989","0.0-8.0-1.49","test",".","",",","",""
"1775.9999999543652","<p style=""color:white;"">Half way there! Please take a moment to rest.</p> <p style=""color:white;"">When you are ready to continue with block 3 of 4, press the space bar.</p> ","32","html-keyboard-response","212","198766","0.0-9.0","","","","","",""
"null","<div style=""color:white; font-size:60px;"">+</div>","null","html-keyboard-response","213","201769","0.0-10.0-0.0","fixation","","","","",""
"828.8599999505095","Stimuli/Hangul_M65.bmp","188","image-keyboard-response","214","202598","0.0-10.0-1.0","test",",","",",","",""
"null","<div style=""color:white; font-size:60px;"">+</div>","null","html-keyboard-response","215","203601","0.0-10.0-0.1","fixation","","","","",""
"905.620000034105","Stimuli/Hangul_F60.bmp","190","image-keyboard-response","216","204507","0.0-10.0-1.1","test",".","",".","",""
"null","<div style=""color:white; font-size:60px;"">+</div>","null","html-keyboard-response","217","205509","0.0-10.0-0.2","fixation","","","","",""
"957.2799999732524","Stimuli/Hangul_M60.bmp","188","image-keyboard-response","218","206467","0.0-10.0-1.2","test",",","",",","",""
"null","<div style=""color:white; font-size:60px;"">+</div>","null","html-keyboard-response","219","207469","0.0-10.0-0.3","fixation","","","","",""
"785.4850000003353","Stimuli/Hangul_F73.bmp","190","image-keyboard-response","220","208255","0.0-10.0-1.3","test",".","",".","",""
"null","<div style=""color:white; font-size:60px;"">+</div>","null","html-keyboard-response","221","209258","0.0-10.0-0.4","fixation","","","","",""
"771.9299999880604","Stimuli/Hangul_F72.bmp","188","image-keyboard-response","222","210030","0.0-10.0-1.4","test",".","",",","",""
"null","<div style=""color:white; font-size:60px;"">+</div>","null","html-keyboard-response","223","211031","0.0-10.0-0.5","fixation","","","","",""
"801.1650000116788","Stimuli/Hangul_F55.bmp","188","image-keyboard-response","224","211834","0.0-10.0-1.5","test",".","",",","",""
"null","<div style=""color:white; font-size:60px;"">+</div>","null","html-keyboard-response","225","212835","0.0-10.0-0.6","fixation","","","","",""
"783.6849999730475","Stimuli/Hangul_M66.bmp","188","image-keyboard-response","226","213620","0.0-10.0-1.6","test",",","",",","",""
"null","<div style=""color:white; font-size:60px;"">+</div>","null","html-keyboard-response","227","214621","0.0-10.0-0.7","fixation","","","","",""
"777.074999990873","Stimuli/Hangul_M62.bmp","188","image-keyboard-response","228","215399","0.0-10.0-1.7","test",",","",",","",""
"null","<div style=""color:white; font-size:60px;"">+</div>","null","html-keyboard-response","229","216400","0.0-10.0-0.8","fixation","","","","",""
"688.9249999658205","Stimuli/Hangul_F56.bmp","188","image-keyboard-response","230","217090","0.0-10.0-1.8","test",".","",",","",""
"null","<div style=""color:white; font-size:60px;"">+</div>","null","html-keyboard-response","231","218092","0.0-10.0-0.9","fixation","","","","",""
"915.3500000247732","Stimuli/Hangul_M70.bmp","188","image-keyboard-response","232","219008","0.0-10.0-1.9","test",",","",",","",""
"null","<div style=""color:white; font-size:60px;"">+</div>","null","html-keyboard-response","233","220010","0.0-10.0-0.10","fixation","","","","",""
"751.155000005383","Stimuli/Hangul_M51.bmp","188","image-keyboard-response","234","220762","0.0-10.0-1.10","test",",","",",","",""
"null","<div style=""color:white; font-size:60px;"">+</div>","null","html-keyboard-response","235","221762","0.0-10.0-0.11","fixation","","","","",""
"717.7399999927729","Stimuli/Hangul_F51.bmp","188","image-keyboard-response","236","222481","0.0-10.0-1.11","test",".","",",","",""
"null","<div style=""color:white; font-size:60px;"">+</div>","null","html-keyboard-response","237","223483","0.0-10.0-0.12","fixation","","","","",""
"1053.3099999884143","Stimuli/Hangul_F70.bmp","188","image-keyboard-response","238","224537","0.0-10.0-1.12","test",".","",",","",""
"null","<div style=""color:white; font-size:60px;"">+</div>","null","html-keyboard-response","239","225539","0.0-10.0-0.13","fixation","","","","",""
"752.1199999609962","Stimuli/Hangul_M56.bmp","188","image-keyboard-response","240","226291","0.0-10.0-1.13","test",",","",",","",""
"null","<div style=""color:white; font-size:60px;"">+</div>","null","html-keyboard-response","241","227293","0.0-10.0-0.14","fixation","","","","",""
"857.1150000207126","Stimuli/Hangul_F59.bmp","188","image-keyboard-response","242","228152","0.0-10.0-1.14","test",".","",",","",""
"null","<div style=""color:white; font-size:60px;"">+</div>","null","html-keyboard-response","243","229153","0.0-10.0-0.15","fixation","","","","",""
"1033.8800000026822","Stimuli/Hangul_M68.bmp","188","image-keyboard-response","244","230188","0.0-10.0-1.15","test",",","",",","",""
"null","<div style=""color:white; font-size:60px;"">+</div>","null","html-keyboard-response","245","231190","0.0-10.0-0.16","fixation","","","","",""
"956.09999995213","Stimuli/Hangul_F57.bmp","190","image-keyboard-response","246","232147","0.0-10.0-1.16","test",".","",".","",""
"null","<div style=""color:white; font-size:60px;"">+</div>","null","html-keyboard-response","247","233149","0.0-10.0-0.17","fixation","","","","",""
"804.6099999919534","Stimuli/Hangul_F67.bmp","188","image-keyboard-response","248","233954","0.0-10.0-1.17","test",".","",",","",""
"null","<div style=""color:white; font-size:60px;"">+</div>","null","html-keyboard-response","249","234955","0.0-10.0-0.18","fixation","","","","",""
"844.3399999523535","Stimuli/Hangul_M71.bmp","188","image-keyboard-response","250","235800","0.0-10.0-1.18","test",",","",",","",""
"null","<div style=""color:white; font-size:60px;"">+</div>","null","html-keyboard-response","251","236802","0.0-10.0-0.19","fixation","","","","",""
"714.0150000341237","Stimuli/Hangul_F62.bmp","188","image-keyboard-response","252","237517","0.0-10.0-1.19","test",".","",",","",""
"null","<div style=""color:white; font-size:60px;"">+</div>","null","html-keyboard-response","253","238518","0.0-10.0-0.20","fixation","","","","",""
"757.4400000157766","Stimuli/Hangul_M74.bmp","188","image-keyboard-response","254","239277","0.0-10.0-1.20","test",",","",",","",""
"null","<div style=""color:white; font-size:60px;"">+</div>","null","html-keyboard-response","255","240279","0.0-10.0-0.21","fixation","","","","",""
"718.7900000135414","Stimuli/Hangul_M64.bmp","188","image-keyboard-response","256","240999","0.0-10.0-1.21","test",",","",",","",""
"null","<div style=""color:white; font-size:60px;"">+</div>","null","html-keyboard-response","257","242001","0.0-10.0-0.22","fixation","","","","",""
"678.74500004109","Stimuli/Hangul_F65.bmp","188","image-keyboard-response","258","242681","0.0-10.0-1.22","test",".","",",","",""
"null","<div style=""color:white; font-size:60px;"">+</div>","null","html-keyboard-response","259","243682","0.0-10.0-0.23","fixation","","","","",""
"753.4650000161491","Stimuli/Hangul_F52.bmp","188","image-keyboard-response","260","244436","0.0-10.0-1.23","test",".","",",","",""
"null","<div style=""color:white; font-size:60px;"">+</div>","null","html-keyboard-response","261","245437","0.0-10.0-0.24","fixation","","","","",""
"707.0850000018254","Stimuli/Hangul_F58.bmp","188","image-keyboard-response","262","246145","0.0-10.0-1.24","test",".","",",","",""
"null","<div style=""color:white; font-size:60px;"">+</div>","null","html-keyboard-response","263","247148","0.0-10.0-0.25","fixation","","","","",""
"659.0650000143796","Stimuli/Hangul_M57.bmp","188","image-keyboard-response","264","247807","0.0-10.0-1.25","test",",","",",","",""
"null","<div style=""color:white; font-size:60px;"">+</div>","null","html-keyboard-response","265","248809","0.0-10.0-0.26","fixation","","","","",""
"802.2450000280514","Stimuli/Hangul_F64.bmp","190","image-keyboard-response","266","249612","0.0-10.0-1.26","test",".","",".","",""
"null","<div style=""color:white; font-size:60px;"">+</div>","null","html-keyboard-response","267","250613","0.0-10.0-0.27","fixation","","","","",""
"575.0950000365265","Stimuli/Hangul_F61.bmp","188","image-keyboard-response","268","251189","0.0-10.0-1.27","test",".","",",","",""
"null","<div style=""color:white; font-size:60px;"">+</div>","null","html-keyboard-response","269","252190","0.0-10.0-0.28","fixation","","","","",""
"610.1599999819882","Stimuli/Hangul_M59.bmp","188","image-keyboard-response","270","252801","0.0-10.0-1.28","test",",","",",","",""
"null","<div style=""color:white; font-size:60px;"">+</div>","null","html-keyboard-response","271","253803","0.0-10.0-0.29","fixation","","","","",""
"557.9549999674782","Stimuli/Hangul_M54.bmp","188","image-keyboard-response","272","254361","0.0-10.0-1.29","test",",","",",","",""
"null","<div style=""color:white; font-size:60px;"">+</div>","null","html-keyboard-response","273","255364","0.0-10.0-0.30","fixation","","","","",""
"597.5299999699928","Stimuli/Hangul_M61.bmp","188","image-keyboard-response","274","255962","0.0-10.0-1.30","test",",","",",","",""
"null","<div style=""color:white; font-size:60px;"">+</div>","null","html-keyboard-response","275","256963","0.0-10.0-0.31","fixation","","","","",""
"540.0750000262633","Stimuli/Hangul_M50.bmp","188","image-keyboard-response","276","257511","0.0-10.0-1.31","test",",","",",","",""
"null","<div style=""color:white; font-size:60px;"">+</div>","null","html-keyboard-response","277","258513","0.0-10.0-0.32","fixation","","","","",""
"600.719999987632","Stimuli/Hangul_F54.bmp","188","image-keyboard-response","278","259119","0.0-10.0-1.32","test",".","",",","",""
"null","<div style=""color:white; font-size:60px;"">+</div>","null","html-keyboard-response","279","260121","0.0-10.0-0.33","fixation","","","","",""
"662.5350000103936","Stimuli/Hangul_M53.bmp","188","image-keyboard-response","280","260784","0.0-10.0-1.33","test",",","",",","",""
"null","<div style=""color:white; font-size:60px;"">+</div>","null","html-keyboard-response","281","261786","0.0-10.0-0.34","fixation","","","","",""
"620.5099999788217","Stimuli/Hangul_F68.bmp","188","image-keyboard-response","282","262407","0.0-10.0-1.34","test",".","",",","",""
"null","<div style=""color:white; font-size:60px;"">+</div>","null","html-keyboard-response","283","263409","0.0-10.0-0.35","fixation","","","","",""
"646.984999999404","Stimuli/Hangul_M72.bmp","188","image-keyboard-response","284","264056","0.0-10.0-1.35","test",",","",",","",""
"null","<div style=""color:white; font-size:60px;"">+</div>","null","html-keyboard-response","285","265058","0.0-10.0-0.36","fixation","","","","",""
"697.7799999876879","Stimuli/Hangul_F74.bmp","190","image-keyboard-response","286","265756","0.0-10.0-1.36","test",".","",".","",""
"null","<div style=""color:white; font-size:60px;"">+</div>","null","html-keyboard-response","287","266757","0.0-10.0-0.37","fixation","","","","",""
"611.9099999777973","Stimuli/Hangul_M63.bmp","188","image-keyboard-response","288","267369","0.0-10.0-1.37","test",",","",",","",""
"null","<div style=""color:white; font-size:60px;"">+</div>","null","html-keyboard-response","289","268371","0.0-10.0-0.38","fixation","","","","",""
"731.5899999812245","Stimuli/Hangul_F69.bmp","190","image-keyboard-response","290","269103","0.0-10.0-1.38","test",".","",".","",""
"null","<div style=""color:white; font-size:60px;"">+</div>","null","html-keyboard-response","291","270104","0.0-10.0-0.39","fixation","","","","",""
"829.9950000364333","Stimuli/Hangul_F50.bmp","190","image-keyboard-response","292","270935","0.0-10.0-1.39","test",".","",".","",""
"null","<div style=""color:white; font-size:60px;"">+</div>","null","html-keyboard-response","293","271937","0.0-10.0-0.40","fixation","","","","",""
"700.2649999922141","Stimuli/Hangul_F53.bmp","190","image-keyboard-response","294","272638","0.0-10.0-1.40","test",".","",".","",""
"null","<div style=""color:white; font-size:60px;"">+</div>","null","html-keyboard-response","295","273639","0.0-10.0-0.41","fixation","","","","",""
"841.2649999954738","Stimuli/Hangul_F71.bmp","190","image-keyboard-response","296","274482","0.0-10.0-1.41","test",".","",".","",""
"null","<div style=""color:white; font-size:60px;"">+</div>","null","html-keyboard-response","297","275483","0.0-10.0-0.42","fixation","","","","",""
"784.5949999755248","Stimuli/Hangul_M73.bmp","188","image-keyboard-response","298","276269","0.0-10.0-1.42","test",",","",",","",""
"null","<div style=""color:white; font-size:60px;"">+</div>","null","html-keyboard-response","299","277271","0.0-10.0-0.43","fixation","","","","",""
"870.4999999608845","Stimuli/Hangul_F63.bmp","188","image-keyboard-response","300","278143","0.0-10.0-1.43","test",".","",",","",""
"null","<div style=""color:white; font-size:60px;"">+</div>","null","html-keyboard-response","301","279145","0.0-10.0-0.44","fixation","","","","",""
"702.8899999568239","Stimuli/Hangul_M55.bmp","188","image-keyboard-response","302","279849","0.0-10.0-1.44","test",",","",",","",""
"null","<div style=""color:white; font-size:60px;"">+</div>","null","html-keyboard-response","303","280851","0.0-10.0-0.45","fixation","","","","",""
"699.2650000029244","Stimuli/Hangul_M58.bmp","188","image-keyboard-response","304","281551","0.0-10.0-1.45","test",",","",",","",""
"null","<div style=""color:white; font-size:60px;"">+</div>","null","html-keyboard-response","305","282552","0.0-10.0-0.46","fixation","","","","",""
"673.6899999668822","Stimuli/Hangul_M69.bmp","188","image-keyboard-response","306","283226","0.0-10.0-1.46","test",",","",",","",""
"null","<div style=""color:white; font-size:60px;"">+</div>","null","html-keyboard-response","307","284229","0.0-10.0-0.47","fixation","","","","",""
"1032.709999999497","Stimuli/Hangul_M67.bmp","190","image-keyboard-response","308","285262","0.0-10.0-1.47","test",",","",".","",""
"null","<div style=""color:white; font-size:60px;"">+</div>","null","html-keyboard-response","309","286263","0.0-10.0-0.48","fixation","","","","",""
"763.8550000265241","Stimuli/Hangul_F66.bmp","190","image-keyboard-response","310","287028","0.0-10.0-1.48","test",".","",".","",""
"null","<div style=""color:white; font-size:60px;"">+</div>","null","html-keyboard-response","311","288030","0.0-10.0-0.49","fixation","","","","",""
"870.1449999934994","Stimuli/Hangul_M52.bmp","188","image-keyboard-response","312","288901","0.0-10.0-1.49","test",",","",",","",""
"829.280000005383","<p style=""color:white;"">One more block to go! Please take a moment to rest.</p> <p style=""color:white;"">When you are ready to continue with block 4 of 4, press the space bar.</p> ","32","html-keyboard-response","313","289731","0.0-11.0","","","","","",""
"null","<div style=""color:white; font-size:60px;"">+</div>","null","html-keyboard-response","314","292734","0.0-12.0-0.0","fixation","","","","",""
"1033.9550000499003","Stimuli/Hangul_F77.bmp","190","image-keyboard-response","315","293769","0.0-12.0-1.0","test",".","",".","",""
"null","<div style=""color:white; font-size:60px;"">+</div>","null","html-keyboard-response","316","294770","0.0-12.0-0.1","fixation","","","","",""
"882.3650000267662","Stimuli/Hangul_M80.bmp","188","image-keyboard-response","317","295653","0.0-12.0-1.1","test",",","",",","",""
"null","<div style=""color:white; font-size:60px;"">+</div>","null","html-keyboard-response","318","296654","0.0-12.0-0.2","fixation","","","","",""
"804.9050000263378","Stimuli/Hangul_F78.bmp","190","image-keyboard-response","319","297459","0.0-12.0-1.2","test",".","",".","",""
"null","<div style=""color:white; font-size:60px;"">+</div>","null","html-keyboard-response","320","298461","0.0-12.0-0.3","fixation","","","","",""
"808.5149999824353","Stimuli/Hangul_M88.bmp","188","image-keyboard-response","321","299270","0.0-12.0-1.3","test",",","",",","",""
"null","<div style=""color:white; font-size:60px;"">+</div>","null","html-keyboard-response","322","300272","0.0-12.0-0.4","fixation","","","","",""
"850.815000012517","Stimuli/Hangul_F81.bmp","190","image-keyboard-response","323","301124","0.0-12.0-1.4","test",".","",".","",""
"null","<div style=""color:white; font-size:60px;"">+</div>","null","html-keyboard-response","324","302126","0.0-12.0-0.5","fixation","","","","",""
"871.735000051558","Stimuli/Hangul_M87.bmp","190","image-keyboard-response","325","302999","0.0-12.0-1.5","test",",","",".","",""
"null","<div style=""color:white; font-size:60px;"">+</div>","null","html-keyboard-response","326","304000","0.0-12.0-0.6","fixation","","","","",""
"861.670000012964","Stimuli/Hangul_M79.bmp","188","image-keyboard-response","327","304863","0.0-12.0-1.6","test",",","",",","",""
"null","<div style=""color:white; font-size:60px;"">+</div>","null","html-keyboard-response","328","305865","0.0-12.0-0.7","fixation","","","","",""
"1130.3249999764375","Stimuli/Hangul_M77.bmp","188","image-keyboard-response","329","306996","0.0-12.0-1.7","test",",","",",","",""
"null","<div style=""color:white; font-size:60px;"">+</div>","null","html-keyboard-response","330","307998","0.0-12.0-0.8","fixation","","","","",""
"805.1699999487028","Stimuli/Hangul_F93.bmp","190","image-keyboard-response","331","308804","0.0-12.0-1.8","test",".","",".","",""
"null","<div style=""color:white; font-size:60px;"">+</div>","null","html-keyboard-response","332","309807","0.0-12.0-0.9","fixation","","","","",""
"768.0449999752454","Stimuli/Hangul_M85.bmp","188","image-keyboard-response","333","310576","0.0-12.0-1.9","test",",","",",","",""
"null","<div style=""color:white; font-size:60px;"">+</div>","null","html-keyboard-response","334","311578","0.0-12.0-0.10","fixation","","","","",""
"845.4800000181422","Stimuli/Hangul_F82.bmp","190","image-keyboard-response","335","312424","0.0-12.0-1.10","test",".","",".","",""
"null","<div style=""color:white; font-size:60px;"">+</div>","null","html-keyboard-response","336","313426","0.0-12.0-0.11","fixation","","","","",""
"859.9999999860302","Stimuli/Hangul_F91.bmp","188","image-keyboard-response","337","314286","0.0-12.0-1.11","test",".","",",","",""
"null","<div style=""color:white; font-size:60px;"">+</div>","null","html-keyboard-response","338","315287","0.0-12.0-0.12","fixation","","","","",""
"1146.3499999954365","Stimuli/Hangul_F88.bmp","190","image-keyboard-response","339","316434","0.0-12.0-1.12","test",".","",".","",""
"null","<div style=""color:white; font-size:60px;"">+</div>","null","html-keyboard-response","340","317436","0.0-12.0-0.13","fixation","","","","",""
"898.8949999911711","Stimuli/Hangul_F95.bmp","190","image-keyboard-response","341","318336","0.0-12.0-1.13","test",".","",".","",""
"null","<div style=""color:white; font-size:60px;"">+</div>","null","html-keyboard-response","342","319337","0.0-12.0-0.14","fixation","","","","",""
"1072.0799999544397","Stimuli/Hangul_M84.bmp","190","image-keyboard-response","343","320410","0.0-12.0-1.14","test",",","",".","",""
"null","<div style=""color:white; font-size:60px;"">+</div>","null","html-keyboard-response","344","321411","0.0-12.0-0.15","fixation","","","","",""
"1848.4450000105426","Stimuli/Hangul_M83.bmp","188","image-keyboard-response","345","323261","0.0-12.0-1.15","test",",","",",","",""
"null","<div style=""color:white; font-size:60px;"">+</div>","null","html-keyboard-response","346","324262","0.0-12.0-0.16","fixation","","","","",""
"1242.435000021942","Stimuli/Hangul_F99.bmp","188","image-keyboard-response","347","325506","0.0-12.0-1.16","test",".","",",","",""
"null","<div style=""color:white; font-size:60px;"">+</div>","null","html-keyboard-response","348","326507","0.0-12.0-0.17","fixation","","","","",""
"830.0249999738298","Stimuli/Hangul_M82.bmp","188","image-keyboard-response","349","327338","0.0-12.0-1.17","test",",","",",","",""
"null","<div style=""color:white; font-size:60px;"">+</div>","null","html-keyboard-response","350","328340","0.0-12.0-0.18","fixation","","","","",""
"841.9050000375137","Stimuli/Hangul_F79.bmp","190","image-keyboard-response","351","329183","0.0-12.0-1.18","test",".","",".","",""
"null","<div style=""color:white; font-size:60px;"">+</div>","null","html-keyboard-response","352","330185","0.0-12.0-0.19","fixation","","","","",""
"980.710000032559","Stimuli/Hangul_F83.bmp","190","image-keyboard-response","353","331166","0.0-12.0-1.19","test",".","",".","",""
"null","<div style=""color:white; font-size:60px;"">+</div>","null","html-keyboard-response","354","332169","0.0-12.0-0.20","fixation","","","","",""
"814.974999986589","Stimuli/Hangul_F87.bmp","190","image-keyboard-response","355","332985","0.0-12.0-1.20","test",".","",".","",""
"null","<div style=""color:white; font-size:60px;"">+</div>","null","html-keyboard-response","356","333987","0.0-12.0-0.21","fixation","","","","",""
"1148.7600000109524","Stimuli/Hangul_M90.bmp","188","image-keyboard-response","357","335137","0.0-12.0-1.21","test",",","",",","",""
"null","<div style=""color:white; font-size:60px;"">+</div>","null","html-keyboard-response","358","336138","0.0-12.0-0.22","fixation","","","","",""
"975.7850000169128","Stimuli/Hangul_F89.bmp","190","image-keyboard-response","359","337115","0.0-12.0-1.22","test",".","",".","",""
"null","<div style=""color:white; font-size:60px;"">+</div>","null","html-keyboard-response","360","338116","0.0-12.0-0.23","fixation","","","","",""
"861.8500000447966","Stimuli/Hangul_M95.bmp","188","image-keyboard-response","361","338979","0.0-12.0-1.23","test",",","",",","",""
"null","<div style=""color:white; font-size:60px;"">+</div>","null","html-keyboard-response","362","339981","0.0-12.0-0.24","fixation","","","","",""
"902.8950000065379","Stimuli/Hangul_F92.bmp","190","image-keyboard-response","363","340885","0.0-12.0-1.24","test",".","",".","",""
"null","<div style=""color:white; font-size:60px;"">+</div>","null","html-keyboard-response","364","341886","0.0-12.0-0.25","fixation","","","","",""
"1364.2049999907613","Stimuli/Hangul_F85.bmp","190","image-keyboard-response","365","343251","0.0-12.0-1.25","test",".","",".","",""
"null","<div style=""color:white; font-size:60px;"">+</div>","null","html-keyboard-response","366","344252","0.0-12.0-0.26","fixation","","","","",""
"916.9650000403635","Stimuli/Hangul_M94.bmp","188","image-keyboard-response","367","345170","0.0-12.0-1.26","test",",","",",","",""
"null","<div style=""color:white; font-size:60px;"">+</div>","null","html-keyboard-response","368","346170","0.0-12.0-0.27","fixation","","","","",""
"1032.3499999940395","Stimuli/Hangul_F90.bmp","188","image-keyboard-response","369","347203","0.0-12.0-1.27","test",".","",",","",""
"null","<div style=""color:white; font-size:60px;"">+</div>","null","html-keyboard-response","370","348205","0.0-12.0-0.28","fixation","","","","",""
"947.4850000115111","Stimuli/Hangul_F84.bmp","190","image-keyboard-response","371","349153","0.0-12.0-1.28","test",".","",".","",""
"null","<div style=""color:white; font-size:60px;"">+</div>","null","html-keyboard-response","372","350156","0.0-12.0-0.29","fixation","","","","",""
"904.2999999946915","Stimuli/Hangul_F98.bmp","190","image-keyboard-response","373","351061","0.0-12.0-1.29","test",".","",".","",""
"null","<div style=""color:white; font-size:60px;"">+</div>","null","html-keyboard-response","374","352063","0.0-12.0-0.30","fixation","","","","",""
"1034.0899999719113","Stimuli/Hangul_M98.bmp","188","image-keyboard-response","375","353098","0.0-12.0-1.30","test",",","",",","",""
"null","<div style=""color:white; font-size:60px;"">+</div>","null","html-keyboard-response","376","354100","0.0-12.0-0.31","fixation","","","","",""
"933.8950000237674","Stimuli/Hangul_M89.bmp","188","image-keyboard-response","377","355034","0.0-12.0-1.31","test",",","",",","",""
"null","<div style=""color:white; font-size:60px;"">+</div>","null","html-keyboard-response","378","356036","0.0-12.0-0.32","fixation","","","","",""
"693.4550000005402","Stimuli/Hangul_M96.bmp","188","image-keyboard-response","379","356730","0.0-12.0-1.32","test",",","",",","",""
"null","<div style=""color:white; font-size:60px;"">+</div>","null","html-keyboard-response","380","357731","0.0-12.0-0.33","fixation","","","","",""
"885.0700000184588","Stimuli/Hangul_M99.bmp","188","image-keyboard-response","381","358617","0.0-12.0-1.33","test",",","",",","",""
"null","<div style=""color:white; font-size:60px;"">+</div>","null","html-keyboard-response","382","359619","0.0-12.0-0.34","fixation","","","","",""
"734.5550000318326","Stimuli/Hangul_M78.bmp","188","image-keyboard-response","383","360355","0.0-12.0-1.34","test",",","",",","",""
"null","<div style=""color:white; font-size:60px;"">+</div>","null","html-keyboard-response","384","361357","0.0-12.0-0.35","fixation","","","","",""
"816.4949999772944","Stimuli/Hangul_M81.bmp","188","image-keyboard-response","385","362174","0.0-12.0-1.35","test",",","",",","",""
"null","<div style=""color:white; font-size:60px;"">+</div>","null","html-keyboard-response","386","363175","0.0-12.0-0.36","fixation","","","","",""
"714.8000000161119","Stimuli/Hangul_M97.bmp","188","image-keyboard-response","387","363890","0.0-12.0-1.36","test",",","",",","",""
"null","<div style=""color:white; font-size:60px;"">+</div>","null","html-keyboard-response","388","364892","0.0-12.0-0.37","fixation","","","","",""
"846.590000030119","Stimuli/Hangul_M92.bmp","188","image-keyboard-response","389","365739","0.0-12.0-1.37","test",",","",",","",""
"null","<div style=""color:white; font-size:60px;"">+</div>","null","html-keyboard-response","390","366741","0.0-12.0-0.38","fixation","","","","",""
"770.9199999808334","Stimuli/Hangul_M93.bmp","188","image-keyboard-response","391","367513","0.0-12.0-1.38","test",",","",",","",""
"null","<div style=""color:white; font-size:60px;"">+</div>","null","html-keyboard-response","392","368514","0.0-12.0-0.39","fixation","","","","",""
"740.2700000093319","Stimuli/Hangul_M86.bmp","188","image-keyboard-response","393","369256","0.0-12.0-1.39","test",",","",",","",""
"null","<div style=""color:white; font-size:60px;"">+</div>","null","html-keyboard-response","394","370258","0.0-12.0-0.40","fixation","","","","",""
"963.4649999788962","Stimuli/Hangul_F94.bmp","190","image-keyboard-response","395","371222","0.0-12.0-1.40","test",".","",".","",""
"null","<div style=""color:white; font-size:60px;"">+</div>","null","html-keyboard-response","396","372225","0.0-12.0-0.41","fixation","","","","",""
"915.4799999669194","Stimuli/Hangul_F75.bmp","190","image-keyboard-response","397","373141","0.0-12.0-1.41","test",".","",".","",""
"null","<div style=""color:white; font-size:60px;"">+</div>","null","html-keyboard-response","398","374143","0.0-12.0-0.42","fixation","","","","",""
"1000.7800000021234","Stimuli/Hangul_F96.bmp","190","image-keyboard-response","399","375144","0.0-12.0-1.42","test",".","",".","",""
"null","<div style=""color:white; font-size:60px;"">+</div>","null","html-keyboard-response","400","376145","0.0-12.0-0.43","fixation","","","","",""
"931.1800000141375","Stimuli/Hangul_F97.bmp","190","image-keyboard-response","401","377077","0.0-12.0-1.43","test",".","",".","",""
"null","<div style=""color:white; font-size:60px;"">+</div>","null","html-keyboard-response","402","378078","0.0-12.0-0.44","fixation","","","","",""
"679.3800000450574","Stimuli/Hangul_F80.bmp","188","image-keyboard-response","403","378758","0.0-12.0-1.44","test",".","",",","",""
"null","<div style=""color:white; font-size:60px;"">+</div>","null","html-keyboard-response","404","379760","0.0-12.0-0.45","fixation","","","","",""
"1062.0249999919906","Stimuli/Hangul_M91.bmp","188","image-keyboard-response","405","380822","0.0-12.0-1.45","test",",","",",","",""
"null","<div style=""color:white; font-size:60px;"">+</div>","null","html-keyboard-response","406","381824","0.0-12.0-0.46","fixation","","","","",""
"836.6200000164099","Stimuli/Hangul_F76.bmp","190","image-keyboard-response","407","382662","0.0-12.0-1.46","test",".","",".","",""
"null","<div style=""color:white; font-size:60px;"">+</div>","null","html-keyboard-response","408","383663","0.0-12.0-0.47","fixation","","","","",""
"859.6499999985099","Stimuli/Hangul_F86.bmp","190","image-keyboard-response","409","384523","0.0-12.0-1.47","test",".","",".","",""
"null","<div style=""color:white; font-size:60px;"">+</div>","null","html-keyboard-response","410","385526","0.0-12.0-0.48","fixation","","","","",""
"755.0000000046566","Stimuli/Hangul_M76.bmp","188","image-keyboard-response","411","386282","0.0-12.0-1.48","test",",","",",","",""
"null","<div style=""color:white; font-size:60px;"">+</div>","null","html-keyboard-response","412","387284","0.0-12.0-0.49","fixation","","","","",""
"715.459999977611","Stimuli/Hangul_M75.bmp","188","image-keyboard-response","413","388000","0.0-12.0-1.49","test",",","",",","",""
"1000.0799999688752","<p style=""color:white;"">Phase I of the experiment is complete.</p> <p style=""color:white;"">Press the space bar to proceed to Phase II of the experiment.</p> ","32","html-keyboard-response","414","389001","0.0-13.0","","","","","",""
"10811.815000022762","<p style=""color:white;"">Now we are interested in how well you can predict patterns in the series of figures. You will be asked to predict whether the next figure in the series is more male-like or female-like. When you see the <q>Next Figure</q> prompt, press the corresponding response keys to indicate your prediction: </p><p style=""color:white;""> Male &#8594 <q>,</q> (comma)</p><p style=""color:white;""> Female &#8594 <q>.</q> (period)</p><p style=""color:white;"">The actual figure will then appear on the screen. After you see the figure, please guess the assigned gender with response keys. </p><p style=""color:white;"">As before, you will receive 2 cents for correctly classifying each figure.</p><p style=""color:white;"">Press either response keys to continue.</p>","188","html-keyboard-response","415","401814","0.0-14.0","","","","","",""
"5002.485000004526","<p style=""color:white;"">PREDICTION BONUS</p> <p style=""color:white;"">Your prediction accuracy is the total number of correct predictions you make over the 200 trials.</p> <p style=""color:white;"">In addition to the 2 cents per correct figure classification, you have the chance to receive a bonus of 40 dollars IF your accuracy is above average relative to previous participants.</p><p style=""color:white;"">If your accuracy is below average relative to previous participants, then you will not receive the 40 dollar bonus.</p><p style=""color:white;"">Press the space bar to continue.</p>","32","html-keyboard-response","416","406818","0.0-15.0","","","","","",""
"1964.6899999934249","<p style=""color:white;"">Here are some examples.</p> <p style=""color:white;"">For each, predict whether the next figure looks more male-like or female-like. Then, when the figure appears, guess whether it looks more male-like or female-like and indicate your choice.</p> <p style=""color:white;"">Press the space bar to continue.</p>","32","html-keyboard-response","417","408783","0.0-16.0","","","","","",""
"281.66999999666587","<p style=""color:white;""> Next Figure: Male or Female? </p>","190","html-keyboard-response","418","411068","0.0-17.0-0.0","prediction_train","","","",".",""
"null","<div style=""color:white; font-size:60px;"">+</div>","null","html-keyboard-response","419","412069","0.0-17.0-1.0","fixation","","","","",""
"5205.584999988787","Stimuli/Hangul_E0.bmp","190","image-keyboard-response","420","417276","0.0-17.0-2.0","c2_train",",","","","","."
"2130.079999973532","<p style=""color:white;""> Next Figure: Male or Female? </p>","190","html-keyboard-response","421","419406","0.0-17.0-0.1","prediction_train","","","",".",""
"null","<div style=""color:white; font-size:60px;"">+</div>","null","html-keyboard-response","422","420408","0.0-17.0-1.1","fixation","","","","",""
"1144.2000000388362","Stimuli/Hangul_E1.bmp","190","image-keyboard-response","423","421553","0.0-17.0-2.1","c2_train",",","","","","."
"2377.5949999690056","<p style=""color:white;""> Next Figure: Male or Female? </p>","190","html-keyboard-response","424","423931","0.0-17.0-0.2","prediction_train","","","",".",""
"null","<div style=""color:white; font-size:60px;"">+</div>","null","html-keyboard-response","425","424933","0.0-17.0-1.2","fixation","","","","",""
"634.520000021439","Stimuli/Hangul_E2.bmp","188","image-keyboard-response","426","425568","0.0-17.0-2.2","c2_train",".","","","",","
"22720.830000005662","<p style=""color:white;"">Let us begin! Press the space bar when you are ready to start block 1 of 4.</p> ","32","html-keyboard-response","427","448290","0.0-18.0","","","","","",""
"155.70499998284504","<p style=""color:white;""> Next Figure: Male or Female? </p>","188","html-keyboard-response","428","450447","0.0-19.0-0.0","prediction","","","",",",""
"null","<div style=""color:white; font-size:60px;"">+</div>","null","html-keyboard-response","429","451449","0.0-19.0-1.0","fixation","","","","",""
"449.19000001391396","Stimuli/Hangul_F2.bmp","188","image-keyboard-response","430","451899","0.0-19.0-2.0","c2_test",".","","","",","
"1161.7550000082701","<p style=""color:white;""> Next Figure: Male or Female? </p>","188","html-keyboard-response","431","453062","0.0-19.0-0.1","prediction","","","",",",""
"null","<div style=""color:white; font-size:60px;"">+</div>","null","html-keyboard-response","432","454063","0.0-19.0-1.1","fixation","","","","",""
"860.5749999987893","Stimuli/Hangul_F10.bmp","190","image-keyboard-response","433","454925","0.0-19.0-2.1","c2_test",".","","","","."
"478.54999999981374","<p style=""color:white;""> Next Figure: Male or Female? </p>","188","html-keyboard-response","434","455404","0.0-19.0-0.2","prediction","","","",",",""
"null","<div style=""color:white; font-size:60px;"">+</div>","null","html-keyboard-response","435","456406","0.0-19.0-1.2","fixation","","","","",""
"928.1349999946542","Stimuli/Hangul_F22.bmp","188","image-keyboard-response","436","457335","0.0-19.0-2.2","c2_test",".","","","",","
"1090.3699999907985","<p style=""color:white;""> Next Figure: Male or Female? </p>","188","html-keyboard-response","437","458426","0.0-19.0-0.3","prediction","","","",",",""
"null","<div style=""color:white; font-size:60px;"">+</div>","null","html-keyboard-response","438","459426","0.0-19.0-1.3","fixation","","","","",""
"621.7649999889545","Stimuli/Hangul_F3.bmp","188","image-keyboard-response","439","460048","0.0-19.0-2.3","c2_test",".","","","",","
"676.1750000296161","<p style=""color:white;""> Next Figure: Male or Female? </p>","188","html-keyboard-response","440","460725","0.0-19.0-0.4","prediction","","","",",",""
"null","<div style=""color:white; font-size:60px;"">+</div>","null","html-keyboard-response","441","461728","0.0-19.0-1.4","fixation","","","","",""
"876.6900000046007","Stimuli/Hangul_M11.bmp","188","image-keyboard-response","442","462605","0.0-19.0-2.4","c2_test",",","","","",","
"315.97499997587875","<p style=""color:white;""> Next Figure: Male or Female? </p>","190","html-keyboard-response","443","462922","0.0-19.0-0.5","prediction","","","",".",""
"null","<div style=""color:white; font-size:60px;"">+</div>","null","html-keyboard-response","444","463924","0.0-19.0-1.5","fixation","","","","",""
"444.4099999964237","Stimuli/Hangul_M14.bmp","188","image-keyboard-response","445","464369","0.0-19.0-2.5","c2_test",",","","","",","
"646.3000000221655","<p style=""color:white;""> Next Figure: Male or Female? </p>","188","html-keyboard-response","446","465018","0.0-19.0-0.6","prediction","","","",",",""
"null","<div style=""color:white; font-size:60px;"">+</div>","null","html-keyboard-response","447","466020","0.0-19.0-1.6","fixation","","","","",""
"681.7100000334904","Stimuli/Hangul_F11.bmp","188","image-keyboard-response","448","466703","0.0-19.0-2.6","c2_test",".","","","",","
"324.495000008028","<p style=""color:white;""> Next Figure: Male or Female? </p>","188","html-keyboard-response","449","467028","0.0-19.0-0.7","prediction","","","",",",""
"null","<div style=""color:white; font-size:60px;"">+</div>","null","html-keyboard-response","450","468029","0.0-19.0-1.7","fixation","","","","",""
"428.96499997004867","Stimuli/Hangul_M17.bmp","188","image-keyboard-response","451","468458","0.0-19.0-2.7","c2_test",",","","","",","
"266.2949999794364","<p style=""color:white;""> Next Figure: Male or Female? </p>","188","html-keyboard-response","452","468725","0.0-19.0-0.8","prediction","","","",",",""
"null","<div style=""color:white; font-size:60px;"">+</div>","null","html-keyboard-response","453","469726","0.0-19.0-1.8","fixation","","","","",""
"758.475000038743","Stimuli/Hangul_F0.bmp","188","image-keyboard-response","454","470486","0.0-19.0-2.8","c2_test",".","","","",","
"268.3349999715574","<p style=""color:white;""> Next Figure: Male or Female? </p>","188","html-keyboard-response","455","470755","0.0-19.0-0.9","prediction","","","",",",""
"null","<div style=""color:white; font-size:60px;"">+</div>","null","html-keyboard-response","456","471756","0.0-19.0-1.9","fixation","","","","",""
"438.2850000401959","Stimuli/Hangul_F19.bmp","190","image-keyboard-response","457","472195","0.0-19.0-2.9","c2_test",".","","","","."
"289.52499997103587","<p style=""color:white;""> Next Figure: Male or Female? </p>","190","html-keyboard-response","458","472485","0.0-19.0-0.10","prediction","","","",".",""
"null","<div style=""color:white; font-size:60px;"">+</div>","null","html-keyboard-response","459","473487","0.0-19.0-1.10","fixation","","","","",""
"863.2649999926798","Stimuli/Hangul_F13.bmp","188","image-keyboard-response","460","474351","0.0-19.0-2.10","c2_test",".","","","",","
"357.6350000221282","<p style=""color:white;""> Next Figure: Male or Female? </p>","190","html-keyboard-response","461","474710","0.0-19.0-0.11","prediction","","","",".",""
"null","<div style=""color:white; font-size:60px;"">+</div>","null","html-keyboard-response","462","475712","0.0-19.0-1.11","fixation","","","","",""
"789.249999972526","Stimuli/Hangul_F21.bmp","190","image-keyboard-response","463","476502","0.0-19.0-2.11","c2_test",".","","","","."
"457.24000001791865","<p style=""color:white;""> Next Figure: Male or Female? </p>","190","html-keyboard-response","464","476959","0.0-19.0-0.12","prediction","","","",".",""
"null","<div style=""color:white; font-size:60px;"">+</div>","null","html-keyboard-response","465","477961","0.0-19.0-1.12","fixation","","","","",""
"568.7349999789149","Stimuli/Hangul_M20.bmp","188","image-keyboard-response","466","478530","0.0-19.0-2.12","c2_test",",","","","",","
"640.0050000520423","<p style=""color:white;""> Next Figure: Male or Female? </p>","190","html-keyboard-response","467","479172","0.0-19.0-0.13","prediction","","","",".",""
"null","<div style=""color:white; font-size:60px;"">+</div>","null","html-keyboard-response","468","480173","0.0-19.0-1.13","fixation","","","","",""
"323.7650000373833","Stimuli/Hangul_F8.bmp","190","image-keyboard-response","469","480498","0.0-19.0-2.13","c2_test",".","","","","."
"446.3400000240654","<p style=""color:white;""> Next Figure: Male or Female? </p>","190","html-keyboard-response","470","480948","0.0-19.0-0.14","prediction","","","",".",""
"null","<div style=""color:white; font-size:60px;"">+</div>","null","html-keyboard-response","471","481949","0.0-19.0-1.14","fixation","","","","",""
"194.60999994771555","Stimuli/Hangul_F1.bmp","190","image-keyboard-response","472","482145","0.0-19.0-2.14","c2_test",".","","","","."
"601.2500000069849","<p style=""color:white;""> Next Figure: Male or Female? </p>","190","html-keyboard-response","473","482747","0.0-19.0-0.15","prediction","","","",".",""
"null","<div style=""color:white; font-size:60px;"">+</div>","null","html-keyboard-response","474","483749","0.0-19.0-1.15","fixation","","","","",""
"303.36000001989305","Stimuli/Hangul_M8.bmp","188","image-keyboard-response","475","484053","0.0-19.0-2.15","c2_test",",","","","",","
"438.90000000828877","<p style=""color:white;""> Next Figure: Male or Female? </p>","188","html-keyboard-response","476","484493","0.0-19.0-0.16","prediction","","","",",",""
"null","<div style=""color:white; font-size:60px;"">+</div>","null","html-keyboard-response","477","485495","0.0-19.0-1.16","fixation","","","","",""
"60.28500001411885","Stimuli/Hangul_F18.bmp","190","image-keyboard-response","478","485557","0.0-19.0-2.16","c2_test",".","","","","."
"1389.9300000048243","<p style=""color:white;""> Next Figure: Male or Female? </p>","190","html-keyboard-response","479","486947","0.0-19.0-0.17","prediction","","","",".",""
"null","<div style=""color:white; font-size:60px;"">+</div>","null","html-keyboard-response","480","487949","0.0-19.0-1.17","fixation","","","","",""
"574.5500000193715","Stimuli/Hangul_M10.bmp","190","image-keyboard-response","481","488524","0.0-19.0-2.17","c2_test",",","","","","."
"820.1249999692664","<p style=""color:white;""> Next Figure: Male or Female? </p>","188","html-keyboard-response","482","489345","0.0-19.0-0.18","prediction","","","",",",""
"null","<div style=""color:white; font-size:60px;"">+</div>","null","html-keyboard-response","483","490347","0.0-19.0-1.18","fixation","","","","",""
"977.2750000120141","Stimuli/Hangul_M9.bmp","190","image-keyboard-response","484","491325","0.0-19.0-2.18","c2_test",",","","","","."
"734.6350000007078","<p style=""color:white;""> Next Figure: Male or Female? </p>","188","html-keyboard-response","485","492060","0.0-19.0-0.19","prediction","","","",",",""
"null","<div style=""color:white; font-size:60px;"">+</div>","null","html-keyboard-response","486","493062","0.0-19.0-1.19","fixation","","","","",""
"401.40999999130145","Stimuli/Hangul_M13.bmp","188","image-keyboard-response","487","493464","0.0-19.0-2.19","c2_test",",","","","",","
"447.15000002179295","<p style=""color:white;""> Next Figure: Male or Female? </p>","188","html-keyboard-response","488","493912","0.0-19.0-0.20","prediction","","","",",",""
"null","<div style=""color:white; font-size:60px;"">+</div>","null","html-keyboard-response","489","494914","0.0-19.0-1.20","fixation","","","","",""
"160.0800000014715","Stimuli/Hangul_M18.bmp","190","image-keyboard-response","490","495075","0.0-19.0-2.20","c2_test",",","","","","."
"542.6699999952689","<p style=""color:white;""> Next Figure: Male or Female? </p>","190","html-keyboard-response","491","495618","0.0-19.0-0.21","prediction","","","",".",""
"null","<div style=""color:white; font-size:60px;"">+</div>","null","html-keyboard-response","492","496619","0.0-19.0-1.21","fixation","","","","",""
"313.7449999921955","Stimuli/Hangul_M2.bmp","188","image-keyboard-response","493","496933","0.0-19.0-2.21","c2_test",",","","","",","
"1275.2399999881163","<p style=""color:white;""> Next Figure: Male or Female? </p>","188","html-keyboard-response","494","498209","0.0-19.0-0.22","prediction","","","",",",""
"null","<div style=""color:white; font-size:60px;"">+</div>","null","html-keyboard-response","495","499211","0.0-19.0-1.22","fixation","","","","",""
"83.44000001670793","Stimuli/Hangul_M24.bmp","188","image-keyboard-response","496","499296","0.0-19.0-2.22","c2_test",",","","","",","
"1206.1049999902025","<p style=""color:white;""> Next Figure: Male or Female? </p>","190","html-keyboard-response","497","500502","0.0-19.0-0.23","prediction","","","",".",""
"null","<div style=""color:white; font-size:60px;"">+</div>","null","html-keyboard-response","498","501505","0.0-19.0-1.23","fixation","","","","",""
"373.5049999668263","Stimuli/Hangul_M16.bmp","190","image-keyboard-response","499","501879","0.0-19.0-2.23","c2_test",",","","","","."
"646.5400000452064","<p style=""color:white;""> Next Figure: Male or Female? </p>","190","html-keyboard-response","500","502526","0.0-19.0-0.24","prediction","","","",".",""
"null","<div style=""color:white; font-size:60px;"">+</div>","null","html-keyboard-response","501","503528","0.0-19.0-1.24","fixation","","","","",""
"678.1750000081956","Stimuli/Hangul_F17.bmp","190","image-keyboard-response","502","504207","0.0-19.0-2.24","c2_test",".","","","","."
"307.4800000176765","<p style=""color:white;""> Next Figure: Male or Female? </p>","190","html-keyboard-response","503","504515","0.0-19.0-0.25","prediction","","","",".",""
"null","<div style=""color:white; font-size:60px;"">+</div>","null","html-keyboard-response","504","505518","0.0-19.0-1.25","fixation","","","","",""
"663.6449999641627","Stimuli/Hangul_F14.bmp","190","image-keyboard-response","505","506182","0.0-19.0-2.25","c2_test",".","","","","."
"363.3900000131689","<p style=""color:white;""> Next Figure: Male or Female? </p>","190","html-keyboard-response","506","506546","0.0-19.0-0.26","prediction","","","",".",""
"null","<div style=""color:white; font-size:60px;"">+</div>","null","html-keyboard-response","507","507548","0.0-19.0-1.26","fixation","","","","",""
"662.1649999869987","Stimuli/Hangul_M7.bmp","190","image-keyboard-response","508","508211","0.0-19.0-2.26","c2_test",",","","","","."
"253.73999995645136","<p style=""color:white;""> Next Figure: Male or Female? </p>","190","html-keyboard-response","509","508466","0.0-19.0-0.27","prediction","","","",".",""
"null","<div style=""color:white; font-size:60px;"">+</div>","null","html-keyboard-response","510","509468","0.0-19.0-1.27","fixation","","","","",""
"393.1400000001304","Stimuli/Hangul_F24.bmp","188","image-keyboard-response","511","509862","0.0-19.0-2.27","c2_test",".","","","",","
"325.4600000218488","<p style=""color:white;""> Next Figure: Male or Female? </p>","190","html-keyboard-response","512","510189","0.0-19.0-0.28","prediction","","","",".",""
"null","<div style=""color:white; font-size:60px;"">+</div>","null","html-keyboard-response","513","511191","0.0-19.0-1.28","fixation","","","","",""
"273.49500003037974","Stimuli/Hangul_M23.bmp","190","image-keyboard-response","514","511466","0.0-19.0-2.28","c2_test",",","","","","."
"330.2350000012666","<p style=""color:white;""> Next Figure: Male or Female? </p>","188","html-keyboard-response","515","511797","0.0-19.0-0.29","prediction","","","",",",""
"null","<div style=""color:white; font-size:60px;"">+</div>","null","html-keyboard-response","516","512799","0.0-19.0-1.29","fixation","","","","",""
"230.49500002525747","Stimuli/Hangul_F16.bmp","188","image-keyboard-response","517","513030","0.0-19.0-2.29","c2_test",".","","","",","
"372.1000000368804","<p style=""color:white;""> Next Figure: Male or Female? </p>","188","html-keyboard-response","518","513403","0.0-19.0-0.30","prediction","","","",",",""
"null","<div style=""color:white; font-size:60px;"">+</div>","null","html-keyboard-response","519","514404","0.0-19.0-1.30","fixation","","","","",""
"322.7999999653548","Stimuli/Hangul_F9.bmp","190","image-keyboard-response","520","514728","0.0-19.0-2.30","c2_test",".","","","","."
"358.90999995172024","<p style=""color:white;""> Next Figure: Male or Female? </p>","188","html-keyboard-response","521","515087","0.0-19.0-0.31","prediction","","","",",",""
"null","<div style=""color:white; font-size:60px;"">+</div>","null","html-keyboard-response","522","516089","0.0-19.0-1.31","fixation","","","","",""
"638.7950000353158","Stimuli/Hangul_F12.bmp","188","image-keyboard-response","523","516728","0.0-19.0-2.31","c2_test",".","","","",","
"211.86000003945082","<p style=""color:white;""> Next Figure: Male or Female? </p>","190","html-keyboard-response","524","516941","0.0-19.0-0.32","prediction","","","",".",""
"null","<div style=""color:white; font-size:60px;"">+</div>","null","html-keyboard-response","525","517942","0.0-19.0-1.32","fixation","","","","",""
"625.9650000138208","Stimuli/Hangul_F15.bmp","188","image-keyboard-response","526","518568","0.0-19.0-2.32","c2_test",".","","","",","
"259.6499999635853","<p style=""color:white;""> Next Figure: Male or Female? </p>","188","html-keyboard-response","527","518829","0.0-19.0-0.33","prediction","","","",",",""
"null","<div style=""color:white; font-size:60px;"">+</div>","null","html-keyboard-response","528","519830","0.0-19.0-1.33","fixation","","","","",""
"291.03500000201166","Stimuli/Hangul_M12.bmp","188","image-keyboard-response","529","520121","0.0-19.0-2.33","c2_test",",","","","",","
"253.8899999926798","<p style=""color:white;""> Next Figure: Male or Female? </p>","188","html-keyboard-response","530","520376","0.0-19.0-0.34","prediction","","","",",",""
"null","<div style=""color:white; font-size:60px;"">+</div>","null","html-keyboard-response","531","521377","0.0-19.0-1.34","fixation","","","","",""
"607.6699999975972","Stimuli/Hangul_F20.bmp","188","image-keyboard-response","532","521985","0.0-19.0-2.34","c2_test",".","","","",","
"268.76000000629574","<p style=""color:white;""> Next Figure: Male or Female? </p>","188","html-keyboard-response","533","522255","0.0-19.0-0.35","prediction","","","",",",""
"null","<div style=""color:white; font-size:60px;"">+</div>","null","html-keyboard-response","534","523256","0.0-19.0-1.35","fixation","","","","",""
"451.6999999759719","Stimuli/Hangul_M6.bmp","188","image-keyboard-response","535","523708","0.0-19.0-2.35","c2_test",",","","","",","
"320.31999999890104","<p style=""color:white;""> Next Figure: Male or Female? </p>","188","html-keyboard-response","536","524029","0.0-19.0-0.36","prediction","","","",",",""
"null","<div style=""color:white; font-size:60px;"">+</div>","null","html-keyboard-response","537","525033","0.0-19.0-1.36","fixation","","","","",""
"534.395000024233","Stimuli/Hangul_M5.bmp","188","image-keyboard-response","538","525569","0.0-19.0-2.36","c2_test",",","","","",","
"327.89000001503155","<p style=""color:white;""> Next Figure: Male or Female? </p>","188","html-keyboard-response","539","525897","0.0-19.0-0.37","prediction","","","",",",""
"null","<div style=""color:white; font-size:60px;"">+</div>","null","html-keyboard-response","540","526899","0.0-19.0-1.37","fixation","","","","",""
"288.80999999819323","Stimuli/Hangul_F6.bmp","190","image-keyboard-response","541","527188","0.0-19.0-2.37","c2_test",".","","","","."
"342.9400000022724","<p style=""color:white;""> Next Figure: Male or Female? </p>","190","html-keyboard-response","542","527531","0.0-19.0-0.38","prediction","","","",".",""
"null","<div style=""color:white; font-size:60px;"">+</div>","null","html-keyboard-response","543","528533","0.0-19.0-1.38","fixation","","","","",""
"240.32000004081056","Stimuli/Hangul_M1.bmp","188","image-keyboard-response","544","528774","0.0-19.0-2.38","c2_test",",","","","",","
"264.629999990575","<p style=""color:white;""> Next Figure: Male or Female? </p>","188","html-keyboard-response","545","529039","0.0-19.0-0.39","prediction","","","",",",""
"null","<div style=""color:white; font-size:60px;"">+</div>","null","html-keyboard-response","546","530041","0.0-19.0-1.39","fixation","","","","",""
"211.829999985639","Stimuli/Hangul_M15.bmp","190","image-keyboard-response","547","530253","0.0-19.0-2.39","c2_test",",","","","","."
"390.1049999985844","<p style=""color:white;""> Next Figure: Male or Female? </p>","190","html-keyboard-response","548","530644","0.0-19.0-0.40","prediction","","","",".",""
"null","<div style=""color:white; font-size:60px;"">+</div>","null","html-keyboard-response","549","531646","0.0-19.0-1.40","fixation","","","","",""
"194.759999983944","Stimuli/Hangul_M21.bmp","188","image-keyboard-response","550","531842","0.0-19.0-2.40","c2_test",",","","","",","
"410.37499997764826","<p style=""color:white;""> Next Figure: Male or Female? </p>","188","html-keyboard-response","551","532253","0.0-19.0-0.41","prediction","","","",",",""
"null","<div style=""color:white; font-size:60px;"">+</div>","null","html-keyboard-response","552","533255","0.0-19.0-1.41","fixation","","","","",""
"716.7849999968894","Stimuli/Hangul_F23.bmp","188","image-keyboard-response","553","533972","0.0-19.0-2.41","c2_test",".","","","",","
"376.41000002622604","<p style=""color:white;""> Next Figure: Male or Female? </p>","188","html-keyboard-response","554","534349","0.0-19.0-0.42","prediction","","","",",",""
"null","<div style=""color:white; font-size:60px;"">+</div>","null","html-keyboard-response","555","535352","0.0-19.0-1.42","fixation","","","","",""
"884.0199999976903","Stimuli/Hangul_F7.bmp","190","image-keyboard-response","556","536236","0.0-19.0-2.42","c2_test",".","","","","."
"1055.9399999910966","<p style=""color:white;""> Next Figure: Male or Female? </p>","190","html-keyboard-response","557","537293","0.0-19.0-0.43","prediction","","","",".",""
"null","<div style=""color:white; font-size:60px;"">+</div>","null","html-keyboard-response","558","538294","0.0-19.0-1.43","fixation","","","","",""
"388.56499997200444","Stimuli/Hangul_M3.bmp","188","image-keyboard-response","559","538684","0.0-19.0-2.43","c2_test",",","","","",","
"1219.1400000010617","<p style=""color:white;""> Next Figure: Male or Female? </p>","190","html-keyboard-response","560","539904","0.0-19.0-0.44","prediction","","","",".",""
"null","<div style=""color:white; font-size:60px;"">+</div>","null","html-keyboard-response","561","540906","0.0-19.0-1.44","fixation","","","","",""
"71.82499999180436","Stimuli/Hangul_M4.bmp","188","image-keyboard-response","562","540979","0.0-19.0-2.44","c2_test",",","","","",","
"386.70500001171604","<p style=""color:white;""> Next Figure: Male or Female? </p>","188","html-keyboard-response","563","541366","0.0-19.0-0.45","prediction","","","",",",""
"null","<div style=""color:white; font-size:60px;"">+</div>","null","html-keyboard-response","564","542368","0.0-19.0-1.45","fixation","","","","",""
"453.89499998418614","Stimuli/Hangul_F4.bmp","188","image-keyboard-response","565","542823","0.0-19.0-2.45","c2_test",".","","","",","
"480.90999998385087","<p style=""color:white;""> Next Figure: Male or Female? </p>","190","html-keyboard-response","566","543305","0.0-19.0-0.46","prediction","","","",".",""
"null","<div style=""color:white; font-size:60px;"">+</div>","null","html-keyboard-response","567","544306","0.0-19.0-1.46","fixation","","","","",""
"581.3750000088476","Stimuli/Hangul_M22.bmp","190","image-keyboard-response","568","544888","0.0-19.0-2.46","c2_test",",","","","","."
"455.80499997595325","<p style=""color:white;""> Next Figure: Male or Female? </p>","190","html-keyboard-response","569","545344","0.0-19.0-0.47","prediction","","","",".",""
"null","<div style=""color:white; font-size:60px;"">+</div>","null","html-keyboard-response","570","546345","0.0-19.0-1.47","fixation","","","","",""
"924.0149999968708","Stimuli/Hangul_M19.bmp","188","image-keyboard-response","571","547270","0.0-19.0-2.47","c2_test",",","","","",","
"1461.5099999937229","<p style=""color:white;""> Next Figure: Male or Female? </p>","190","html-keyboard-response","572","548732","0.0-19.0-0.48","prediction","","","",".",""
"null","<div style=""color:white; font-size:60px;"">+</div>","null","html-keyboard-response","573","549734","0.0-19.0-1.48","fixation","","","","",""
"737.9599999985658","Stimuli/Hangul_M0.bmp","190","image-keyboard-response","574","550473","0.0-19.0-2.48","c2_test",",","","","","."
"408.1500000320375","<p style=""color:white;""> Next Figure: Male or Female? </p>","190","html-keyboard-response","575","550882","0.0-19.0-0.49","prediction","","","",".",""
"null","<div style=""color:white; font-size:60px;"">+</div>","null","html-keyboard-response","576","551883","0.0-19.0-1.49","fixation","","","","",""
"254.77999995928258","Stimuli/Hangul_F5.bmp","190","image-keyboard-response","577","552139","0.0-19.0-2.49","c2_test",".","","","","."
"7435.829999973066","<p style=""color:white;"">Good job, block 1 complete! Please take a moment to rest.</p> <p style=""color:white;"">When you are ready to continue with block 2 of 4, press the space bar.</p> ","32","html-keyboard-response","578","559575","0.0-20.0","","","","","",""
"277.6350000058301","<p style=""color:white;""> Next Figure: Male or Female? </p>","188","html-keyboard-response","579","561855","0.0-21.0-0.0","prediction","","","",",",""
"null","<div style=""color:white; font-size:60px;"">+</div>","null","html-keyboard-response","580","562856","0.0-21.0-1.0","fixation","","","","",""
"598.6650000559166","Stimuli/Hangul_F39.bmp","188","image-keyboard-response","581","563456","0.0-21.0-2.0","c2_test",".","","","",","
"349.8949999921024","<p style=""color:white;""> Next Figure: Male or Female? </p>","188","html-keyboard-response","582","563806","0.0-21.0-0.1","prediction","","","",",",""
"null","<div style=""color:white; font-size:60px;"">+</div>","null","html-keyboard-response","583","564807","0.0-21.0-1.1","fixation","","","","",""
"919.2250000196509","Stimuli/Hangul_F34.bmp","190","image-keyboard-response","584","565727","0.0-21.0-2.1","c2_test",".","","","","."
"837.7650000038557","<p style=""color:white;""> Next Figure: Male or Female? </p>","188","html-keyboard-response","585","566566","0.0-21.0-0.2","prediction","","","",",",""
"null","<div style=""color:white; font-size:60px;"">+</div>","null","html-keyboard-response","586","567568","0.0-21.0-1.2","fixation","","","","",""
"590.570000000298","Stimuli/Hangul_M34.bmp","188","image-keyboard-response","587","568159","0.0-21.0-2.2","c2_test",",","","","",","
"1992.610000015702","<p style=""color:white;""> Next Figure: Male or Female? </p>","188","html-keyboard-response","588","570153","0.0-21.0-0.3","prediction","","","",",",""
"null","<div style=""color:white; font-size:60px;"">+</div>","null","html-keyboard-response","589","571155","0.0-21.0-1.3","fixation","","","","",""
"379.73499996587634","Stimuli/Hangul_F38.bmp","190","image-keyboard-response","590","571536","0.0-21.0-2.3","c2_test",".","","","","."
"407.9550000024028","<p style=""color:white;""> Next Figure: Male or Female? </p>","188","html-keyboard-response","591","571944","0.0-21.0-0.4","prediction","","","",",",""
"null","<div style=""color:white; font-size:60px;"">+</div>","null","html-keyboard-response","592","572950","0.0-21.0-1.4","fixation","","","","",""
"447.96999997925013","Stimuli/Hangul_M40.bmp","188","image-keyboard-response","593","573398","0.0-21.0-2.4","c2_test",",","","","",","
"1335.930000001099","<p style=""color:white;""> Next Figure: Male or Female? </p>","188","html-keyboard-response","594","574735","0.0-21.0-0.5","prediction","","","",",",""
"null","<div style=""color:white; font-size:60px;"">+</div>","null","html-keyboard-response","595","575737","0.0-21.0-1.5","fixation","","","","",""
"1347.9700000025332","Stimuli/Hangul_F27.bmp","188","image-keyboard-response","596","577086","0.0-21.0-2.5","c2_test",".","","","",","
"302.90499998955056","<p style=""color:white;""> Next Figure: Male or Female? </p>","190","html-keyboard-response","597","577389","0.0-21.0-0.6","prediction","","","",".",""
"null","<div style=""color:white; font-size:60px;"">+</div>","null","html-keyboard-response","598","578391","0.0-21.0-1.6","fixation","","","","",""
"1774.9549999716692","Stimuli/Hangul_M38.bmp","188","image-keyboard-response","599","580167","0.0-21.0-2.6","c2_test",",","","","",","
"242.46500001754612","<p style=""color:white;""> Next Figure: Male or Female? </p>","190","html-keyboard-response","600","580410","0.0-21.0-0.7","prediction","","","",".",""
"null","<div style=""color:white; font-size:60px;"">+</div>","null","html-keyboard-response","601","581411","0.0-21.0-1.7","fixation","","","","",""
"1574.8599999933504","Stimuli/Hangul_M44.bmp","190","image-keyboard-response","602","582987","0.0-21.0-2.7","c2_test",",","","","","."
"385.77500003157184","<p style=""color:white;""> Next Figure: Male or Female? </p>","188","html-keyboard-response","603","583373","0.0-21.0-0.8","prediction","","","",",",""
"null","<div style=""color:white; font-size:60px;"">+</div>","null","html-keyboard-response","604","584374","0.0-21.0-1.8","fixation","","","","",""
"2714.994999987539","Stimuli/Hangul_M42.bmp","188","image-keyboard-response","605","587090","0.0-21.0-2.8","c2_test",",","","","",","
"2190.230000007432","<p style=""color:white;""> Next Figure: Male or Female? </p>","190","html-keyboard-response","606","589282","0.0-21.0-0.9","prediction","","","",".",""
"null","<div style=""color:white; font-size:60px;"">+</div>","null","html-keyboard-response","607","590284","0.0-21.0-1.9","fixation","","","","",""
"229.27000001072884","Stimuli/Hangul_M39.bmp","188","image-keyboard-response","608","590515","0.0-21.0-2.9","c2_test",",","","","",","
"1151.4900000183843","<p style=""color:white;""> Next Figure: Male or Female? </p>","188","html-keyboard-response","609","591667","0.0-21.0-0.10","prediction","","","",",",""
"null","<div style=""color:white; font-size:60px;"">+</div>","null","html-keyboard-response","610","592668","0.0-21.0-1.10","fixation","","","","",""
"282.20000001601875","Stimuli/Hangul_M26.bmp","188","image-keyboard-response","611","592951","0.0-21.0-2.10","c2_test",",","","","",","
"266.04499999666587","<p style=""color:white;""> Next Figure: Male or Female? </p>","190","html-keyboard-response","612","593218","0.0-21.0-0.11","prediction","","","",".",""
"null","<div style=""color:white; font-size:60px;"">+</div>","null","html-keyboard-response","613","594220","0.0-21.0-1.11","fixation","","","","",""
"216.01500001270324","Stimuli/Hangul_F26.bmp","190","image-keyboard-response","614","594436","0.0-21.0-2.11","c2_test",".","","","","."
"1586.8899999768473","<p style=""color:white;""> Next Figure: Male or Female? </p>","190","html-keyboard-response","615","596024","0.0-21.0-0.12","prediction","","","",".",""
"null","<div style=""color:white; font-size:60px;"">+</div>","null","html-keyboard-response","616","597026","0.0-21.0-1.12","fixation","","","","",""
"205.58000000892207","Stimuli/Hangul_M32.bmp","188","image-keyboard-response","617","597232","0.0-21.0-2.12","c2_test",",","","","",","
"865.8899999572895","<p style=""color:white;""> Next Figure: Male or Female? </p>","188","html-keyboard-response","618","598098","0.0-21.0-0.13","prediction","","","",",",""
"null","<div style=""color:white; font-size:60px;"">+</div>","null","html-keyboard-response","619","599100","0.0-21.0-1.13","fixation","","","","",""
"453.7249999702908","Stimuli/Hangul_M25.bmp","188","image-keyboard-response","620","599554","0.0-21.0-2.13","c2_test",",","","","",","
"1247.414999990724","<p style=""color:white;""> Next Figure: Male or Female? </p>","190","html-keyboard-response","621","600803","0.0-21.0-0.14","prediction","","","",".",""
"null","<div style=""color:white; font-size:60px;"">+</div>","null","html-keyboard-response","622","601803","0.0-21.0-1.14","fixation","","","","",""
"251.80500000715256","Stimuli/Hangul_F25.bmp","190","image-keyboard-response","623","602057","0.0-21.0-2.14","c2_test",".","","","","."
"875.9300000383519","<p style=""color:white;""> Next Figure: Male or Female? </p>","190","html-keyboard-response","624","602934","0.0-21.0-0.15","prediction","","","",".",""
"null","<div style=""color:white; font-size:60px;"">+</div>","null","html-keyboard-response","625","603936","0.0-21.0-1.15","fixation","","","","",""
"77.67500000772998","Stimuli/Hangul_M47.bmp","190","image-keyboard-response","626","604014","0.0-21.0-2.15","c2_test",",","","","","."
"498.52500000270084","<p style=""color:white;""> Next Figure: Male or Female? </p>","188","html-keyboard-response","627","604513","0.0-21.0-0.16","prediction","","","",",",""
"null","<div style=""color:white; font-size:60px;"">+</div>","null","html-keyboard-response","628","605516","0.0-21.0-1.16","fixation","","","","",""
"421.985000022687","Stimuli/Hangul_M49.bmp","188","image-keyboard-response","629","605939","0.0-21.0-2.16","c2_test",",","","","",","
"666.8449999997392","<p style=""color:white;""> Next Figure: Male or Female? </p>","190","html-keyboard-response","630","606606","0.0-21.0-0.17","prediction","","","",".",""
"null","<div style=""color:white; font-size:60px;"">+</div>","null","html-keyboard-response","631","607609","0.0-21.0-1.17","fixation","","","","",""
"497.1149999764748","Stimuli/Hangul_F37.bmp","190","image-keyboard-response","632","608107","0.0-21.0-2.17","c2_test",".","","","","."
"910.0549999857321","<p style=""color:white;""> Next Figure: Male or Female? </p>","190","html-keyboard-response","633","609017","0.0-21.0-0.18","prediction","","","",".",""
"null","<div style=""color:white; font-size:60px;"">+</div>","null","html-keyboard-response","634","610020","0.0-21.0-1.18","fixation","","","","",""
"268.3449999894947","Stimuli/Hangul_F40.bmp","190","image-keyboard-response","635","610289","0.0-21.0-2.18","c2_test",".","","","","."
"484.58000004757196","<p style=""color:white;""> Next Figure: Male or Female? </p>","188","html-keyboard-response","636","610774","0.0-21.0-0.19","prediction","","","",",",""
"null","<div style=""color:white; font-size:60px;"">+</div>","null","html-keyboard-response","637","611776","0.0-21.0-1.19","fixation","","","","",""
"798.1349999899976","Stimuli/Hangul_F28.bmp","190","image-keyboard-response","638","612575","0.0-21.0-2.19","c2_test",".","","","","."
"1147.9449999751523","<p style=""color:white;""> Next Figure: Male or Female? </p>","190","html-keyboard-response","639","613723","0.0-21.0-0.20","prediction","","","",".",""
"null","<div style=""color:white; font-size:60px;"">+</div>","null","html-keyboard-response","640","614725","0.0-21.0-1.20","fixation","","","","",""
"744.0300000016578","Stimuli/Hangul_M36.bmp","188","image-keyboard-response","641","615470","0.0-21.0-2.20","c2_test",",","","","",","
"1290.0149999768473","<p style=""color:white;""> Next Figure: Male or Female? </p>","188","html-keyboard-response","642","616761","0.0-21.0-0.21","prediction","","","",",",""
"null","<div style=""color:white; font-size:60px;"">+</div>","null","html-keyboard-response","643","617762","0.0-21.0-1.21","fixation","","","","",""
"219.71500001382083","Stimuli/Hangul_M28.bmp","188","image-keyboard-response","644","617983","0.0-21.0-2.21","c2_test",",","","","",","
"1381.5499999909662","<p style=""color:white;""> Next Figure: Male or Female? </p>","190","html-keyboard-response","645","619365","0.0-21.0-0.22","prediction","","","",".",""
"null","<div style=""color:white; font-size:60px;"">+</div>","null","html-keyboard-response","646","620367","0.0-21.0-1.22","fixation","","","","",""
"367.1599999652244","Stimuli/Hangul_F44.bmp","188","image-keyboard-response","647","620735","0.0-21.0-2.22","c2_test",".","","","",","
"792.6850000512786","<p style=""color:white;""> Next Figure: Male or Female? </p>","190","html-keyboard-response","648","621529","0.0-21.0-0.23","prediction","","","",".",""
"null","<div style=""color:white; font-size:60px;"">+</div>","null","html-keyboard-response","649","622531","0.0-21.0-1.23","fixation","","","","",""
"291.36000003200024","Stimuli/Hangul_M37.bmp","190","image-keyboard-response","650","622823","0.0-21.0-2.23","c2_test",",","","","","."
"491.55499995686114","<p style=""color:white;""> Next Figure: Male or Female? </p>","190","html-keyboard-response","651","623315","0.0-21.0-0.24","prediction","","","",".",""
"null","<div style=""color:white; font-size:60px;"">+</div>","null","html-keyboard-response","652","624316","0.0-21.0-1.24","fixation","","","","",""
"298.82000002544373","Stimuli/Hangul_F36.bmp","190","image-keyboard-response","653","624616","0.0-21.0-2.24","c2_test",".","","","","."
"340.6350000295788","<p style=""color:white;""> Next Figure: Male or Female? </p>","190","html-keyboard-response","654","624957","0.0-21.0-0.25","prediction","","","",".",""
"null","<div style=""color:white; font-size:60px;"">+</div>","null","html-keyboard-response","655","625958","0.0-21.0-1.25","fixation","","","","",""
"291.9800000381656","Stimuli/Hangul_M35.bmp","188","image-keyboard-response","656","626251","0.0-21.0-2.25","c2_test",",","","","",","
"264.3899999675341","<p style=""color:white;""> Next Figure: Male or Female? </p>","188","html-keyboard-response","657","626516","0.0-21.0-0.26","prediction","","","",",",""
"null","<div style=""color:white; font-size:60px;"">+</div>","null","html-keyboard-response","658","627518","0.0-21.0-1.26","fixation","","","","",""
