"rt","stimulus","key_press","trial_type","trial_index","time_elapsed","internal_node_id","test_part","correct_response","C1_train","C1","A","C2"
"3238.2549999747425","<p style=""color:white;"">Welcome to the experiment! Press any key to begin.</p>","32","html-keyboard-response","0","3283","0.0-0.0","","","","","",""
"34451.91999990493","<p style=""color:white;"">You will see a series of abstract figures. They are adaptations of signs in the Korean alphabet, but that is not important for this study. </p><p style=""color:white;"">Abstract figures sometimes have a more masculine or feminine shape. Here, each figure has already been assigned a gender as <q>Male</q> or <q>Female</q> by a panel of respondents in a pilot study. The respondents were not given specific instructions on how to do this, but were only told to use their intuition and to take into account the entire configuration of the stimulus. </p><p style=""color:white;"">Your task now is to guess the assigned gender of each figure. Please press the corresponding response keys to indicate your choice: </p><p style=""color:white;""> Male &#8594 <q>,</q> (comma)</p><p style=""color:white;""> Female &#8594 <q>.</q> (period)</p><p style=""color:white;"">Press either response keys to continue.</p>","188","html-keyboard-response","1","37737","0.0-1.0","","","","","",""
"15363.33499988541","<p style=""color:white;"">Your choice is correct if it matches the gender assigned by the majority of respondents in the pilot study.</p> <p style=""color:white;"">For each correct choice you will receive 2 cents. There will be 200 trials divided into 4 blocks of 50 trials. You will be able to take a break after every 50 trials.</p> <p style=""color:white;"">Press the space bar to continue.</p>","32","html-keyboard-response","2","53101","0.0-2.0","","","","","",""
"6363.760000094771","<p style=""color:white;"">Here are some examples.</p> <p style=""color:white;"">For each, guess whether the assigned figure is male-like or female-like and indicate your choice by pressing either response keys.</p> <p style=""color:white;"">Press the space bar to continue.</p>","32","html-keyboard-response","3","59467","0.0-3.0","","","","","",""
"null","<div style=""color:white; font-size:60px;"">+</div>","null","html-keyboard-response","4","62471","0.0-4.0-0.0","fixation","","","","",""
"3354.9399999901652","Stimuli/Hangul_E0.bmp","188","image-keyboard-response","5","65830","0.0-4.0-1.0","c1_train",",",",","","",""
"null","<div style=""color:white; font-size:60px;"">+</div>","null","html-keyboard-response","6","66833","0.0-4.0-0.1","fixation","","","","",""
"2299.089999869466","Stimuli/Hangul_E2.bmp","190","image-keyboard-response","7","69134","0.0-4.0-1.1","c1_train",".",".","","",""
"null","<div style=""color:white; font-size:60px;"">+</div>","null","html-keyboard-response","8","70136","0.0-4.0-0.2","fixation","","","","",""
"2306.404999922961","Stimuli/Hangul_E1.bmp","188","image-keyboard-response","9","72446","0.0-4.0-1.2","c1_train",",",",","","",""
"3961.600000038743","<p style=""color:white;"">Let us begin! Press the space bar when you are ready to start block 1 of 4.</p> ","32","html-keyboard-response","10","76410","0.0-5.0","","","","","",""
"null","<div style=""color:white; font-size:60px;"">+</div>","null","html-keyboard-response","11","79414","0.0-6.0-0.0","fixation","","","","",""
"2541.865000035614","Stimuli/Hangul_M16.bmp","188","image-keyboard-response","12","81959","0.0-6.0-1.0","test",",","",",","",""
"null","<div style=""color:white; font-size:60px;"">+</div>","null","html-keyboard-response","13","82961","0.0-6.0-0.1","fixation","","","","",""
"1837.7449999097735","Stimuli/Hangul_M13.bmp","188","image-keyboard-response","14","84800","0.0-6.0-1.1","test",",","",",","",""
"null","<div style=""color:white; font-size:60px;"">+</div>","null","html-keyboard-response","15","85803","0.0-6.0-0.2","fixation","","","","",""
"2045.325000071898","Stimuli/Hangul_F12.bmp","188","image-keyboard-response","16","87850","0.0-6.0-1.2","test",".","",",","",""
"null","<div style=""color:white; font-size:60px;"">+</div>","null","html-keyboard-response","17","88853","0.0-6.0-0.3","fixation","","","","",""
"2409.724999917671","Stimuli/Hangul_M4.bmp","188","image-keyboard-response","18","91264","0.0-6.0-1.3","test",",","",",","",""
"null","<div style=""color:white; font-size:60px;"">+</div>","null","html-keyboard-response","19","92265","0.0-6.0-0.4","fixation","","","","",""
"1979.3899999931455","Stimuli/Hangul_M5.bmp","190","image-keyboard-response","20","94248","0.0-6.0-1.4","test",",","",".","",""
"null","<div style=""color:white; font-size:60px;"">+</div>","null","html-keyboard-response","21","95250","0.0-6.0-0.5","fixation","","","","",""
"2026.3999998569489","Stimuli/Hangul_M10.bmp","190","image-keyboard-response","22","97279","0.0-6.0-1.5","test",",","",".","",""
"null","<div style=""color:white; font-size:60px;"">+</div>","null","html-keyboard-response","23","98281","0.0-6.0-0.6","fixation","","","","",""
"1760.7350000180304","Stimuli/Hangul_F10.bmp","190","image-keyboard-response","24","100053","0.0-6.0-1.6","test",".","",".","",""
"null","<div style=""color:white; font-size:60px;"">+</div>","null","html-keyboard-response","25","101062","0.0-6.0-0.7","fixation","","","","",""
"1475.0350001268089","Stimuli/Hangul_F14.bmp","190","image-keyboard-response","26","102540","0.0-6.0-1.7","test",".","",".","",""
"null","<div style=""color:white; font-size:60px;"">+</div>","null","html-keyboard-response","27","103541","0.0-6.0-0.8","fixation","","","","",""
"1670.9349998272955","Stimuli/Hangul_F22.bmp","190","image-keyboard-response","28","105213","0.0-6.0-1.8","test",".","",".","",""
"null","<div style=""color:white; font-size:60px;"">+</div>","null","html-keyboard-response","29","106216","0.0-6.0-0.9","fixation","","","","",""
"1990.9700001589954","Stimuli/Hangul_M7.bmp","190","image-keyboard-response","30","108208","0.0-6.0-1.9","test",",","",".","",""
"null","<div style=""color:white; font-size:60px;"">+</div>","null","html-keyboard-response","31","109210","0.0-6.0-0.10","fixation","","","","",""
"1679.6549998689443","Stimuli/Hangul_M15.bmp","188","image-keyboard-response","32","110893","0.0-6.0-1.10","test",",","",",","",""
"null","<div style=""color:white; font-size:60px;"">+</div>","null","html-keyboard-response","33","111894","0.0-6.0-0.11","fixation","","","","",""
"1341.149999992922","Stimuli/Hangul_F21.bmp","190","image-keyboard-response","34","113237","0.0-6.0-1.11","test",".","",".","",""
"null","<div style=""color:white; font-size:60px;"">+</div>","null","html-keyboard-response","35","114239","0.0-6.0-0.12","fixation","","","","",""
"2626.3749999925494","Stimuli/Hangul_F15.bmp","188","image-keyboard-response","36","116867","0.0-6.0-1.12","test",".","",",","",""
"null","<div style=""color:white; font-size:60px;"">+</div>","null","html-keyboard-response","37","117870","0.0-6.0-0.13","fixation","","","","",""
"1517.8900000173599","Stimuli/Hangul_M9.bmp","188","image-keyboard-response","38","119393","0.0-6.0-1.13","test",",","",",","",""
"null","<div style=""color:white; font-size:60px;"">+</div>","null","html-keyboard-response","39","120395","0.0-6.0-0.14","fixation","","","","",""
"1358.7700000498444","Stimuli/Hangul_F11.bmp","188","image-keyboard-response","40","121755","0.0-6.0-1.14","test",".","",",","",""
"null","<div style=""color:white; font-size:60px;"">+</div>","null","html-keyboard-response","41","122760","0.0-6.0-0.15","fixation","","","","",""
"2523.545000003651","Stimuli/Hangul_F9.bmp","188","image-keyboard-response","42","125285","0.0-6.0-1.15","test",".","",",","",""
"null","<div style=""color:white; font-size:60px;"">+</div>","null","html-keyboard-response","43","126287","0.0-6.0-0.16","fixation","","","","",""
"1997.8899999987334","Stimuli/Hangul_M0.bmp","190","image-keyboard-response","44","128288","0.0-6.0-1.16","test",",","",".","",""
"null","<div style=""color:white; font-size:60px;"">+</div>","null","html-keyboard-response","45","129292","0.0-6.0-0.17","fixation","","","","",""
"1554.37000002712","Stimuli/Hangul_F1.bmp","190","image-keyboard-response","46","130848","0.0-6.0-1.17","test",".","",".","",""
"null","<div style=""color:white; font-size:60px;"">+</div>","null","html-keyboard-response","47","131850","0.0-6.0-0.18","fixation","","","","",""
"2581.189999822527","Stimuli/Hangul_F17.bmp","190","image-keyboard-response","48","134434","0.0-6.0-1.18","test",".","",".","",""
"null","<div style=""color:white; font-size:60px;"">+</div>","null","html-keyboard-response","49","135436","0.0-6.0-0.19","fixation","","","","",""
"1726.0000000242144","Stimuli/Hangul_F16.bmp","188","image-keyboard-response","50","137165","0.0-6.0-1.19","test",".","",",","",""
"null","<div style=""color:white; font-size:60px;"">+</div>","null","html-keyboard-response","51","138167","0.0-6.0-0.20","fixation","","","","",""
"1753.7350000347942","Stimuli/Hangul_M14.bmp","188","image-keyboard-response","52","139922","0.0-6.0-1.20","test",",","",",","",""
"null","<div style=""color:white; font-size:60px;"">+</div>","null","html-keyboard-response","53","140925","0.0-6.0-0.21","fixation","","","","",""
"1451.6849999781698","Stimuli/Hangul_F8.bmp","190","image-keyboard-response","54","142378","0.0-6.0-1.21","test",".","",".","",""
"null","<div style=""color:white; font-size:60px;"">+</div>","null","html-keyboard-response","55","143380","0.0-6.0-0.22","fixation","","","","",""
"1783.229999942705","Stimuli/Hangul_M12.bmp","188","image-keyboard-response","56","145164","0.0-6.0-1.22","test",",","",",","",""
"null","<div style=""color:white; font-size:60px;"">+</div>","null","html-keyboard-response","57","146165","0.0-6.0-0.23","fixation","","","","",""
"1398.1650001369417","Stimuli/Hangul_M11.bmp","188","image-keyboard-response","58","147566","0.0-6.0-1.23","test",",","",",","",""
"null","<div style=""color:white; font-size:60px;"">+</div>","null","html-keyboard-response","59","148567","0.0-6.0-0.24","fixation","","","","",""
"2071.6450000181794","Stimuli/Hangul_M3.bmp","188","image-keyboard-response","60","150640","0.0-6.0-1.24","test",",","",",","",""
"null","<div style=""color:white; font-size:60px;"">+</div>","null","html-keyboard-response","61","151643","0.0-6.0-0.25","fixation","","","","",""
"1386.5699998568743","Stimuli/Hangul_M22.bmp","188","image-keyboard-response","62","153032","0.0-6.0-1.25","test",",","",",","",""
"null","<div style=""color:white; font-size:60px;"">+</div>","null","html-keyboard-response","63","154035","0.0-6.0-0.26","fixation","","","","",""
"1576.4750000089407","Stimuli/Hangul_M6.bmp","188","image-keyboard-response","64","155613","0.0-6.0-1.26","test",",","",",","",""
"null","<div style=""color:white; font-size:60px;"">+</div>","null","html-keyboard-response","65","156616","0.0-6.0-0.27","fixation","","","","",""
"1603.7149999756366","Stimuli/Hangul_M2.bmp","190","image-keyboard-response","66","158222","0.0-6.0-1.27","test",",","",".","",""
"null","<div style=""color:white; font-size:60px;"">+</div>","null","html-keyboard-response","67","159224","0.0-6.0-0.28","fixation","","","","",""
"2222.5250001065433","Stimuli/Hangul_F0.bmp","190","image-keyboard-response","68","161449","0.0-6.0-1.28","test",".","",".","",""
"null","<div style=""color:white; font-size:60px;"">+</div>","null","html-keyboard-response","69","162456","0.0-6.0-0.29","fixation","","","","",""
"1681.0050001367927","Stimuli/Hangul_F23.bmp","188","image-keyboard-response","70","164139","0.0-6.0-1.29","test",".","",",","",""
"null","<div style=""color:white; font-size:60px;"">+</div>","null","html-keyboard-response","71","165141","0.0-6.0-0.30","fixation","","","","",""
"1331.389999948442","Stimuli/Hangul_M17.bmp","188","image-keyboard-response","72","166475","0.0-6.0-1.30","test",",","",",","",""
"null","<div style=""color:white; font-size:60px;"">+</div>","null","html-keyboard-response","73","167477","0.0-6.0-0.31","fixation","","","","",""
"1679.3150000739843","Stimuli/Hangul_F18.bmp","190","image-keyboard-response","74","169157","0.0-6.0-1.31","test",".","",".","",""
"null","<div style=""color:white; font-size:60px;"">+</div>","null","html-keyboard-response","75","170161","0.0-6.0-0.32","fixation","","","","",""
"1659.0599999763072","Stimuli/Hangul_F13.bmp","188","image-keyboard-response","76","171821","0.0-6.0-1.32","test",".","",",","",""
"null","<div style=""color:white; font-size:60px;"">+</div>","null","html-keyboard-response","77","172822","0.0-6.0-0.33","fixation","","","","",""
"1774.3850001133978","Stimuli/Hangul_M23.bmp","190","image-keyboard-response","78","174599","0.0-6.0-1.33","test",",","",".","",""
"null","<div style=""color:white; font-size:60px;"">+</div>","null","html-keyboard-response","79","175604","0.0-6.0-0.34","fixation","","","","",""
"2043.6499998904765","Stimuli/Hangul_F2.bmp","188","image-keyboard-response","80","177651","0.0-6.0-1.34","test",".","",",","",""
"null","<div style=""color:white; font-size:60px;"">+</div>","null","html-keyboard-response","81","178655","0.0-6.0-0.35","fixation","","","","",""
"1997.0099998172373","Stimuli/Hangul_F19.bmp","190","image-keyboard-response","82","180655","0.0-6.0-1.35","test",".","",".","",""
"null","<div style=""color:white; font-size:60px;"">+</div>","null","html-keyboard-response","83","181658","0.0-6.0-0.36","fixation","","","","",""
"3031.315000029281","Stimuli/Hangul_M20.bmp","188","image-keyboard-response","84","184692","0.0-6.0-1.36","test",",","",",","",""
"null","<div style=""color:white; font-size:60px;"">+</div>","null","html-keyboard-response","85","185693","0.0-6.0-0.37","fixation","","","","",""
"1629.735000198707","Stimuli/Hangul_M8.bmp","188","image-keyboard-response","86","187327","0.0-6.0-1.37","test",",","",",","",""
"null","<div style=""color:white; font-size:60px;"">+</div>","null","html-keyboard-response","87","188329","0.0-6.0-0.38","fixation","","","","",""
"1802.4300001561642","Stimuli/Hangul_F20.bmp","190","image-keyboard-response","88","190133","0.0-6.0-1.38","test",".","",".","",""
"null","<div style=""color:white; font-size:60px;"">+</div>","null","html-keyboard-response","89","191135","0.0-6.0-0.39","fixation","","","","",""
"2664.220000151545","Stimuli/Hangul_M21.bmp","190","image-keyboard-response","90","193801","0.0-6.0-1.39","test",",","",".","",""
"null","<div style=""color:white; font-size:60px;"">+</div>","null","html-keyboard-response","91","194802","0.0-6.0-0.40","fixation","","","","",""
"1983.934999909252","Stimuli/Hangul_F3.bmp","188","image-keyboard-response","92","196787","0.0-6.0-1.40","test",".","",",","",""
"null","<div style=""color:white; font-size:60px;"">+</div>","null","html-keyboard-response","93","197790","0.0-6.0-0.41","fixation","","","","",""
"2367.2650000080466","Stimuli/Hangul_M19.bmp","190","image-keyboard-response","94","200160","0.0-6.0-1.41","test",",","",".","",""
"null","<div style=""color:white; font-size:60px;"">+</div>","null","html-keyboard-response","95","201162","0.0-6.0-0.42","fixation","","","","",""
"2211.045000003651","Stimuli/Hangul_M24.bmp","188","image-keyboard-response","96","203374","0.0-6.0-1.42","test",",","",",","",""
"null","<div style=""color:white; font-size:60px;"">+</div>","null","html-keyboard-response","97","204377","0.0-6.0-0.43","fixation","","","","",""
"1642.055000178516","Stimuli/Hangul_M1.bmp","188","image-keyboard-response","98","206023","0.0-6.0-1.43","test",",","",",","",""
"null","<div style=""color:white; font-size:60px;"">+</div>","null","html-keyboard-response","99","207025","0.0-6.0-0.44","fixation","","","","",""
"2113.870000001043","Stimuli/Hangul_F24.bmp","188","image-keyboard-response","100","209140","0.0-6.0-1.44","test",".","",",","",""
"null","<div style=""color:white; font-size:60px;"">+</div>","null","html-keyboard-response","101","210142","0.0-6.0-0.45","fixation","","","","",""
"1507.7200001105666","Stimuli/Hangul_F5.bmp","188","image-keyboard-response","102","211653","0.0-6.0-1.45","test",".","",",","",""
"null","<div style=""color:white; font-size:60px;"">+</div>","null","html-keyboard-response","103","212654","0.0-6.0-0.46","fixation","","","","",""
"1579.0300001390278","Stimuli/Hangul_F4.bmp","190","image-keyboard-response","104","214236","0.0-6.0-1.46","test",".","",".","",""
"null","<div style=""color:white; font-size:60px;"">+</div>","null","html-keyboard-response","105","215238","0.0-6.0-0.47","fixation","","","","",""
"1633.4599999245256","Stimuli/Hangul_F7.bmp","188","image-keyboard-response","106","216873","0.0-6.0-1.47","test",".","",",","",""
"null","<div style=""color:white; font-size:60px;"">+</div>","null","html-keyboard-response","107","217877","0.0-6.0-0.48","fixation","","","","",""
"1697.8100000414997","Stimuli/Hangul_M18.bmp","188","image-keyboard-response","108","219577","0.0-6.0-1.48","test",",","",",","",""
"null","<div style=""color:white; font-size:60px;"">+</div>","null","html-keyboard-response","109","220580","0.0-6.0-0.49","fixation","","","","",""
"1695.795000065118","Stimuli/Hangul_F6.bmp","188","image-keyboard-response","110","222278","0.0-6.0-1.49","test",".","",",","",""
"58577.96999998391","<p style=""color:white;"">Good job, block 1 complete! Please take a moment to rest.</p> <p style=""color:white;"">When you are ready to continue with block 2 of 4, press the space bar.</p> ","32","html-keyboard-response","111","280858","0.0-7.0","","","","","",""
"null","<div style=""color:white; font-size:60px;"">+</div>","null","html-keyboard-response","112","283861","0.0-8.0-0.0","fixation","","","","",""
"2137.1349999681115","Stimuli/Hangul_F26.bmp","188","image-keyboard-response","113","286001","0.0-8.0-1.0","test",".","",",","",""
"null","<div style=""color:white; font-size:60px;"">+</div>","null","html-keyboard-response","114","287003","0.0-8.0-0.1","fixation","","","","",""
"1612.849999917671","Stimuli/Hangul_F48.bmp","188","image-keyboard-response","115","288618","0.0-8.0-1.1","test",".","",",","",""
"null","<div style=""color:white; font-size:60px;"">+</div>","null","html-keyboard-response","116","289622","0.0-8.0-0.2","fixation","","","","",""
"1881.4799999818206","Stimuli/Hangul_M39.bmp","188","image-keyboard-response","117","291505","0.0-8.0-1.2","test",",","",",","",""
"null","<div style=""color:white; font-size:60px;"">+</div>","null","html-keyboard-response","118","292507","0.0-8.0-0.3","fixation","","","","",""
"2037.4350000638515","Stimuli/Hangul_M45.bmp","188","image-keyboard-response","119","294548","0.0-8.0-1.3","test",",","",",","",""
"null","<div style=""color:white; font-size:60px;"">+</div>","null","html-keyboard-response","120","295550","0.0-8.0-0.4","fixation","","","","",""
"1756.5099999774247","Stimuli/Hangul_F25.bmp","188","image-keyboard-response","121","297309","0.0-8.0-1.4","test",".","",",","",""
"null","<div style=""color:white; font-size:60px;"">+</div>","null","html-keyboard-response","122","298311","0.0-8.0-0.5","fixation","","","","",""
"1779.3900000397116","Stimuli/Hangul_F32.bmp","190","image-keyboard-response","123","300092","0.0-8.0-1.5","test",".","",".","",""
"null","<div style=""color:white; font-size:60px;"">+</div>","null","html-keyboard-response","124","301094","0.0-8.0-0.6","fixation","","","","",""
"1610.4749999940395","Stimuli/Hangul_F38.bmp","188","image-keyboard-response","125","302706","0.0-8.0-1.6","test",".","",",","",""
"null","<div style=""color:white; font-size:60px;"">+</div>","null","html-keyboard-response","126","303708","0.0-8.0-0.7","fixation","","","","",""
"1992.765000090003","Stimuli/Hangul_M46.bmp","188","image-keyboard-response","127","305703","0.0-8.0-1.7","test",",","",",","",""
"null","<div style=""color:white; font-size:60px;"">+</div>","null","html-keyboard-response","128","306705","0.0-8.0-0.8","fixation","","","","",""
"2308.8599999900907","Stimuli/Hangul_M48.bmp","188","image-keyboard-response","129","309017","0.0-8.0-1.8","test",",","",",","",""
"null","<div style=""color:white; font-size:60px;"">+</div>","null","html-keyboard-response","130","310019","0.0-8.0-0.9","fixation","","","","",""
"1485.215000109747","Stimuli/Hangul_F33.bmp","190","image-keyboard-response","131","311507","0.0-8.0-1.9","test",".","",".","",""
"null","<div style=""color:white; font-size:60px;"">+</div>","null","html-keyboard-response","132","312509","0.0-8.0-0.10","fixation","","","","",""
"1511.5549999754876","Stimuli/Hangul_M41.bmp","188","image-keyboard-response","133","314023","0.0-8.0-1.10","test",",","",",","",""
"null","<div style=""color:white; font-size:60px;"">+</div>","null","html-keyboard-response","134","315025","0.0-8.0-0.11","fixation","","","","",""
"1643.320000031963","Stimuli/Hangul_M49.bmp","188","image-keyboard-response","135","316670","0.0-8.0-1.11","test",",","",",","",""
"null","<div style=""color:white; font-size:60px;"">+</div>","null","html-keyboard-response","136","317673","0.0-8.0-0.12","fixation","","","","",""
"1728.0949999112636","Stimuli/Hangul_F49.bmp","188","image-keyboard-response","137","319403","0.0-8.0-1.12","test",".","",",","",""
"null","<div style=""color:white; font-size:60px;"">+</div>","null","html-keyboard-response","138","320403","0.0-8.0-0.13","fixation","","","","",""
"2080.0750001799315","Stimuli/Hangul_M42.bmp","188","image-keyboard-response","139","322485","0.0-8.0-1.13","test",",","",",","",""
"null","<div style=""color:white; font-size:60px;"">+</div>","null","html-keyboard-response","140","323488","0.0-8.0-0.14","fixation","","","","",""
"1732.774999924004","Stimuli/Hangul_M35.bmp","190","image-keyboard-response","141","325222","0.0-8.0-1.14","test",",","",".","",""
"null","<div style=""color:white; font-size:60px;"">+</div>","null","html-keyboard-response","142","326224","0.0-8.0-0.15","fixation","","","","",""
"1952.9750000219792","Stimuli/Hangul_F46.bmp","188","image-keyboard-response","143","328179","0.0-8.0-1.15","test",".","",",","",""
"null","<div style=""color:white; font-size:60px;"">+</div>","null","html-keyboard-response","144","329180","0.0-8.0-0.16","fixation","","","","",""
"2024.6200000401586","Stimuli/Hangul_F35.bmp","190","image-keyboard-response","145","331207","0.0-8.0-1.16","test",".","",".","",""
"null","<div style=""color:white; font-size:60px;"">+</div>","null","html-keyboard-response","146","332209","0.0-8.0-0.17","fixation","","","","",""
"2160.4349999688566","Stimuli/Hangul_M33.bmp","188","image-keyboard-response","147","334372","0.0-8.0-1.17","test",",","",",","",""
"null","<div style=""color:white; font-size:60px;"">+</div>","null","html-keyboard-response","148","335374","0.0-8.0-0.18","fixation","","","","",""
"1556.9200001191348","Stimuli/Hangul_M43.bmp","188","image-keyboard-response","149","336932","0.0-8.0-1.18","test",",","",",","",""
"null","<div style=""color:white; font-size:60px;"">+</div>","null","html-keyboard-response","150","337934","0.0-8.0-0.19","fixation","","","","",""
"2395.2850000932813","Stimuli/Hangul_M28.bmp","190","image-keyboard-response","151","340332","0.0-8.0-1.19","test",",","",".","",""
"null","<div style=""color:white; font-size:60px;"">+</div>","null","html-keyboard-response","152","341334","0.0-8.0-0.20","fixation","","","","",""
"1704.4750000350177","Stimuli/Hangul_M40.bmp","188","image-keyboard-response","153","343039","0.0-8.0-1.20","test",",","",",","",""
"null","<div style=""color:white; font-size:60px;"">+</div>","null","html-keyboard-response","154","344041","0.0-8.0-0.21","fixation","","","","",""
"1628.2399999909103","Stimuli/Hangul_M44.bmp","188","image-keyboard-response","155","345672","0.0-8.0-1.21","test",",","",",","",""
"null","<div style=""color:white; font-size:60px;"">+</div>","null","html-keyboard-response","156","346675","0.0-8.0-0.22","fixation","","","","",""
"1531.459999969229","Stimuli/Hangul_F45.bmp","190","image-keyboard-response","157","348207","0.0-8.0-1.22","test",".","",".","",""
"null","<div style=""color:white; font-size:60px;"">+</div>","null","html-keyboard-response","158","349209","0.0-8.0-0.23","fixation","","","","",""
"1842.475000070408","Stimuli/Hangul_F27.bmp","190","image-keyboard-response","159","351053","0.0-8.0-1.23","test",".","",".","",""
"null","<div style=""color:white; font-size:60px;"">+</div>","null","html-keyboard-response","160","352056","0.0-8.0-0.24","fixation","","","","",""
"2030.5250000674278","Stimuli/Hangul_F34.bmp","190","image-keyboard-response","161","354089","0.0-8.0-1.24","test",".","",".","",""
"null","<div style=""color:white; font-size:60px;"">+</div>","null","html-keyboard-response","162","355092","0.0-8.0-0.25","fixation","","","","",""
"1668.0949998553842","Stimuli/Hangul_M38.bmp","190","image-keyboard-response","163","356761","0.0-8.0-1.25","test",",","",".","",""
"null","<div style=""color:white; font-size:60px;"">+</div>","null","html-keyboard-response","164","357762","0.0-8.0-0.26","fixation","","","","",""
"1747.7599999401718","Stimuli/Hangul_M31.bmp","190","image-keyboard-response","165","359513","0.0-8.0-1.26","test",",","",".","",""
"null","<div style=""color:white; font-size:60px;"">+</div>","null","html-keyboard-response","166","360515","0.0-8.0-0.27","fixation","","","","",""
"1470.9250000305474","Stimuli/Hangul_F41.bmp","190","image-keyboard-response","167","361989","0.0-8.0-1.27","test",".","",".","",""
"null","<div style=""color:white; font-size:60px;"">+</div>","null","html-keyboard-response","168","362993","0.0-8.0-0.28","fixation","","","","",""
"1679.5349998865277","Stimuli/Hangul_M32.bmp","188","image-keyboard-response","169","364674","0.0-8.0-1.28","test",",","",",","",""
"null","<div style=""color:white; font-size:60px;"">+</div>","null","html-keyboard-response","170","365678","0.0-8.0-0.29","fixation","","","","",""
"1726.425000000745","Stimuli/Hangul_M30.bmp","188","image-keyboard-response","171","367406","0.0-8.0-1.29","test",",","",",","",""
"null","<div style=""color:white; font-size:60px;"">+</div>","null","html-keyboard-response","172","368408","0.0-8.0-0.30","fixation","","","","",""
"2134.864999912679","Stimuli/Hangul_M29.bmp","188","image-keyboard-response","173","370548","0.0-8.0-1.30","test",",","",",","",""
"null","<div style=""color:white; font-size:60px;"">+</div>","null","html-keyboard-response","174","371550","0.0-8.0-0.31","fixation","","","","",""
"1823.629999998957","Stimuli/Hangul_M47.bmp","188","image-keyboard-response","175","373382","0.0-8.0-1.31","test",",","",",","",""
"null","<div style=""color:white; font-size:60px;"">+</div>","null","html-keyboard-response","176","374384","0.0-8.0-0.32","fixation","","","","",""
"1785.5549999512732","Stimuli/Hangul_F30.bmp","190","image-keyboard-response","177","376173","0.0-8.0-1.32","test",".","",".","",""
"null","<div style=""color:white; font-size:60px;"">+</div>","null","html-keyboard-response","178","377175","0.0-8.0-0.33","fixation","","","","",""
"1663.1549999583513","Stimuli/Hangul_M34.bmp","190","image-keyboard-response","179","378840","0.0-8.0-1.33","test",",","",".","",""
"null","<div style=""color:white; font-size:60px;"">+</div>","null","html-keyboard-response","180","379841","0.0-8.0-0.34","fixation","","","","",""
"1799.9899999704212","Stimuli/Hangul_F40.bmp","188","image-keyboard-response","181","381644","0.0-8.0-1.34","test",".","",",","",""
"null","<div style=""color:white; font-size:60px;"">+</div>","null","html-keyboard-response","182","382646","0.0-8.0-0.35","fixation","","","","",""
"1584.1399999335408","Stimuli/Hangul_F28.bmp","190","image-keyboard-response","183","384233","0.0-8.0-1.35","test",".","",".","",""
"null","<div style=""color:white; font-size:60px;"">+</div>","null","html-keyboard-response","184","385235","0.0-8.0-0.36","fixation","","","","",""
"1698.6549999564886","Stimuli/Hangul_F44.bmp","190","image-keyboard-response","185","386935","0.0-8.0-1.36","test",".","",".","",""
"null","<div style=""color:white; font-size:60px;"">+</div>","null","html-keyboard-response","186","387937","0.0-8.0-0.37","fixation","","","","",""
"2298.7950001843274","Stimuli/Hangul_F36.bmp","188","image-keyboard-response","187","390239","0.0-8.0-1.37","test",".","",",","",""
"null","<div style=""color:white; font-size:60px;"">+</div>","null","html-keyboard-response","188","391241","0.0-8.0-0.38","fixation","","","","",""
"1616.4650002028793","Stimuli/Hangul_M36.bmp","188","image-keyboard-response","189","392860","0.0-8.0-1.38","test",",","",",","",""
"null","<div style=""color:white; font-size:60px;"">+</div>","null","html-keyboard-response","190","393862","0.0-8.0-0.39","fixation","","","","",""
"1532.8100000042468","Stimuli/Hangul_M37.bmp","188","image-keyboard-response","191","395397","0.0-8.0-1.39","test",",","",",","",""
"null","<div style=""color:white; font-size:60px;"">+</div>","null","html-keyboard-response","192","396398","0.0-8.0-0.40","fixation","","","","",""
"1706.66000014171","Stimuli/Hangul_F42.bmp","190","image-keyboard-response","193","398108","0.0-8.0-1.40","test",".","",".","",""
"null","<div style=""color:white; font-size:60px;"">+</div>","null","html-keyboard-response","194","399109","0.0-8.0-0.41","fixation","","","","",""
"1745.5250001512468","Stimuli/Hangul_F29.bmp","190","image-keyboard-response","195","400856","0.0-8.0-1.41","test",".","",".","",""
"null","<div style=""color:white; font-size:60px;"">+</div>","null","html-keyboard-response","196","401858","0.0-8.0-0.42","fixation","","","","",""
"1451.7399999313056","Stimuli/Hangul_M27.bmp","188","image-keyboard-response","197","403311","0.0-8.0-1.42","test",",","",",","",""
"null","<div style=""color:white; font-size:60px;"">+</div>","null","html-keyboard-response","198","404313","0.0-8.0-0.43","fixation","","","","",""
"1500.08499994874","Stimuli/Hangul_F39.bmp","190","image-keyboard-response","199","405816","0.0-8.0-1.43","test",".","",".","",""
"null","<div style=""color:white; font-size:60px;"">+</div>","null","html-keyboard-response","200","406818","0.0-8.0-0.44","fixation","","","","",""
"1591.6049999650568","Stimuli/Hangul_F31.bmp","190","image-keyboard-response","201","408412","0.0-8.0-1.44","test",".","",".","",""
"null","<div style=""color:white; font-size:60px;"">+</div>","null","html-keyboard-response","202","409414","0.0-8.0-0.45","fixation","","","","",""
"1614.4000000786036","Stimuli/Hangul_M26.bmp","188","image-keyboard-response","203","411030","0.0-8.0-1.45","test",",","",",","",""
"null","<div style=""color:white; font-size:60px;"">+</div>","null","html-keyboard-response","204","412031","0.0-8.0-0.46","fixation","","","","",""
"2019.3900000303984","Stimuli/Hangul_M25.bmp","188","image-keyboard-response","205","414053","0.0-8.0-1.46","test",",","",",","",""
"null","<div style=""color:white; font-size:60px;"">+</div>","null","html-keyboard-response","206","415055","0.0-8.0-0.47","fixation","","","","",""
"1723.3700000215322","Stimuli/Hangul_F37.bmp","190","image-keyboard-response","207","416779","0.0-8.0-1.47","test",".","",".","",""
"null","<div style=""color:white; font-size:60px;"">+</div>","null","html-keyboard-response","208","417781","0.0-8.0-0.48","fixation","","","","",""
"1638.1950001232326","Stimuli/Hangul_F43.bmp","188","image-keyboard-response","209","419420","0.0-8.0-1.48","test",".","",",","",""
"null","<div style=""color:white; font-size:60px;"">+</div>","null","html-keyboard-response","210","420423","0.0-8.0-0.49","fixation","","","","",""
"1563.6849999427795","Stimuli/Hangul_F47.bmp","188","image-keyboard-response","211","421989","0.0-8.0-1.49","test",".","",",","",""
"69506.19000010192","<p style=""color:white;"">Half way there! Please take a moment to rest.</p> <p style=""color:white;"">When you are ready to continue with block 3 of 4, press the space bar.</p> ","32","html-keyboard-response","212","491499","0.0-9.0","","","","","",""
"null","<div style=""color:white; font-size:60px;"">+</div>","null","html-keyboard-response","213","494503","0.0-10.0-0.0","fixation","","","","",""
"1843.7799999956042","Stimuli/Hangul_F63.bmp","188","image-keyboard-response","214","496350","0.0-10.0-1.0","test",".","",",","",""
"null","<div style=""color:white; font-size:60px;"">+</div>","null","html-keyboard-response","215","497354","0.0-10.0-0.1","fixation","","","","",""
"1606.8649999797344","Stimuli/Hangul_F74.bmp","190","image-keyboard-response","216","498964","0.0-10.0-1.1","test",".","",".","",""
"null","<div style=""color:white; font-size:60px;"">+</div>","null","html-keyboard-response","217","499965","0.0-10.0-0.2","fixation","","","","",""
"1584.4699998851866","Stimuli/Hangul_F64.bmp","190","image-keyboard-response","218","501551","0.0-10.0-1.2","test",".","",".","",""
"null","<div style=""color:white; font-size:60px;"">+</div>","null","html-keyboard-response","219","502553","0.0-10.0-0.3","fixation","","","","",""
"1413.9849999919534","Stimuli/Hangul_F71.bmp","190","image-keyboard-response","220","503970","0.0-10.0-1.3","test",".","",".","",""
"null","<div style=""color:white; font-size:60px;"">+</div>","null","html-keyboard-response","221","504972","0.0-10.0-0.4","fixation","","","","",""
"1282.3299998417497","Stimuli/Hangul_F65.bmp","190","image-keyboard-response","222","506256","0.0-10.0-1.4","test",".","",".","",""
"null","<div style=""color:white; font-size:60px;"">+</div>","null","html-keyboard-response","223","507259","0.0-10.0-0.5","fixation","","","","",""
"1275.6250000093132","Stimuli/Hangul_M67.bmp","190","image-keyboard-response","224","508536","0.0-10.0-1.5","test",",","",".","",""
"null","<div style=""color:white; font-size:60px;"">+</div>","null","html-keyboard-response","225","509538","0.0-10.0-0.6","fixation","","","","",""
"1367.22999997437","Stimuli/Hangul_F57.bmp","190","image-keyboard-response","226","510907","0.0-10.0-1.6","test",".","",".","",""
"null","<div style=""color:white; font-size:60px;"">+</div>","null","html-keyboard-response","227","511909","0.0-10.0-0.7","fixation","","","","",""
"1508.0949999392033","Stimuli/Hangul_M69.bmp","188","image-keyboard-response","228","513418","0.0-10.0-1.7","test",",","",",","",""
"null","<div style=""color:white; font-size:60px;"">+</div>","null","html-keyboard-response","229","514421","0.0-10.0-0.8","fixation","","","","",""
"1382.77000002563","Stimuli/Hangul_M52.bmp","188","image-keyboard-response","230","515805","0.0-10.0-1.8","test",",","",",","",""
"null","<div style=""color:white; font-size:60px;"">+</div>","null","html-keyboard-response","231","516807","0.0-10.0-0.9","fixation","","","","",""
"2035.6100001372397","Stimuli/Hangul_M73.bmp","188","image-keyboard-response","232","518847","0.0-10.0-1.9","test",",","",",","",""
"null","<div style=""color:white; font-size:60px;"">+</div>","null","html-keyboard-response","233","519849","0.0-10.0-0.10","fixation","","","","",""
"1656.5100001171231","Stimuli/Hangul_M51.bmp","188","image-keyboard-response","234","521506","0.0-10.0-1.10","test",",","",",","",""
"null","<div style=""color:white; font-size:60px;"">+</div>","null","html-keyboard-response","235","522508","0.0-10.0-0.11","fixation","","","","",""
"1657.7800000086427","Stimuli/Hangul_F70.bmp","190","image-keyboard-response","236","524169","0.0-10.0-1.11","test",".","",".","",""
"null","<div style=""color:white; font-size:60px;"">+</div>","null","html-keyboard-response","237","525170","0.0-10.0-0.12","fixation","","","","",""
"2414.735000114888","Stimuli/Hangul_M71.bmp","188","image-keyboard-response","238","527586","0.0-10.0-1.12","test",",","",",","",""
"null","<div style=""color:white; font-size:60px;"">+</div>","null","html-keyboard-response","239","528588","0.0-10.0-0.13","fixation","","","","",""
"1831.7199999000877","Stimuli/Hangul_M64.bmp","188","image-keyboard-response","240","530421","0.0-10.0-1.13","test",",","",",","",""
"null","<div style=""color:white; font-size:60px;"">+</div>","null","html-keyboard-response","241","531422","0.0-10.0-0.14","fixation","","","","",""
"1560.4300000704825","Stimuli/Hangul_F66.bmp","190","image-keyboard-response","242","532986","0.0-10.0-1.14","test",".","",".","",""
"null","<div style=""color:white; font-size:60px;"">+</div>","null","html-keyboard-response","243","533988","0.0-10.0-0.15","fixation","","","","",""
"1516.245000064373","Stimuli/Hangul_M61.bmp","188","image-keyboard-response","244","535507","0.0-10.0-1.15","test",",","",",","",""
"null","<div style=""color:white; font-size:60px;"">+</div>","null","html-keyboard-response","245","536509","0.0-10.0-0.16","fixation","","","","",""
"1403.9600000251085","Stimuli/Hangul_M56.bmp","188","image-keyboard-response","246","537916","0.0-10.0-1.16","test",",","",",","",""
"null","<div style=""color:white; font-size:60px;"">+</div>","null","html-keyboard-response","247","538918","0.0-10.0-0.17","fixation","","","","",""
"1532.9900002107024","Stimuli/Hangul_F53.bmp","190","image-keyboard-response","248","540453","0.0-10.0-1.17","test",".","",".","",""
"null","<div style=""color:white; font-size:60px;"">+</div>","null","html-keyboard-response","249","541456","0.0-10.0-0.18","fixation","","","","",""
"1404.615000123158","Stimuli/Hangul_M62.bmp","188","image-keyboard-response","250","542869","0.0-10.0-1.18","test",",","",",","",""
"null","<div style=""color:white; font-size:60px;"">+</div>","null","html-keyboard-response","251","543871","0.0-10.0-0.19","fixation","","","","",""
"1459.2049999628216","Stimuli/Hangul_M53.bmp","188","image-keyboard-response","252","545332","0.0-10.0-1.19","test",",","",",","",""
"null","<div style=""color:white; font-size:60px;"">+</div>","null","html-keyboard-response","253","546334","0.0-10.0-0.20","fixation","","","","",""
"1429.6299999114126","Stimuli/Hangul_M74.bmp","188","image-keyboard-response","254","547765","0.0-10.0-1.20","test",",","",",","",""
"null","<div style=""color:white; font-size:60px;"">+</div>","null","html-keyboard-response","255","548766","0.0-10.0-0.21","fixation","","","","",""
"1830.0100001506507","Stimuli/Hangul_F62.bmp","188","image-keyboard-response","256","550601","0.0-10.0-1.21","test",".","",",","",""
"null","<div style=""color:white; font-size:60px;"">+</div>","null","html-keyboard-response","257","551603","0.0-10.0-0.22","fixation","","","","",""
"1309.3849997967482","Stimuli/Hangul_M59.bmp","188","image-keyboard-response","258","552914","0.0-10.0-1.22","test",",","",",","",""
"null","<div style=""color:white; font-size:60px;"">+</div>","null","html-keyboard-response","259","553916","0.0-10.0-0.23","fixation","","","","",""
"1394.7900000493973","Stimuli/Hangul_M68.bmp","188","image-keyboard-response","260","555312","0.0-10.0-1.23","test",",","",",","",""
"null","<div style=""color:white; font-size:60px;"">+</div>","null","html-keyboard-response","261","556314","0.0-10.0-0.24","fixation","","","","",""
"1520.4100001137704","Stimuli/Hangul_F73.bmp","190","image-keyboard-response","262","557836","0.0-10.0-1.24","test",".","",".","",""
"null","<div style=""color:white; font-size:60px;"">+</div>","null","html-keyboard-response","263","558838","0.0-10.0-0.25","fixation","","","","",""
"1547.4699998740107","Stimuli/Hangul_M66.bmp","188","image-keyboard-response","264","560389","0.0-10.0-1.25","test",",","",",","",""
"null","<div style=""color:white; font-size:60px;"">+</div>","null","html-keyboard-response","265","561392","0.0-10.0-0.26","fixation","","","","",""
"1580.2650002297014","Stimuli/Hangul_M57.bmp","188","image-keyboard-response","266","562976","0.0-10.0-1.26","test",",","",",","",""
"null","<div style=""color:white; font-size:60px;"">+</div>","null","html-keyboard-response","267","563977","0.0-10.0-0.27","fixation","","","","",""
"2290.73500004597","Stimuli/Hangul_F58.bmp","190","image-keyboard-response","268","566271","0.0-10.0-1.27","test",".","",".","",""
"null","<div style=""color:white; font-size:60px;"">+</div>","null","html-keyboard-response","269","567274","0.0-10.0-0.28","fixation","","","","",""
"1631.664999993518","Stimuli/Hangul_M65.bmp","188","image-keyboard-response","270","568908","0.0-10.0-1.28","test",",","",",","",""
"null","<div style=""color:white; font-size:60px;"">+</div>","null","html-keyboard-response","271","569910","0.0-10.0-0.29","fixation","","","","",""
"1440.3849998489022","Stimuli/Hangul_M54.bmp","188","image-keyboard-response","272","571352","0.0-10.0-1.29","test",",","",",","",""
"null","<div style=""color:white; font-size:60px;"">+</div>","null","html-keyboard-response","273","572354","0.0-10.0-0.30","fixation","","","","",""
"1444.3800000008196","Stimuli/Hangul_F50.bmp","190","image-keyboard-response","274","573799","0.0-10.0-1.30","test",".","",".","",""
"null","<div style=""color:white; font-size:60px;"">+</div>","null","html-keyboard-response","275","574801","0.0-10.0-0.31","fixation","","","","",""
"1738.3799999952316","Stimuli/Hangul_M50.bmp","190","image-keyboard-response","276","576541","0.0-10.0-1.31","test",",","",".","",""
"null","<div style=""color:white; font-size:60px;"">+</div>","null","html-keyboard-response","277","577543","0.0-10.0-0.32","fixation","","","","",""
"1314.7750000935048","Stimuli/Hangul_F60.bmp","190","image-keyboard-response","278","578860","0.0-10.0-1.32","test",".","",".","",""
"null","<div style=""color:white; font-size:60px;"">+</div>","null","html-keyboard-response","279","579862","0.0-10.0-0.33","fixation","","","","",""
"1408.735000062734","Stimuli/Hangul_M58.bmp","188","image-keyboard-response","280","581273","0.0-10.0-1.33","test",",","",",","",""
"null","<div style=""color:white; font-size:60px;"">+</div>","null","html-keyboard-response","281","582275","0.0-10.0-0.34","fixation","","","","",""
"1730.0999998115003","Stimuli/Hangul_M63.bmp","188","image-keyboard-response","282","584007","0.0-10.0-1.34","test",",","",",","",""
"null","<div style=""color:white; font-size:60px;"">+</div>","null","html-keyboard-response","283","585009","0.0-10.0-0.35","fixation","","","","",""
"2276.025000028312","Stimuli/Hangul_F68.bmp","190","image-keyboard-response","284","587288","0.0-10.0-1.35","test",".","",".","",""
"null","<div style=""color:white; font-size:60px;"">+</div>","null","html-keyboard-response","285","588290","0.0-10.0-0.36","fixation","","","","",""
"1950.135000050068","Stimuli/Hangul_M60.bmp","188","image-keyboard-response","286","590242","0.0-10.0-1.36","test",",","",",","",""
"null","<div style=""color:white; font-size:60px;"">+</div>","null","html-keyboard-response","287","591245","0.0-10.0-0.37","fixation","","","","",""
"1531.040000030771","Stimuli/Hangul_F59.bmp","190","image-keyboard-response","288","592779","0.0-10.0-1.37","test",".","",".","",""
"null","<div style=""color:white; font-size:60px;"">+</div>","null","html-keyboard-response","289","593781","0.0-10.0-0.38","fixation","","","","",""
"1483.799999812618","Stimuli/Hangul_F56.bmp","190","image-keyboard-response","290","595266","0.0-10.0-1.38","test",".","",".","",""
"null","<div style=""color:white; font-size:60px;"">+</div>","null","html-keyboard-response","291","596269","0.0-10.0-0.39","fixation","","","","",""
"1481.5700000617653","Stimuli/Hangul_F69.bmp","190","image-keyboard-response","292","597752","0.0-10.0-1.39","test",".","",".","",""
"null","<div style=""color:white; font-size:60px;"">+</div>","null","html-keyboard-response","293","598754","0.0-10.0-0.40","fixation","","","","",""
"1984.1150001157075","Stimuli/Hangul_F55.bmp","188","image-keyboard-response","294","600742","0.0-10.0-1.40","test",".","",",","",""
"null","<div style=""color:white; font-size:60px;"">+</div>","null","html-keyboard-response","295","601744","0.0-10.0-0.41","fixation","","","","",""
"1770.2649999409914","Stimuli/Hangul_F72.bmp","188","image-keyboard-response","296","603515","0.0-10.0-1.41","test",".","",",","",""
"null","<div style=""color:white; font-size:60px;"">+</div>","null","html-keyboard-response","297","604517","0.0-10.0-0.42","fixation","","","","",""
"1539.3950000870973","Stimuli/Hangul_F54.bmp","188","image-keyboard-response","298","606060","0.0-10.0-1.42","test",".","",",","",""
"null","<div style=""color:white; font-size:60px;"">+</div>","null","html-keyboard-response","299","607062","0.0-10.0-0.43","fixation","","","","",""
"1756.010000128299","Stimuli/Hangul_F61.bmp","188","image-keyboard-response","300","608821","0.0-10.0-1.43","test",".","",",","",""
"null","<div style=""color:white; font-size:60px;"">+</div>","null","html-keyboard-response","301","609822","0.0-10.0-0.44","fixation","","","","",""
"1382.2650001384318","Stimuli/Hangul_M72.bmp","188","image-keyboard-response","302","611206","0.0-10.0-1.44","test",",","",",","",""
"null","<div style=""color:white; font-size:60px;"">+</div>","null","html-keyboard-response","303","612210","0.0-10.0-0.45","fixation","","","","",""
"1660.450000083074","Stimuli/Hangul_F52.bmp","188","image-keyboard-response","304","613872","0.0-10.0-1.45","test",".","",",","",""
"null","<div style=""color:white; font-size:60px;"">+</div>","null","html-keyboard-response","305","614874","0.0-10.0-0.46","fixation","","","","",""
"1423.4849999193102","Stimuli/Hangul_F67.bmp","188","image-keyboard-response","306","616300","0.0-10.0-1.46","test",".","",",","",""
"null","<div style=""color:white; font-size:60px;"">+</div>","null","html-keyboard-response","307","617302","0.0-10.0-0.47","fixation","","","","",""
"1296.4599998667836","Stimuli/Hangul_M55.bmp","188","image-keyboard-response","308","618601","0.0-10.0-1.47","test",",","",",","",""
"null","<div style=""color:white; font-size:60px;"">+</div>","null","html-keyboard-response","309","619603","0.0-10.0-0.48","fixation","","","","",""
"1515.580000123009","Stimuli/Hangul_F51.bmp","190","image-keyboard-response","310","621120","0.0-10.0-1.48","test",".","",".","",""
"null","<div style=""color:white; font-size:60px;"">+</div>","null","html-keyboard-response","311","622122","0.0-10.0-0.49","fixation","","","","",""
"1744.2950000986457","Stimuli/Hangul_M70.bmp","190","image-keyboard-response","312","623868","0.0-10.0-1.49","test",",","",".","",""
"2321.070000063628","<p style=""color:white;"">One more block to go! Please take a moment to rest.</p> <p style=""color:white;"">When you are ready to continue with block 4 of 4, press the space bar.</p> ","32","html-keyboard-response","313","626192","0.0-11.0","","","","","",""
"null","<div style=""color:white; font-size:60px;"">+</div>","null","html-keyboard-response","314","629195","0.0-12.0-0.0","fixation","","","","",""
"1713.6099999770522","Stimuli/Hangul_M79.bmp","188","image-keyboard-response","315","630911","0.0-12.0-1.0","test",",","",",","",""
"null","<div style=""color:white; font-size:60px;"">+</div>","null","html-keyboard-response","316","631914","0.0-12.0-0.1","fixation","","","","",""
"1510.8099998906255","Stimuli/Hangul_M89.bmp","188","image-keyboard-response","317","633428","0.0-12.0-1.1","test",",","",",","",""
"null","<div style=""color:white; font-size:60px;"">+</div>","null","html-keyboard-response","318","634430","0.0-12.0-0.2","fixation","","","","",""
"1506.339999847114","Stimuli/Hangul_F85.bmp","190","image-keyboard-response","319","635937","0.0-12.0-1.2","test",".","",".","",""
"null","<div style=""color:white; font-size:60px;"">+</div>","null","html-keyboard-response","320","636940","0.0-12.0-0.3","fixation","","","","",""
"1496.515000006184","Stimuli/Hangul_M83.bmp","188","image-keyboard-response","321","638440","0.0-12.0-1.3","test",",","",",","",""
"null","<div style=""color:white; font-size:60px;"">+</div>","null","html-keyboard-response","322","639442","0.0-12.0-0.4","fixation","","","","",""
"1531.3600001391023","Stimuli/Hangul_F94.bmp","190","image-keyboard-response","323","640985","0.0-12.0-1.4","test",".","",".","",""
"null","<div style=""color:white; font-size:60px;"">+</div>","null","html-keyboard-response","324","641987","0.0-12.0-0.5","fixation","","","","",""
"1643.940000096336","Stimuli/Hangul_F87.bmp","190","image-keyboard-response","325","643632","0.0-12.0-1.5","test",".","",".","",""
"null","<div style=""color:white; font-size:60px;"">+</div>","null","html-keyboard-response","326","644634","0.0-12.0-0.6","fixation","","","","",""
"1313.8899998739362","Stimuli/Hangul_F93.bmp","190","image-keyboard-response","327","645949","0.0-12.0-1.6","test",".","",".","",""
"null","<div style=""color:white; font-size:60px;"">+</div>","null","html-keyboard-response","328","646951","0.0-12.0-0.7","fixation","","","","",""
"1300.3299999982119","Stimuli/Hangul_F86.bmp","190","image-keyboard-response","329","648253","0.0-12.0-1.7","test",".","",".","",""
"null","<div style=""color:white; font-size:60px;"">+</div>","null","html-keyboard-response","330","649255","0.0-12.0-0.8","fixation","","","","",""
"2120.7649998832494","Stimuli/Hangul_M77.bmp","188","image-keyboard-response","331","651379","0.0-12.0-1.8","test",",","",",","",""
"null","<div style=""color:white; font-size:60px;"">+</div>","null","html-keyboard-response","332","652381","0.0-12.0-0.9","fixation","","","","",""
"1565.405000001192","Stimuli/Hangul_M99.bmp","188","image-keyboard-response","333","653951","0.0-12.0-1.9","test",",","",",","",""
"null","<div style=""color:white; font-size:60px;"">+</div>","null","html-keyboard-response","334","654954","0.0-12.0-0.10","fixation","","","","",""
"1437.5549999531358","Stimuli/Hangul_F98.bmp","190","image-keyboard-response","335","656394","0.0-12.0-1.10","test",".","",".","",""
"null","<div style=""color:white; font-size:60px;"">+</div>","null","html-keyboard-response","336","657395","0.0-12.0-0.11","fixation","","","","",""
"1416.4350000210106","Stimuli/Hangul_M98.bmp","188","image-keyboard-response","337","658815","0.0-12.0-1.11","test",",","",",","",""
"null","<div style=""color:white; font-size:60px;"">+</div>","null","html-keyboard-response","338","659816","0.0-12.0-0.12","fixation","","","","",""
"1559.425000101328","Stimuli/Hangul_F80.bmp","190","image-keyboard-response","339","661377","0.0-12.0-1.12","test",".","",".","",""
"null","<div style=""color:white; font-size:60px;"">+</div>","null","html-keyboard-response","340","662379","0.0-12.0-0.13","fixation","","","","",""
"1561.259999871254","Stimuli/Hangul_F75.bmp","190","image-keyboard-response","341","663942","0.0-12.0-1.13","test",".","",".","",""
"null","<div style=""color:white; font-size:60px;"">+</div>","null","html-keyboard-response","342","664943","0.0-12.0-0.14","fixation","","","","",""
"1895.2800000552088","Stimuli/Hangul_F76.bmp","190","image-keyboard-response","343","666840","0.0-12.0-1.14","test",".","",".","",""
"null","<div style=""color:white; font-size:60px;"">+</div>","null","html-keyboard-response","344","667841","0.0-12.0-0.15","fixation","","","","",""
"2178.5850001033396","Stimuli/Hangul_M81.bmp","188","image-keyboard-response","345","670024","0.0-12.0-1.15","test",",","",",","",""
"null","<div style=""color:white; font-size:60px;"">+</div>","null","html-keyboard-response","346","671026","0.0-12.0-0.16","fixation","","","","",""
"1925.5699999630451","Stimuli/Hangul_F83.bmp","190","image-keyboard-response","347","672953","0.0-12.0-1.16","test",".","",".","",""
"null","<div style=""color:white; font-size:60px;"">+</div>","null","html-keyboard-response","348","673954","0.0-12.0-0.17","fixation","","","","",""
"1554.854999994859","Stimuli/Hangul_M93.bmp","188","image-keyboard-response","349","675511","0.0-12.0-1.17","test",",","",",","",""
"null","<div style=""color:white; font-size:60px;"">+</div>","null","html-keyboard-response","350","676513","0.0-12.0-0.18","fixation","","","","",""
"1506.2250001356006","Stimuli/Hangul_M91.bmp","188","image-keyboard-response","351","678023","0.0-12.0-1.18","test",",","",",","",""
"null","<div style=""color:white; font-size:60px;"">+</div>","null","html-keyboard-response","352","679025","0.0-12.0-0.19","fixation","","","","",""
"1748.3450002036989","Stimuli/Hangul_M85.bmp","188","image-keyboard-response","353","680774","0.0-12.0-1.19","test",",","",",","",""
"null","<div style=""color:white; font-size:60px;"">+</div>","null","html-keyboard-response","354","681776","0.0-12.0-0.20","fixation","","","","",""
"1633.515000110492","Stimuli/Hangul_F90.bmp","188","image-keyboard-response","355","683412","0.0-12.0-1.20","test",".","",",","",""
"null","<div style=""color:white; font-size:60px;"">+</div>","null","html-keyboard-response","356","684415","0.0-12.0-0.21","fixation","","","","",""
"1544.9749999679625","Stimuli/Hangul_M88.bmp","188","image-keyboard-response","357","685962","0.0-12.0-1.21","test",",","",",","",""
"null","<div style=""color:white; font-size:60px;"">+</div>","null","html-keyboard-response","358","686964","0.0-12.0-0.22","fixation","","","","",""
"1372.0450000837445","Stimuli/Hangul_F81.bmp","190","image-keyboard-response","359","688337","0.0-12.0-1.22","test",".","",".","",""
"null","<div style=""color:white; font-size:60px;"">+</div>","null","html-keyboard-response","360","689339","0.0-12.0-0.23","fixation","","","","",""
"1527.6750000193715","Stimuli/Hangul_F97.bmp","190","image-keyboard-response","361","690870","0.0-12.0-1.23","test",".","",".","",""
"null","<div style=""color:white; font-size:60px;"">+</div>","null","html-keyboard-response","362","691872","0.0-12.0-0.24","fixation","","","","",""
"1358.9800000190735","Stimuli/Hangul_F96.bmp","190","image-keyboard-response","363","693232","0.0-12.0-1.24","test",".","",".","",""
"null","<div style=""color:white; font-size:60px;"">+</div>","null","html-keyboard-response","364","694235","0.0-12.0-0.25","fixation","","","","",""
"1363.1250001490116","Stimuli/Hangul_M97.bmp","188","image-keyboard-response","365","695600","0.0-12.0-1.25","test",",","",",","",""
"null","<div style=""color:white; font-size:60px;"">+</div>","null","html-keyboard-response","366","696602","0.0-12.0-0.26","fixation","","","","",""
"1342.0200000982732","Stimuli/Hangul_F89.bmp","190","image-keyboard-response","367","697946","0.0-12.0-1.26","test",".","",".","",""
"null","<div style=""color:white; font-size:60px;"">+</div>","null","html-keyboard-response","368","698948","0.0-12.0-0.27","fixation","","","","",""
"1402.2250000853091","Stimuli/Hangul_F78.bmp","190","image-keyboard-response","369","700352","0.0-12.0-1.27","test",".","",".","",""
"null","<div style=""color:white; font-size:60px;"">+</div>","null","html-keyboard-response","370","701354","0.0-12.0-0.28","fixation","","","","",""
"1744.5849999785423","Stimuli/Hangul_M95.bmp","190","image-keyboard-response","371","703102","0.0-12.0-1.28","test",",","",".","",""
"null","<div style=""color:white; font-size:60px;"">+</div>","null","html-keyboard-response","372","704103","0.0-12.0-0.29","fixation","","","","",""
"1437.2099998872727","Stimuli/Hangul_M82.bmp","188","image-keyboard-response","373","705544","0.0-12.0-1.29","test",",","",",","",""
"null","<div style=""color:white; font-size:60px;"">+</div>","null","html-keyboard-response","374","706545","0.0-12.0-0.30","fixation","","","","",""
"1360.4150000028312","Stimuli/Hangul_F79.bmp","190","image-keyboard-response","375","707907","0.0-12.0-1.30","test",".","",".","",""
"null","<div style=""color:white; font-size:60px;"">+</div>","null","html-keyboard-response","376","708909","0.0-12.0-0.31","fixation","","","","",""
"1542.8500000853091","Stimuli/Hangul_F84.bmp","190","image-keyboard-response","377","710453","0.0-12.0-1.31","test",".","",".","",""
"null","<div style=""color:white; font-size:60px;"">+</div>","null","html-keyboard-response","378","711455","0.0-12.0-0.32","fixation","","","","",""
"1258.0399999860674","Stimuli/Hangul_F77.bmp","190","image-keyboard-response","379","712717","0.0-12.0-1.32","test",".","",".","",""
"null","<div style=""color:white; font-size:60px;"">+</div>","null","html-keyboard-response","380","713721","0.0-12.0-0.33","fixation","","","","",""
"1303.6200001370162","Stimuli/Hangul_F88.bmp","190","image-keyboard-response","381","715026","0.0-12.0-1.33","test",".","",".","",""
"null","<div style=""color:white; font-size:60px;"">+</div>","null","html-keyboard-response","382","716028","0.0-12.0-0.34","fixation","","","","",""
"1364.714999916032","Stimuli/Hangul_M84.bmp","190","image-keyboard-response","383","717395","0.0-12.0-1.34","test",",","",".","",""
"null","<div style=""color:white; font-size:60px;"">+</div>","null","html-keyboard-response","384","718397","0.0-12.0-0.35","fixation","","","","",""
"1535.135000012815","Stimuli/Hangul_M86.bmp","188","image-keyboard-response","385","719933","0.0-12.0-1.35","test",",","",",","",""
"null","<div style=""color:white; font-size:60px;"">+</div>","null","html-keyboard-response","386","720935","0.0-12.0-0.36","fixation","","","","",""
"1430.6950001046062","Stimuli/Hangul_M80.bmp","188","image-keyboard-response","387","722368","0.0-12.0-1.36","test",",","",",","",""
"null","<div style=""color:white; font-size:60px;"">+</div>","null","html-keyboard-response","388","723370","0.0-12.0-0.37","fixation","","","","",""
"1361.0849999822676","Stimuli/Hangul_F91.bmp","188","image-keyboard-response","389","724734","0.0-12.0-1.37","test",".","",",","",""
"null","<div style=""color:white; font-size:60px;"">+</div>","null","html-keyboard-response","390","725741","0.0-12.0-0.38","fixation","","","","",""
"1373.7100001890212","Stimuli/Hangul_F99.bmp","188","image-keyboard-response","391","727116","0.0-12.0-1.38","test",".","",",","",""
"null","<div style=""color:white; font-size:60px;"">+</div>","null","html-keyboard-response","392","728118","0.0-12.0-0.39","fixation","","","","",""
"1534.6350001636893","Stimuli/Hangul_F82.bmp","190","image-keyboard-response","393","729655","0.0-12.0-1.39","test",".","",".","",""
"null","<div style=""color:white; font-size:60px;"">+</div>","null","html-keyboard-response","394","730658","0.0-12.0-0.40","fixation","","","","",""
"1321.1450001690537","Stimuli/Hangul_F92.bmp","190","image-keyboard-response","395","731981","0.0-12.0-1.40","test",".","",".","",""
"null","<div style=""color:white; font-size:60px;"">+</div>","null","html-keyboard-response","396","732985","0.0-12.0-0.41","fixation","","","","",""
"1376.4000001829118","Stimuli/Hangul_M96.bmp","188","image-keyboard-response","397","734364","0.0-12.0-1.41","test",",","",",","",""
"null","<div style=""color:white; font-size:60px;"">+</div>","null","html-keyboard-response","398","735366","0.0-12.0-0.42","fixation","","","","",""
"1358.8250000029802","Stimuli/Hangul_F95.bmp","190","image-keyboard-response","399","736728","0.0-12.0-1.42","test",".","",".","",""
"null","<div style=""color:white; font-size:60px;"">+</div>","null","html-keyboard-response","400","737730","0.0-12.0-0.43","fixation","","","","",""
"1395.0199999380857","Stimuli/Hangul_M76.bmp","188","image-keyboard-response","401","739133","0.0-12.0-1.43","test",",","",",","",""
"null","<div style=""color:white; font-size:60px;"">+</div>","null","html-keyboard-response","402","740135","0.0-12.0-0.44","fixation","","","","",""
"1399.5600000489503","Stimuli/Hangul_M75.bmp","188","image-keyboard-response","403","741537","0.0-12.0-1.44","test",",","",",","",""
"null","<div style=""color:white; font-size:60px;"">+</div>","null","html-keyboard-response","404","742539","0.0-12.0-0.45","fixation","","","","",""
"1365.0449998676777","Stimuli/Hangul_M90.bmp","188","image-keyboard-response","405","743905","0.0-12.0-1.45","test",",","",",","",""
"null","<div style=""color:white; font-size:60px;"">+</div>","null","html-keyboard-response","406","744907","0.0-12.0-0.46","fixation","","","","",""
"1286.4399999380112","Stimuli/Hangul_M92.bmp","188","image-keyboard-response","407","746195","0.0-12.0-1.46","test",",","",",","",""
"null","<div style=""color:white; font-size:60px;"">+</div>","null","html-keyboard-response","408","747197","0.0-12.0-0.47","fixation","","","","",""
"1301.1749999132007","Stimuli/Hangul_M94.bmp","188","image-keyboard-response","409","748501","0.0-12.0-1.47","test",",","",",","",""
"null","<div style=""color:white; font-size:60px;"">+</div>","null","html-keyboard-response","410","749504","0.0-12.0-0.48","fixation","","","","",""
"1234.3599998857826","Stimuli/Hangul_M78.bmp","188","image-keyboard-response","411","750741","0.0-12.0-1.48","test",",","",",","",""
"null","<div style=""color:white; font-size:60px;"">+</div>","null","html-keyboard-response","412","751742","0.0-12.0-0.49","fixation","","","","",""
"1432.150000007823","Stimuli/Hangul_M87.bmp","190","image-keyboard-response","413","753177","0.0-12.0-1.49","test",",","",".","",""
"3722.654999932274","<p style=""color:white;"">Phase I of the experiment is complete.</p> <p style=""color:white;"">Press the space bar to proceed to Phase II of the experiment.</p> ","32","html-keyboard-response","414","756902","0.0-13.0","","","","","",""
"18116.345000220463","<p style=""color:white;"">Now we are interested in how well you can predict patterns in the series of figures. You will be asked to predict whether the next figure in the series is more male-like or female-like. When you see the <q>Next Figure</q> prompt, press the corresponding response keys to indicate your prediction: </p><p style=""color:white;""> Male &#8594 <q>,</q> (comma)</p><p style=""color:white;""> Female &#8594 <q>.</q> (period)</p><p style=""color:white;"">The actual figure will then appear on the screen. After you see the figure, please guess the assigned gender with response keys. </p><p style=""color:white;"">As before, you will receive 2 cents for correctly classifying each figure.</p><p style=""color:white;"">Press either response keys to continue.</p>","188","html-keyboard-response","415","777022","0.0-14.0","","","","","",""
"11709.784999955446","<p style=""color:white;"">PREDICTION BONUS</p> <p style=""color:white;"">Your prediction accuracy is the total number of correct predictions you make over the 200 trials.</p> <p style=""color:white;"">In addition to the 2 cents per correct figure classification, you have the chance to receive a bonus of 40 dollars IF your accuracy is above average relative to previous participants.</p><p style=""color:white;"">If your accuracy is below average relative to previous participants, then you will not receive the 40 dollar bonus.</p><p style=""color:white;"">Press the space bar to continue.</p>","32","html-keyboard-response","416","788733","0.0-15.0","","","","","",""
"7992.105000186712","<p style=""color:white;"">Here are some examples.</p> <p style=""color:white;"">For each, predict whether the next figure looks more male-like or female-like. Then, when the figure appears, guess whether it looks more male-like or female-like and indicate your choice.</p> <p style=""color:white;"">Press the space bar to continue.</p>","32","html-keyboard-response","417","796727","0.0-16.0","","","","","",""
"1408.504999941215","<p style=""color:white;""> Next Figure: Male or Female? </p>","188","html-keyboard-response","418","800138","0.0-17.0-0.0","prediction_train","","","",",",""
"null","<div style=""color:white; font-size:60px;"">+</div>","null","html-keyboard-response","419","801140","0.0-17.0-1.0","fixation","","","","",""
"606.4699999988079","Stimuli/Hangul_E2.bmp","190","image-keyboard-response","420","801749","0.0-17.0-2.0","c2_train",".","","","","."
"1618.9000001177192","<p style=""color:white;""> Next Figure: Male or Female? </p>","188","html-keyboard-response","421","803370","0.0-17.0-0.1","prediction_train","","","",",",""
"null","<div style=""color:white; font-size:60px;"">+</div>","null","html-keyboard-response","422","804371","0.0-17.0-1.1","fixation","","","","",""
"1522.8950001765043","Stimuli/Hangul_E1.bmp","188","image-keyboard-response","423","805896","0.0-17.0-2.1","c2_train",",","","","",","
"705.3799999412149","<p style=""color:white;""> Next Figure: Male or Female? </p>","188","html-keyboard-response","424","806603","0.0-17.0-0.2","prediction_train","","","",",",""
"null","<div style=""color:white; font-size:60px;"">+</div>","null","html-keyboard-response","425","807605","0.0-17.0-1.2","fixation","","","","",""
"602.2550000343472","Stimuli/Hangul_E0.bmp","188","image-keyboard-response","426","808210","0.0-17.0-2.2","c2_train",",","","","",","
"2209.7999998368323","<p style=""color:white;"">Let us begin! Press the space bar when you are ready to start block 1 of 4.</p> ","32","html-keyboard-response","427","810422","0.0-18.0","","","","","",""
"1277.860000031069","<p style=""color:white;""> Next Figure: Male or Female? </p>","188","html-keyboard-response","428","813703","0.0-19.0-0.0","prediction","","","",",",""
"null","<div style=""color:white; font-size:60px;"">+</div>","null","html-keyboard-response","429","814706","0.0-19.0-1.0","fixation","","","","",""
"488.3000000845641","Stimuli/Hangul_M15.bmp","188","image-keyboard-response","430","815197","0.0-19.0-2.0","c2_test",",","","","",","
"1056.6899999976158","<p style=""color:white;""> Next Figure: Male or Female? </p>","188","html-keyboard-response","431","816255","0.0-19.0-0.1","prediction","","","",",",""
"null","<div style=""color:white; font-size:60px;"">+</div>","null","html-keyboard-response","432","817257","0.0-19.0-1.1","fixation","","","","",""
"755.4800000507385","Stimuli/Hangul_F20.bmp","190","image-keyboard-response","433","818015","0.0-19.0-2.1","c2_test",".","","","","."
"1165.9149997867644","<p style=""color:white;""> Next Figure: Male or Female? </p>","188","html-keyboard-response","434","819183","0.0-19.0-0.2","prediction","","","",",",""
"null","<div style=""color:white; font-size:60px;"">+</div>","null","html-keyboard-response","435","820186","0.0-19.0-1.2","fixation","","","","",""
"650.0099999830127","Stimuli/Hangul_M20.bmp","188","image-keyboard-response","436","820838","0.0-19.0-2.2","c2_test",",","","","",","
"1472.9700000025332","<p style=""color:white;""> Next Figure: Male or Female? </p>","188","html-keyboard-response","437","822313","0.0-19.0-0.3","prediction","","","",",",""
"null","<div style=""color:white; font-size:60px;"">+</div>","null","html-keyboard-response","438","823315","0.0-19.0-1.3","fixation","","","","",""
"1337.7600000239909","Stimuli/Hangul_F0.bmp","188","image-keyboard-response","439","824655","0.0-19.0-2.3","c2_test",".","","","",","
"1511.0299999359995","<p style=""color:white;""> Next Figure: Male or Female? </p>","190","html-keyboard-response","440","826169","0.0-19.0-0.4","prediction","","","",".",""
"null","<div style=""color:white; font-size:60px;"">+</div>","null","html-keyboard-response","441","827171","0.0-19.0-1.4","fixation","","","","",""
"633.2699998747557","Stimuli/Hangul_M4.bmp","188","image-keyboard-response","442","827807","0.0-19.0-2.4","c2_test",",","","","",","
"923.8700000569224","<p style=""color:white;""> Next Figure: Male or Female? </p>","188","html-keyboard-response","443","828733","0.0-19.0-0.5","prediction","","","",",",""
"null","<div style=""color:white; font-size:60px;"">+</div>","null","html-keyboard-response","444","829735","0.0-19.0-1.5","fixation","","","","",""
"1079.9100000876933","Stimuli/Hangul_M9.bmp","188","image-keyboard-response","445","830816","0.0-19.0-2.5","c2_test",",","","","",","
"856.2700001057237","<p style=""color:white;""> Next Figure: Male or Female? </p>","188","html-keyboard-response","446","831676","0.0-19.0-0.6","prediction","","","",",",""
"null","<div style=""color:white; font-size:60px;"">+</div>","null","html-keyboard-response","447","832678","0.0-19.0-1.6","fixation","","","","",""
"854.6250001527369","Stimuli/Hangul_M2.bmp","188","image-keyboard-response","448","833534","0.0-19.0-2.6","c2_test",",","","","",","
"644.5249998942018","<p style=""color:white;""> Next Figure: Male or Female? </p>","188","html-keyboard-response","449","834182","0.0-19.0-0.7","prediction","","","",",",""
"null","<div style=""color:white; font-size:60px;"">+</div>","null","html-keyboard-response","450","835184","0.0-19.0-1.7","fixation","","","","",""
"562.0599999092519","Stimuli/Hangul_M14.bmp","188","image-keyboard-response","451","835749","0.0-19.0-2.7","c2_test",",","","","",","
"518.879999872297","<p style=""color:white;""> Next Figure: Male or Female? </p>","188","html-keyboard-response","452","836272","0.0-19.0-0.8","prediction","","","",",",""
"null","<div style=""color:white; font-size:60px;"">+</div>","null","html-keyboard-response","453","837273","0.0-19.0-1.8","fixation","","","","",""
"624.515000032261","Stimuli/Hangul_M3.bmp","188","image-keyboard-response","454","837899","0.0-19.0-2.8","c2_test",",","","","",","
"659.3549998942763","<p style=""color:white;""> Next Figure: Male or Female? </p>","188","html-keyboard-response","455","838561","0.0-19.0-0.9","prediction","","","",",",""
"null","<div style=""color:white; font-size:60px;"">+</div>","null","html-keyboard-response","456","839562","0.0-19.0-1.9","fixation","","","","",""
"723.9649998955429","Stimuli/Hangul_F6.bmp","188","image-keyboard-response","457","840288","0.0-19.0-2.9","c2_test",".","","","",","
"637.2099998407066","<p style=""color:white;""> Next Figure: Male or Female? </p>","188","html-keyboard-response","458","840928","0.0-19.0-0.10","prediction","","","",",",""
"null","<div style=""color:white; font-size:60px;"">+</div>","null","html-keyboard-response","459","841930","0.0-19.0-1.10","fixation","","","","",""
"850.2899999730289","Stimuli/Hangul_F4.bmp","190","image-keyboard-response","460","842781","0.0-19.0-2.10","c2_test",".","","","","."
"1565.805000020191","<p style=""color:white;""> Next Figure: Male or Female? </p>","190","html-keyboard-response","461","844350","0.0-19.0-0.11","prediction","","","",".",""
"null","<div style=""color:white; font-size:60px;"">+</div>","null","html-keyboard-response","462","845352","0.0-19.0-1.11","fixation","","","","",""
"787.1300000697374","Stimuli/Hangul_M6.bmp","188","image-keyboard-response","463","846142","0.0-19.0-2.11","c2_test",",","","","",","
"1079.0049999486655","<p style=""color:white;""> Next Figure: Male or Female? </p>","188","html-keyboard-response","464","847225","0.0-19.0-0.12","prediction","","","",",",""
"null","<div style=""color:white; font-size:60px;"">+</div>","null","html-keyboard-response","465","848227","0.0-19.0-1.12","fixation","","","","",""
"985.8249998651445","Stimuli/Hangul_F2.bmp","188","image-keyboard-response","466","849215","0.0-19.0-2.12","c2_test",".","","","",","
"873.0850000865757","<p style=""color:white;""> Next Figure: Male or Female? </p>","188","html-keyboard-response","467","850090","0.0-19.0-0.13","prediction","","","",",",""
"null","<div style=""color:white; font-size:60px;"">+</div>","null","html-keyboard-response","468","851091","0.0-19.0-1.13","fixation","","","","",""
"664.4749999977648","Stimuli/Hangul_M19.bmp","188","image-keyboard-response","469","851758","0.0-19.0-2.13","c2_test",",","","","",","
"845.244999974966","<p style=""color:white;""> Next Figure: Male or Female? </p>","188","html-keyboard-response","470","852608","0.0-19.0-0.14","prediction","","","",",",""
"null","<div style=""color:white; font-size:60px;"">+</div>","null","html-keyboard-response","471","853609","0.0-19.0-1.14","fixation","","","","",""
"884.580000070855","Stimuli/Hangul_F17.bmp","188","image-keyboard-response","472","854495","0.0-19.0-2.14","c2_test",".","","","",","
"739.4100001547486","<p style=""color:white;""> Next Figure: Male or Female? </p>","188","html-keyboard-response","473","855236","0.0-19.0-0.15","prediction","","","",",",""
"null","<div style=""color:white; font-size:60px;"">+</div>","null","html-keyboard-response","474","856238","0.0-19.0-1.15","fixation","","","","",""
"623.7600001040846","Stimuli/Hangul_M13.bmp","188","image-keyboard-response","475","856863","0.0-19.0-2.15","c2_test",",","","","",","
"800.8149999659508","<p style=""color:white;""> Next Figure: Male or Female? </p>","188","html-keyboard-response","476","857665","0.0-19.0-0.16","prediction","","","",",",""
"null","<div style=""color:white; font-size:60px;"">+</div>","null","html-keyboard-response","477","858667","0.0-19.0-1.16","fixation","","","","",""
"570.4250000417233","Stimuli/Hangul_M1.bmp","188","image-keyboard-response","478","859239","0.0-19.0-2.16","c2_test",",","","","",","
"599.2449999321252","<p style=""color:white;""> Next Figure: Male or Female? </p>","188","html-keyboard-response","479","859840","0.0-19.0-0.17","prediction","","","",",",""
"null","<div style=""color:white; font-size:60px;"">+</div>","null","html-keyboard-response","480","860842","0.0-19.0-1.17","fixation","","","","",""
"575.2950001042336","Stimuli/Hangul_M10.bmp","188","image-keyboard-response","481","861420","0.0-19.0-2.17","c2_test",",","","","",","
"713.9999999199063","<p style=""color:white;""> Next Figure: Male or Female? </p>","188","html-keyboard-response","482","862136","0.0-19.0-0.18","prediction","","","",",",""
"null","<div style=""color:white; font-size:60px;"">+</div>","null","html-keyboard-response","483","863138","0.0-19.0-1.18","fixation","","","","",""
"576.5400000382215","Stimuli/Hangul_M22.bmp","188","image-keyboard-response","484","863716","0.0-19.0-2.18","c2_test",",","","","",","
"1698.460000101477","<p style=""color:white;""> Next Figure: Male or Female? </p>","188","html-keyboard-response","485","865418","0.0-19.0-0.19","prediction","","","",",",""
"null","<div style=""color:white; font-size:60px;"">+</div>","null","html-keyboard-response","486","866420","0.0-19.0-1.19","fixation","","","","",""
"609.8899999633431","Stimuli/Hangul_M5.bmp","188","image-keyboard-response","487","867031","0.0-19.0-2.19","c2_test",",","","","",","
"836.1099998001009","<p style=""color:white;""> Next Figure: Male or Female? </p>","188","html-keyboard-response","488","867869","0.0-19.0-0.20","prediction","","","",",",""
"null","<div style=""color:white; font-size:60px;"">+</div>","null","html-keyboard-response","489","868871","0.0-19.0-1.20","fixation","","","","",""
"489.5300001371652","Stimuli/Hangul_F23.bmp","188","image-keyboard-response","490","869362","0.0-19.0-2.20","c2_test",".","","","",","
"819.7999999392778","<p style=""color:white;""> Next Figure: Male or Female? </p>","188","html-keyboard-response","491","870183","0.0-19.0-0.21","prediction","","","",",",""
"null","<div style=""color:white; font-size:60px;"">+</div>","null","html-keyboard-response","492","871185","0.0-19.0-1.21","fixation","","","","",""
"793.9800000749528","Stimuli/Hangul_F14.bmp","190","image-keyboard-response","493","871981","0.0-19.0-2.21","c2_test",".","","","","."
"1418.5399999842048","<p style=""color:white;""> Next Figure: Male or Female? </p>","188","html-keyboard-response","494","873401","0.0-19.0-0.22","prediction","","","",",",""
"null","<div style=""color:white; font-size:60px;"">+</div>","null","html-keyboard-response","495","874404","0.0-19.0-1.22","fixation","","","","",""
"895.435000071302","Stimuli/Hangul_M21.bmp","190","image-keyboard-response","496","875301","0.0-19.0-2.22","c2_test",",","","","","."
"677.0300001371652","<p style=""color:white;""> Next Figure: Male or Female? </p>","188","html-keyboard-response","497","875980","0.0-19.0-0.23","prediction","","","",",",""
"null","<div style=""color:white; font-size:60px;"">+</div>","null","html-keyboard-response","498","876982","0.0-19.0-1.23","fixation","","","","",""
"653.9000000339001","Stimuli/Hangul_M17.bmp","188","image-keyboard-response","499","877638","0.0-19.0-2.23","c2_test",",","","","",","
"1209.01000010781","<p style=""color:white;""> Next Figure: Male or Female? </p>","188","html-keyboard-response","500","878850","0.0-19.0-0.24","prediction","","","",",",""
"null","<div style=""color:white; font-size:60px;"">+</div>","null","html-keyboard-response","501","879852","0.0-19.0-1.24","fixation","","","","",""
"620.6249999813735","Stimuli/Hangul_F11.bmp","188","image-keyboard-response","502","880475","0.0-19.0-2.24","c2_test",".","","","",","
"810.8349998947233","<p style=""color:white;""> Next Figure: Male or Female? </p>","188","html-keyboard-response","503","881289","0.0-19.0-0.25","prediction","","","",",",""
"null","<div style=""color:white; font-size:60px;"">+</div>","null","html-keyboard-response","504","882291","0.0-19.0-1.25","fixation","","","","",""
"604.8700001556426","Stimuli/Hangul_F1.bmp","190","image-keyboard-response","505","882897","0.0-19.0-2.25","c2_test",".","","","","."
"1050.3650000318885","<p style=""color:white;""> Next Figure: Male or Female? </p>","190","html-keyboard-response","506","883951","0.0-19.0-0.26","prediction","","","",".",""
"null","<div style=""color:white; font-size:60px;"">+</div>","null","html-keyboard-response","507","884953","0.0-19.0-1.26","fixation","","","","",""
"1057.8700001351535","Stimuli/Hangul_F22.bmp","190","image-keyboard-response","508","886017","0.0-19.0-2.26","c2_test",".","","","","."
"1170.6250000279397","<p style=""color:white;""> Next Figure: Male or Female? </p>","190","html-keyboard-response","509","887190","0.0-19.0-0.27","prediction","","","",".",""
"null","<div style=""color:white; font-size:60px;"">+</div>","null","html-keyboard-response","510","888193","0.0-19.0-1.27","fixation","","","","",""
"645.5700001679361","Stimuli/Hangul_F19.bmp","190","image-keyboard-response","511","888844","0.0-19.0-2.27","c2_test",".","","","","."
"972.2549999132752","<p style=""color:white;""> Next Figure: Male or Female? </p>","190","html-keyboard-response","512","889819","0.0-19.0-0.28","prediction","","","",".",""
"null","<div style=""color:white; font-size:60px;"">+</div>","null","html-keyboard-response","513","890820","0.0-19.0-1.28","fixation","","","","",""
"940.1199999265373","Stimuli/Hangul_F15.bmp","188","image-keyboard-response","514","891762","0.0-19.0-2.28","c2_test",".","","","",","
"938.1500000599772","<p style=""color:white;""> Next Figure: Male or Female? </p>","188","html-keyboard-response","515","892702","0.0-19.0-0.29","prediction","","","",",",""
"null","<div style=""color:white; font-size:60px;"">+</div>","null","html-keyboard-response","516","893704","0.0-19.0-1.29","fixation","","","","",""
"848.6399999819696","Stimuli/Hangul_F24.bmp","188","image-keyboard-response","517","894557","0.0-19.0-2.29","c2_test",".","","","",","
"676.0050000157207","<p style=""color:white;""> Next Figure: Male or Female? </p>","188","html-keyboard-response","518","895235","0.0-19.0-0.30","prediction","","","",",",""
"null","<div style=""color:white; font-size:60px;"">+</div>","null","html-keyboard-response","519","896238","0.0-19.0-1.30","fixation","","","","",""
"906.5749999135733","Stimuli/Hangul_F12.bmp","188","image-keyboard-response","520","897146","0.0-19.0-2.30","c2_test",".","","","",","
"833.7499999906868","<p style=""color:white;""> Next Figure: Male or Female? </p>","188","html-keyboard-response","521","897983","0.0-19.0-0.31","prediction","","","",",",""
"null","<div style=""color:white; font-size:60px;"">+</div>","null","html-keyboard-response","522","898987","0.0-19.0-1.31","fixation","","","","",""
"684.5799998845905","Stimuli/Hangul_F10.bmp","190","image-keyboard-response","523","899674","0.0-19.0-2.31","c2_test",".","","","","."
"1120.3949998598546","<p style=""color:white;""> Next Figure: Male or Female? </p>","190","html-keyboard-response","524","900798","0.0-19.0-0.32","prediction","","","",".",""
"null","<div style=""color:white; font-size:60px;"">+</div>","null","html-keyboard-response","525","901800","0.0-19.0-1.32","fixation","","","","",""
"705.064999870956","Stimuli/Hangul_F3.bmp","188","image-keyboard-response","526","902507","0.0-19.0-2.32","c2_test",".","","","",","
"849.7399999760091","<p style=""color:white;""> Next Figure: Male or Female? </p>","188","html-keyboard-response","527","903359","0.0-19.0-0.33","prediction","","","",",",""
"null","<div style=""color:white; font-size:60px;"">+</div>","null","html-keyboard-response","528","904362","0.0-19.0-1.33","fixation","","","","",""
"738.6799999512732","Stimuli/Hangul_F16.bmp","188","image-keyboard-response","529","905102","0.0-19.0-2.33","c2_test",".","","","",","
"1014.130000025034","<p style=""color:white;""> Next Figure: Male or Female? </p>","188","html-keyboard-response","530","906118","0.0-19.0-0.34","prediction","","","",",",""
"null","<div style=""color:white; font-size:60px;"">+</div>","null","html-keyboard-response","531","907120","0.0-19.0-1.34","fixation","","","","",""
"1111.0549999866635","Stimuli/Hangul_F9.bmp","190","image-keyboard-response","532","908233","0.0-19.0-2.34","c2_test",".","","","","."
"930.6449999567121","<p style=""color:white;""> Next Figure: Male or Female? </p>","188","html-keyboard-response","533","909165","0.0-19.0-0.35","prediction","","","",",",""
"null","<div style=""color:white; font-size:60px;"">+</div>","null","html-keyboard-response","534","910167","0.0-19.0-1.35","fixation","","","","",""
"633.6600000504404","Stimuli/Hangul_M11.bmp","188","image-keyboard-response","535","910803","0.0-19.0-2.35","c2_test",",","","","",","
"741.7500000447035","<p style=""color:white;""> Next Figure: Male or Female? </p>","188","html-keyboard-response","536","911547","0.0-19.0-0.36","prediction","","","",",",""
"null","<div style=""color:white; font-size:60px;"">+</div>","null","html-keyboard-response","537","912549","0.0-19.0-1.36","fixation","","","","",""
"777.0000000018626","Stimuli/Hangul_F7.bmp","188","image-keyboard-response","538","913328","0.0-19.0-2.36","c2_test",".","","","",","
"689.8550000041723","<p style=""color:white;""> Next Figure: Male or Female? </p>","188","html-keyboard-response","539","914021","0.0-19.0-0.37","prediction","","","",",",""
"null","<div style=""color:white; font-size:60px;"">+</div>","null","html-keyboard-response","540","915023","0.0-19.0-1.37","fixation","","","","",""
"656.7299999296665","Stimuli/Hangul_F21.bmp","190","image-keyboard-response","541","915682","0.0-19.0-2.37","c2_test",".","","","","."
"861.1500000115484","<p style=""color:white;""> Next Figure: Male or Female? </p>","190","html-keyboard-response","542","916547","0.0-19.0-0.38","prediction","","","",".",""
"null","<div style=""color:white; font-size:60px;"">+</div>","null","html-keyboard-response","543","917549","0.0-19.0-1.38","fixation","","","","",""
"672.2299999091774","Stimuli/Hangul_M0.bmp","188","image-keyboard-response","544","918223","0.0-19.0-2.38","c2_test",",","","","",","
"1163.8599999714643","<p style=""color:white;""> Next Figure: Male or Female? </p>","188","html-keyboard-response","545","919390","0.0-19.0-0.39","prediction","","","",",",""
"null","<div style=""color:white; font-size:60px;"">+</div>","null","html-keyboard-response","546","920392","0.0-19.0-1.39","fixation","","","","",""
"692.7000000141561","Stimuli/Hangul_F8.bmp","190","image-keyboard-response","547","921087","0.0-19.0-2.39","c2_test",".","","","","."
"997.6350001525134","<p style=""color:white;""> Next Figure: Male or Female? </p>","190","html-keyboard-response","548","922086","0.0-19.0-0.40","prediction","","","",".",""
"null","<div style=""color:white; font-size:60px;"">+</div>","null","html-keyboard-response","549","923088","0.0-19.0-1.40","fixation","","","","",""
"857.9099997878075","Stimuli/Hangul_M23.bmp","190","image-keyboard-response","550","923947","0.0-19.0-2.40","c2_test",",","","","","."
"1265.45500010252","<p style=""color:white;""> Next Figure: Male or Female? </p>","188","html-keyboard-response","551","925215","0.0-19.0-0.41","prediction","","","",",",""
"null","<div style=""color:white; font-size:60px;"">+</div>","null","html-keyboard-response","552","926217","0.0-19.0-1.41","fixation","","","","",""
"521.5550002176315","Stimuli/Hangul_M12.bmp","188","image-keyboard-response","553","926740","0.0-19.0-2.41","c2_test",",","","","",","
"2373.9700000733137","<p style=""color:white;""> Next Figure: Male or Female? </p>","188","html-keyboard-response","554","929117","0.0-19.0-0.42","prediction","","","",",",""
"null","<div style=""color:white; font-size:60px;"">+</div>","null","html-keyboard-response","555","930120","0.0-19.0-1.42","fixation","","","","",""
"772.7250000461936","Stimuli/Hangul_M24.bmp","188","image-keyboard-response","556","930895","0.0-19.0-2.42","c2_test",",","","","",","
"1261.7300001438707","<p style=""color:white;""> Next Figure: Male or Female? </p>","188","html-keyboard-response","557","932158","0.0-19.0-0.43","prediction","","","",",",""
"null","<div style=""color:white; font-size:60px;"">+</div>","null","html-keyboard-response","558","933160","0.0-19.0-1.43","fixation","","","","",""
"467.5199999473989","Stimuli/Hangul_M7.bmp","188","image-keyboard-response","559","933630","0.0-19.0-2.43","c2_test",",","","","",","
"619.4599999580532","<p style=""color:white;""> Next Figure: Male or Female? </p>","188","html-keyboard-response","560","934253","0.0-19.0-0.44","prediction","","","",",",""
"null","<div style=""color:white; font-size:60px;"">+</div>","null","html-keyboard-response","561","935254","0.0-19.0-1.44","fixation","","","","",""
"554.255000082776","Stimuli/Hangul_M16.bmp","188","image-keyboard-response","562","935811","0.0-19.0-2.44","c2_test",",","","","",","
"2045.5650000367314","<p style=""color:white;""> Next Figure: Male or Female? </p>","188","html-keyboard-response","563","937860","0.0-19.0-0.45","prediction","","","",",",""
"null","<div style=""color:white; font-size:60px;"">+</div>","null","html-keyboard-response","564","938861","0.0-19.0-1.45","fixation","","","","",""
"807.8300000634044","Stimuli/Hangul_F18.bmp","190","image-keyboard-response","565","939673","0.0-19.0-2.45","c2_test",".","","","","."
"1013.6400000192225","<p style=""color:white;""> Next Figure: Male or Female? </p>","190","html-keyboard-response","566","940690","0.0-19.0-0.46","prediction","","","",".",""
"null","<div style=""color:white; font-size:60px;"">+</div>","null","html-keyboard-response","567","941692","0.0-19.0-1.46","fixation","","","","",""
"822.1249999478459","Stimuli/Hangul_F13.bmp","188","image-keyboard-response","568","942516","0.0-19.0-2.46","c2_test",".","","","",","
"820.3950000461191","<p style=""color:white;""> Next Figure: Male or Female? </p>","188","html-keyboard-response","569","943339","0.0-19.0-0.47","prediction","","","",",",""
"null","<div style=""color:white; font-size:60px;"">+</div>","null","html-keyboard-response","570","944341","0.0-19.0-1.47","fixation","","","","",""
"685.84999977611","Stimuli/Hangul_M8.bmp","188","image-keyboard-response","571","945029","0.0-19.0-2.47","c2_test",",","","","",","
"1783.0750001594424","<p style=""color:white;""> Next Figure: Male or Female? </p>","188","html-keyboard-response","572","946814","0.0-19.0-0.48","prediction","","","",",",""
"null","<div style=""color:white; font-size:60px;"">+</div>","null","html-keyboard-response","573","947816","0.0-19.0-1.48","fixation","","","","",""
"597.1649999264628","Stimuli/Hangul_F5.bmp","188","image-keyboard-response","574","948416","0.0-19.0-2.48","c2_test",".","","","",","
"1505.464999936521","<p style=""color:white;""> Next Figure: Male or Female? </p>","188","html-keyboard-response","575","949924","0.0-19.0-0.49","prediction","","","",",",""
"null","<div style=""color:white; font-size:60px;"">+</div>","null","html-keyboard-response","576","950926","0.0-19.0-1.49","fixation","","","","",""
"521.720000077039","Stimuli/Hangul_M18.bmp","188","image-keyboard-response","577","951451","0.0-19.0-2.49","c2_test",",","","","",","
"2513.715000124648","<p style=""color:white;"">Good job, block 1 complete! Please take a moment to rest.</p> <p style=""color:white;"">When you are ready to continue with block 2 of 4, press the space bar.</p> ","32","html-keyboard-response","578","953968","0.0-20.0","","","","","",""
"1028.6100001540035","<p style=""color:white;""> Next Figure: Male or Female? </p>","188","html-keyboard-response","579","956999","0.0-21.0-0.0","prediction","","","",",",""
"null","<div style=""color:white; font-size:60px;"">+</div>","null","html-keyboard-response","580","958001","0.0-21.0-1.0","fixation","","","","",""
"576.2899999972433","Stimuli/Hangul_F38.bmp","188","image-keyboard-response","581","958580","0.0-21.0-2.0","c2_test",".","","","",","
"1236.8099999148399","<p style=""color:white;""> Next Figure: Male or Female? </p>","188","html-keyboard-response","582","959818","0.0-21.0-0.1","prediction","","","",",",""
"null","<div style=""color:white; font-size:60px;"">+</div>","null","html-keyboard-response","583","960819","0.0-21.0-1.1","fixation","","","","",""
"481.95000016130507","Stimuli/Hangul_M45.bmp","188","image-keyboard-response","584","961304","0.0-21.0-2.1","c2_test",",","","","",","
"559.0550000779331","<p style=""color:white;""> Next Figure: Male or Female? </p>","188","html-keyboard-response","585","961866","0.0-21.0-0.2","prediction","","","",",",""
"null","<div style=""color:white; font-size:60px;"">+</div>","null","html-keyboard-response","586","962868","0.0-21.0-1.2","fixation","","","","",""
"747.5450001657009","Stimuli/Hangul_M38.bmp","190","image-keyboard-response","587","963617","0.0-21.0-2.2","c2_test",",","","","","."
"521.5249999891967","<p style=""color:white;""> Next Figure: Male or Female? </p>","190","html-keyboard-response","588","964141","0.0-21.0-0.3","prediction","","","",".",""
"null","<div style=""color:white; font-size:60px;"">+</div>","null","html-keyboard-response","589","965144","0.0-21.0-1.3","fixation","","","","",""
"646.184999961406","Stimuli/Hangul_F37.bmp","190","image-keyboard-response","590","965792","0.0-21.0-2.3","c2_test",".","","","","."
"437.73000012151897","<p style=""color:white;""> Next Figure: Male or Female? </p>","190","html-keyboard-response","591","966232","0.0-21.0-0.4","prediction","","","",".",""
"null","<div style=""color:white; font-size:60px;"">+</div>","null","html-keyboard-response","592","967234","0.0-21.0-1.4","fixation","","","","",""
"573.355000000447","Stimuli/Hangul_M47.bmp","188","image-keyboard-response","593","967810","0.0-21.0-2.4","c2_test",",","","","",","
"506.09000003896654","<p style=""color:white;""> Next Figure: Male or Female? </p>","188","html-keyboard-response","594","968318","0.0-21.0-0.5","prediction","","","",",",""
"null","<div style=""color:white; font-size:60px;"">+</div>","null","html-keyboard-response","595","969320","0.0-21.0-1.5","fixation","","","","",""
"549.2849999573082","Stimuli/Hangul_F36.bmp","188","image-keyboard-response","596","969871","0.0-21.0-2.5","c2_test",".","","","",","
"443.01499985158443","<p style=""color:white;""> Next Figure: Male or Female? </p>","188","html-keyboard-response","597","970316","0.0-21.0-0.6","prediction","","","",",",""
"null","<div style=""color:white; font-size:60px;"">+</div>","null","html-keyboard-response","598","971319","0.0-21.0-1.6","fixation","","","","",""
"663.8950000051409","Stimuli/Hangul_M49.bmp","188","image-keyboard-response","599","971984","0.0-21.0-2.6","c2_test",",","","","",","
"415.7199999317527","<p style=""color:white;""> Next Figure: Male or Female? </p>","188","html-keyboard-response","600","972404","0.0-21.0-0.7","prediction","","","",",",""
"null","<div style=""color:white; font-size:60px;"">+</div>","null","html-keyboard-response","601","973406","0.0-21.0-1.7","fixation","","","","",""
"599.4600001722574","Stimuli/Hangul_F48.bmp","188","image-keyboard-response","602","974007","0.0-21.0-2.7","c2_test",".","","","",","
"451.3150001876056","<p style=""color:white;""> Next Figure: Male or Female? </p>","188","html-keyboard-response","603","974460","0.0-21.0-0.8","prediction","","","",",",""
"null","<div style=""color:white; font-size:60px;"">+</div>","null","html-keyboard-response","604","975463","0.0-21.0-1.8","fixation","","","","",""
"680.7200000621378","Stimuli/Hangul_M43.bmp","188","image-keyboard-response","605","976145","0.0-21.0-2.8","c2_test",",","","","",","
"410.9050000552088","<p style=""color:white;""> Next Figure: Male or Female? </p>","188","html-keyboard-response","606","976557","0.0-21.0-0.9","prediction","","","",",",""
"null","<div style=""color:white; font-size:60px;"">+</div>","null","html-keyboard-response","607","977559","0.0-21.0-1.9","fixation","","","","",""
"626.589999999851","Stimuli/Hangul_F39.bmp","190","image-keyboard-response","608","978187","0.0-21.0-2.9","c2_test",".","","","","."
"527.9049999080598","<p style=""color:white;""> Next Figure: Male or Female? </p>","190","html-keyboard-response","609","978716","0.0-21.0-0.10","prediction","","","",".",""
"null","<div style=""color:white; font-size:60px;"">+</div>","null","html-keyboard-response","610","979717","0.0-21.0-1.10","fixation","","","","",""
"755.4949999321252","Stimuli/Hangul_F47.bmp","188","image-keyboard-response","611","980475","0.0-21.0-2.10","c2_test",".","","","",","
"544.9600000865757","<p style=""color:white;""> Next Figure: Male or Female? </p>","188","html-keyboard-response","612","981022","0.0-21.0-0.11","prediction","","","",",",""
"null","<div style=""color:white; font-size:60px;"">+</div>","null","html-keyboard-response","613","982025","0.0-21.0-1.11","fixation","","","","",""
"734.5249999780208","Stimuli/Hangul_M31.bmp","190","image-keyboard-response","614","982761","0.0-21.0-2.11","c2_test",",","","","","."
"461.11000003293157","<p style=""color:white;""> Next Figure: Male or Female? </p>","190","html-keyboard-response","615","983225","0.0-21.0-0.12","prediction","","","",".",""
"null","<div style=""color:white; font-size:60px;"">+</div>","null","html-keyboard-response","616","984227","0.0-21.0-1.12","fixation","","","","",""
"607.2050000075251","Stimuli/Hangul_M32.bmp","188","image-keyboard-response","617","984835","0.0-21.0-2.12","c2_test",",","","","",","
"448.27499985694885","<p style=""color:white;""> Next Figure: Male or Female? </p>","188","html-keyboard-response","618","985286","0.0-21.0-0.13","prediction","","","",",",""
"null","<div style=""color:white; font-size:60px;"">+</div>","null","html-keyboard-response","619","986288","0.0-21.0-1.13","fixation","","","","",""
"1673.4150000847876","Stimuli/Hangul_M39.bmp","188","image-keyboard-response","620","987963","0.0-21.0-2.13","c2_test",",","","","",","
"574.9349999241531","<p style=""color:white;""> Next Figure: Male or Female? </p>","188","html-keyboard-response","621","988540","0.0-21.0-0.14","prediction","","","",",",""
"null","<div style=""color:white; font-size:60px;"">+</div>","null","html-keyboard-response","622","989543","0.0-21.0-1.14","fixation","","","","",""
"656.5450001507998","Stimuli/Hangul_F26.bmp","188","image-keyboard-response","623","990202","0.0-21.0-2.14","c2_test",".","","","",","
"476.27500002272427","<p style=""color:white;""> Next Figure: Male or Female? </p>","188","html-keyboard-response","624","990682","0.0-21.0-0.15","prediction","","","",",",""
"null","<div style=""color:white; font-size:60px;"">+</div>","null","html-keyboard-response","625","991685","0.0-21.0-1.15","fixation","","","","",""
"653.0649999622256","Stimuli/Hangul_F42.bmp","190","image-keyboard-response","626","992342","0.0-21.0-2.15","c2_test",".","","","","."
"662.1600000653416","<p style=""color:white;""> Next Figure: Male or Female? </p>","190","html-keyboard-response","627","993007","0.0-21.0-0.16","prediction","","","",".",""
"null","<div style=""color:white; font-size:60px;"">+</div>","null","html-keyboard-response","628","994010","0.0-21.0-1.16","fixation","","","","",""
"650.8049999829382","Stimuli/Hangul_F43.bmp","188","image-keyboard-response","629","994663","0.0-21.0-2.16","c2_test",".","","","",","
"525.8150000590831","<p style=""color:white;""> Next Figure: Male or Female? </p>","188","html-keyboard-response","630","995194","0.0-21.0-0.17","prediction","","","",",",""
"null","<div style=""color:white; font-size:60px;"">+</div>","null","html-keyboard-response","631","996196","0.0-21.0-1.17","fixation","","","","",""
"674.0299998782575","Stimuli/Hangul_F44.bmp","190","image-keyboard-response","632","996871","0.0-21.0-2.17","c2_test",".","","","","."
"568.4500001370907","<p style=""color:white;""> Next Figure: Male or Female? </p>","190","html-keyboard-response","633","997443","0.0-21.0-0.18","prediction","","","",".",""
"null","<div style=""color:white; font-size:60px;"">+</div>","null","html-keyboard-response","634","998445","0.0-21.0-1.18","fixation","","","","",""
"577.6899999473244","Stimuli/Hangul_M33.bmp","188","image-keyboard-response","635","999024","0.0-21.0-2.18","c2_test",",","","","",","
"746.955000096932","<p style=""color:white;""> Next Figure: Male or Female? </p>","188","html-keyboard-response","636","999773","0.0-21.0-0.19","prediction","","","",",",""
"null","<div style=""color:white; font-size:60px;"">+</div>","null","html-keyboard-response","637","1000776","0.0-21.0-1.19","fixation","","","","",""
"559.2650000471622","Stimuli/Hangul_F49.bmp","188","image-keyboard-response","638","1001338","0.0-21.0-2.19","c2_test",".","","","",","
"524.0249999333173","<p style=""color:white;""> Next Figure: Male or Female? </p>","188","html-keyboard-response","639","1001864","0.0-21.0-0.20","prediction","","","",",",""
"null","<div style=""color:white; font-size:60px;"">+</div>","null","html-keyboard-response","640","1002866","0.0-21.0-1.20","fixation","","","","",""
"702.6649999897927","Stimuli/Hangul_F30.bmp","190","image-keyboard-response","641","1003571","0.0-21.0-2.20","c2_test",".","","","","."
"1569.4650001823902","<p style=""color:white;""> Next Figure: Male or Female? </p>","188","html-keyboard-response","642","1005142","0.0-21.0-0.21","prediction","","","",",",""
"null","<div style=""color:white; font-size:60px;"">+</div>","null","html-keyboard-response","643","1006145","0.0-21.0-1.21","fixation","","","","",""
"2004.1649998165667","Stimuli/Hangul_M26.bmp","188","image-keyboard-response","644","1008150","0.0-21.0-2.21","c2_test",",","","","",","
"575.6149999797344","<p style=""color:white;""> Next Figure: Male or Female? </p>","188","html-keyboard-response","645","1008728","0.0-21.0-0.22","prediction","","","",",",""
"null","<div style=""color:white; font-size:60px;"">+</div>","null","html-keyboard-response","646","1009729","0.0-21.0-1.22","fixation","","","","",""
"962.4149999581277","Stimuli/Hangul_M28.bmp","188","image-keyboard-response","647","1010695","0.0-21.0-2.22","c2_test",",","","","",","
"601.2949999421835","<p style=""color:white;""> Next Figure: Male or Female? </p>","188","html-keyboard-response","648","1011298","0.0-21.0-0.23","prediction","","","",",",""
"null","<div style=""color:white; font-size:60px;"">+</div>","null","html-keyboard-response","649","1012301","0.0-21.0-1.23","fixation","","","","",""
"806.990000186488","Stimuli/Hangul_M25.bmp","188","image-keyboard-response","650","1013110","0.0-21.0-2.23","c2_test",",","","","",","
"530.1850000396371","<p style=""color:white;""> Next Figure: Male or Female? </p>","188","html-keyboard-response","651","1013641","0.0-21.0-0.24","prediction","","","",",",""
"null","<div style=""color:white; font-size:60px;"">+</div>","null","html-keyboard-response","652","1014643","0.0-21.0-1.24","fixation","","","","",""
"807.1300000883639","Stimuli/Hangul_F28.bmp","190","image-keyboard-response","653","1015452","0.0-21.0-2.24","c2_test",".","","","","."
"460.6949998997152","<p style=""color:white;""> Next Figure: Male or Female? </p>","190","html-keyboard-response","654","1015915","0.0-21.0-0.25","prediction","","","",".",""
"null","<div style=""color:white; font-size:60px;"">+</div>","null","html-keyboard-response","655","1016917","0.0-21.0-1.25","fixation","","","","",""
"670.5700000748038","Stimuli/Hangul_M27.bmp","188","image-keyboard-response","656","1017590","0.0-21.0-2.25","c2_test",",","","","",","
