"rt","stimulus","key_press","trial_type","trial_index","time_elapsed","internal_node_id","test_part","correct_response","C1_train","C1","A","C2"
"2972.3249999951804","<p style=""color:white;"">Welcome to the experiment! Press any key to begin.</p>","32","html-keyboard-response","0","2978","0.0-0.0","","","","","",""
"57709.914999999455","<p style=""color:white;"">You will see a series of abstract figures. They are adaptations of signs in the Korean alphabet, but that is not important for this study. </p><p style=""color:white;"">Abstract figures sometimes have a more masculine or feminine shape. Here, each figure has already been assigned a gender as <q>Male</q> or <q>Female</q> by a panel of respondents in a pilot study. The respondents were not given specific instructions on how to do this, but were only told to use their intuition and to take into account the entire configuration of the stimulus. </p><p style=""color:white;"">Your task now is to guess the assigned gender of each figure. Please press the corresponding response keys to indicate your choice: </p><p style=""color:white;""> Male &#8594 <q>,</q> (comma)</p><p style=""color:white;""> Female &#8594 <q>.</q> (period)</p><p style=""color:white;"">Press either response keys to continue.</p>","190","html-keyboard-response","1","60689","0.0-1.0","","","","","",""
"13495.475000003353","<p style=""color:white;"">Your choice is correct if it matches the gender assigned by the majority of respondents in the pilot study.</p> <p style=""color:white;"">For each correct choice you will receive 2 cents. There will be 200 trials divided into 4 blocks of 50 trials. You will be able to take a break after every 50 trials.</p> <p style=""color:white;"">Press the space bar to continue.</p>","32","html-keyboard-response","2","74185","0.0-2.0","","","","","",""
"5526.570000001811","<p style=""color:white;"">Here are some examples.</p> <p style=""color:white;"">For each, guess whether the assigned figure is male-like or female-like and indicate your choice by pressing either response keys.</p> <p style=""color:white;"">Press the space bar to continue.</p>","32","html-keyboard-response","3","79712","0.0-3.0","","","","","",""
"null","<div style=""color:white; font-size:60px;"">+</div>","null","html-keyboard-response","4","82715","0.0-4.0-0.0","fixation","","","","",""
"2652.784999998403","Stimuli/Hangul_E2.bmp","190","image-keyboard-response","5","85369","0.0-4.0-1.0","c1_train",".",".","","",""
"null","<div style=""color:white; font-size:60px;"">+</div>","null","html-keyboard-response","6","86370","0.0-4.0-0.1","fixation","","","","",""
"1845.9449999936623","Stimuli/Hangul_E1.bmp","188","image-keyboard-response","7","88216","0.0-4.0-1.1","c1_train",",",",","","",""
"null","<div style=""color:white; font-size:60px;"">+</div>","null","html-keyboard-response","8","89218","0.0-4.0-0.2","fixation","","","","",""
"1797.0800000039162","Stimuli/Hangul_E0.bmp","188","image-keyboard-response","9","91016","0.0-4.0-1.2","c1_train",",",",","","",""
"4247.280000010505","<p style=""color:white;"">Let us begin! Press the space bar when you are ready to start block 1 of 4.</p> ","32","html-keyboard-response","10","95264","0.0-5.0","","","","","",""
"null","<div style=""color:white; font-size:60px;"">+</div>","null","html-keyboard-response","11","98267","0.0-6.0-0.0","fixation","","","","",""
"2204.695000007632","Stimuli/Hangul_M20.bmp","188","image-keyboard-response","12","100472","0.0-6.0-1.0","test",",","",",","",""
"null","<div style=""color:white; font-size:60px;"">+</div>","null","html-keyboard-response","13","101474","0.0-6.0-0.1","fixation","","","","",""
"1829.07000000705","Stimuli/Hangul_F0.bmp","190","image-keyboard-response","14","103304","0.0-6.0-1.1","test",".","",".","",""
"null","<div style=""color:white; font-size:60px;"">+</div>","null","html-keyboard-response","15","104305","0.0-6.0-0.2","fixation","","","","",""
"1918.6849999969127","Stimuli/Hangul_M15.bmp","190","image-keyboard-response","16","106224","0.0-6.0-1.2","test",",","",".","",""
"null","<div style=""color:white; font-size:60px;"">+</div>","null","html-keyboard-response","17","107226","0.0-6.0-0.3","fixation","","","","",""
"1717.6449999969918","Stimuli/Hangul_F10.bmp","190","image-keyboard-response","18","108945","0.0-6.0-1.3","test",".","",".","",""
"null","<div style=""color:white; font-size:60px;"">+</div>","null","html-keyboard-response","19","109950","0.0-6.0-0.4","fixation","","","","",""
"2034.4650000042748","Stimuli/Hangul_F17.bmp","188","image-keyboard-response","20","111985","0.0-6.0-1.4","test",".","",",","",""
"null","<div style=""color:white; font-size:60px;"">+</div>","null","html-keyboard-response","21","112988","0.0-6.0-0.5","fixation","","","","",""
"2084.369999996852","Stimuli/Hangul_F1.bmp","190","image-keyboard-response","22","115073","0.0-6.0-1.5","test",".","",".","",""
"null","<div style=""color:white; font-size:60px;"">+</div>","null","html-keyboard-response","23","116074","0.0-6.0-0.6","fixation","","","","",""
"1669.7500000009313","Stimuli/Hangul_F13.bmp","188","image-keyboard-response","24","117745","0.0-6.0-1.6","test",".","",",","",""
"null","<div style=""color:white; font-size:60px;"">+</div>","null","html-keyboard-response","25","118746","0.0-6.0-0.7","fixation","","","","",""
"1990.3900000063004","Stimuli/Hangul_F8.bmp","190","image-keyboard-response","26","120737","0.0-6.0-1.7","test",".","",".","",""
"null","<div style=""color:white; font-size:60px;"">+</div>","null","html-keyboard-response","27","121739","0.0-6.0-0.8","fixation","","","","",""
"1790.03499999817","Stimuli/Hangul_F7.bmp","188","image-keyboard-response","28","123529","0.0-6.0-1.8","test",".","",",","",""
"null","<div style=""color:white; font-size:60px;"">+</div>","null","html-keyboard-response","29","124531","0.0-6.0-0.9","fixation","","","","",""
"1668.790000010631","Stimuli/Hangul_M17.bmp","188","image-keyboard-response","30","126201","0.0-6.0-1.9","test",",","",",","",""
"null","<div style=""color:white; font-size:60px;"">+</div>","null","html-keyboard-response","31","127202","0.0-6.0-0.10","fixation","","","","",""
"1862.2599999944214","Stimuli/Hangul_F21.bmp","190","image-keyboard-response","32","129065","0.0-6.0-1.10","test",".","",".","",""
"null","<div style=""color:white; font-size:60px;"">+</div>","null","html-keyboard-response","33","130066","0.0-6.0-0.11","fixation","","","","",""
"1933.759999999893","Stimuli/Hangul_M6.bmp","188","image-keyboard-response","34","132000","0.0-6.0-1.11","test",",","",",","",""
"null","<div style=""color:white; font-size:60px;"">+</div>","null","html-keyboard-response","35","133002","0.0-6.0-0.12","fixation","","","","",""
"2246.8300000036834","Stimuli/Hangul_F16.bmp","188","image-keyboard-response","36","135249","0.0-6.0-1.12","test",".","",",","",""
"null","<div style=""color:white; font-size:60px;"">+</div>","null","html-keyboard-response","37","136251","0.0-6.0-0.13","fixation","","","","",""
"1708.9899999991758","Stimuli/Hangul_F23.bmp","188","image-keyboard-response","38","137961","0.0-6.0-1.13","test",".","",",","",""
"null","<div style=""color:white; font-size:60px;"">+</div>","null","html-keyboard-response","39","138962","0.0-6.0-0.14","fixation","","","","",""
"2117.2200000000885","Stimuli/Hangul_M11.bmp","190","image-keyboard-response","40","141080","0.0-6.0-1.14","test",",","",".","",""
"null","<div style=""color:white; font-size:60px;"">+</div>","null","html-keyboard-response","41","142083","0.0-6.0-0.15","fixation","","","","",""
"1917.3049999953946","Stimuli/Hangul_F14.bmp","190","image-keyboard-response","42","144000","0.0-6.0-1.15","test",".","",".","",""
"null","<div style=""color:white; font-size:60px;"">+</div>","null","html-keyboard-response","43","145003","0.0-6.0-0.16","fixation","","","","",""
"2093.459999989136","Stimuli/Hangul_M3.bmp","188","image-keyboard-response","44","147097","0.0-6.0-1.16","test",",","",",","",""
"null","<div style=""color:white; font-size:60px;"">+</div>","null","html-keyboard-response","45","148098","0.0-6.0-0.17","fixation","","","","",""
"1821.4849999931175","Stimuli/Hangul_F11.bmp","188","image-keyboard-response","46","149920","0.0-6.0-1.17","test",".","",",","",""
"null","<div style=""color:white; font-size:60px;"">+</div>","null","html-keyboard-response","47","150922","0.0-6.0-0.18","fixation","","","","",""
"1861.6349999938393","Stimuli/Hangul_F4.bmp","190","image-keyboard-response","48","152784","0.0-6.0-1.18","test",".","",".","",""
"null","<div style=""color:white; font-size:60px;"">+</div>","null","html-keyboard-response","49","153785","0.0-6.0-0.19","fixation","","","","",""
"1782.8500000032363","Stimuli/Hangul_F12.bmp","188","image-keyboard-response","50","155569","0.0-6.0-1.19","test",".","",",","",""
"null","<div style=""color:white; font-size:60px;"">+</div>","null","html-keyboard-response","51","156570","0.0-6.0-0.20","fixation","","","","",""
"1998.2699999964098","Stimuli/Hangul_F6.bmp","188","image-keyboard-response","52","158570","0.0-6.0-1.20","test",".","",",","",""
"null","<div style=""color:white; font-size:60px;"">+</div>","null","html-keyboard-response","53","159572","0.0-6.0-0.21","fixation","","","","",""
"1756.5749999921536","Stimuli/Hangul_M19.bmp","188","image-keyboard-response","54","161329","0.0-6.0-1.21","test",",","",",","",""
"null","<div style=""color:white; font-size:60px;"">+</div>","null","html-keyboard-response","55","162331","0.0-6.0-0.22","fixation","","","","",""
"1565.1150000048801","Stimuli/Hangul_F18.bmp","190","image-keyboard-response","56","163897","0.0-6.0-1.22","test",".","",".","",""
"null","<div style=""color:white; font-size:60px;"">+</div>","null","html-keyboard-response","57","164897","0.0-6.0-0.23","fixation","","","","",""
"2142.7850000036415","Stimuli/Hangul_M12.bmp","188","image-keyboard-response","58","167041","0.0-6.0-1.23","test",",","",",","",""
"null","<div style=""color:white; font-size:60px;"">+</div>","null","html-keyboard-response","59","168043","0.0-6.0-0.24","fixation","","","","",""
"2109.3850000033854","Stimuli/Hangul_M7.bmp","188","image-keyboard-response","60","170152","0.0-6.0-1.24","test",",","",",","",""
"null","<div style=""color:white; font-size:60px;"">+</div>","null","html-keyboard-response","61","171154","0.0-6.0-0.25","fixation","","","","",""
"2509.6449999982724","Stimuli/Hangul_F19.bmp","190","image-keyboard-response","62","173664","0.0-6.0-1.25","test",".","",".","",""
"null","<div style=""color:white; font-size:60px;"">+</div>","null","html-keyboard-response","63","174666","0.0-6.0-0.26","fixation","","","","",""
"1861.4850000012666","Stimuli/Hangul_F2.bmp","188","image-keyboard-response","64","176528","0.0-6.0-1.26","test",".","",",","",""
"null","<div style=""color:white; font-size:60px;"">+</div>","null","html-keyboard-response","65","177529","0.0-6.0-0.27","fixation","","","","",""
"1806.060000002617","Stimuli/Hangul_M22.bmp","188","image-keyboard-response","66","179336","0.0-6.0-1.27","test",",","",",","",""
"null","<div style=""color:white; font-size:60px;"">+</div>","null","html-keyboard-response","67","180337","0.0-6.0-0.28","fixation","","","","",""
"2382.480000000214","Stimuli/Hangul_F5.bmp","188","image-keyboard-response","68","182720","0.0-6.0-1.28","test",".","",",","",""
"null","<div style=""color:white; font-size:60px;"">+</div>","null","html-keyboard-response","69","183722","0.0-6.0-0.29","fixation","","","","",""
"1980.939999994007","Stimuli/Hangul_M4.bmp","190","image-keyboard-response","70","185704","0.0-6.0-1.29","test",",","",".","",""
"null","<div style=""color:white; font-size:60px;"">+</div>","null","html-keyboard-response","71","186706","0.0-6.0-0.30","fixation","","","","",""
"1853.0900000041584","Stimuli/Hangul_M0.bmp","190","image-keyboard-response","72","188560","0.0-6.0-1.30","test",",","",".","",""
"null","<div style=""color:white; font-size:60px;"">+</div>","null","html-keyboard-response","73","189562","0.0-6.0-0.31","fixation","","","","",""
"1941.2299999967217","Stimuli/Hangul_M24.bmp","188","image-keyboard-response","74","191504","0.0-6.0-1.31","test",",","",",","",""
"null","<div style=""color:white; font-size:60px;"">+</div>","null","html-keyboard-response","75","192506","0.0-6.0-0.32","fixation","","","","",""
"2205.1849999988917","Stimuli/Hangul_M9.bmp","188","image-keyboard-response","76","194712","0.0-6.0-1.32","test",",","",",","",""
"null","<div style=""color:white; font-size:60px;"">+</div>","null","html-keyboard-response","77","195714","0.0-6.0-0.33","fixation","","","","",""
"2212.9749999876367","Stimuli/Hangul_M2.bmp","188","image-keyboard-response","78","197928","0.0-6.0-1.33","test",",","",",","",""
"null","<div style=""color:white; font-size:60px;"">+</div>","null","html-keyboard-response","79","198929","0.0-6.0-0.34","fixation","","","","",""
"1854.5850000082282","Stimuli/Hangul_M8.bmp","190","image-keyboard-response","80","200784","0.0-6.0-1.34","test",",","",".","",""
"null","<div style=""color:white; font-size:60px;"">+</div>","null","html-keyboard-response","81","201786","0.0-6.0-0.35","fixation","","","","",""
"1845.209999999497","Stimuli/Hangul_F22.bmp","190","image-keyboard-response","82","203632","0.0-6.0-1.35","test",".","",".","",""
"null","<div style=""color:white; font-size:60px;"">+</div>","null","html-keyboard-response","83","204633","0.0-6.0-0.36","fixation","","","","",""
"2270.3400000027614","Stimuli/Hangul_F3.bmp","190","image-keyboard-response","84","206905","0.0-6.0-1.36","test",".","",".","",""
"null","<div style=""color:white; font-size:60px;"">+</div>","null","html-keyboard-response","85","207907","0.0-6.0-0.37","fixation","","","","",""
"4500.054999996792","Stimuli/Hangul_M14.bmp","188","image-keyboard-response","86","212408","0.0-6.0-1.37","test",",","",",","",""
"null","<div style=""color:white; font-size:60px;"">+</div>","null","html-keyboard-response","87","213409","0.0-6.0-0.38","fixation","","","","",""
"3012.9499999893596","Stimuli/Hangul_M10.bmp","190","image-keyboard-response","88","216424","0.0-6.0-1.38","test",",","",".","",""
"null","<div style=""color:white; font-size:60px;"">+</div>","null","html-keyboard-response","89","217426","0.0-6.0-0.39","fixation","","","","",""
"2485.530000005383","Stimuli/Hangul_M13.bmp","188","image-keyboard-response","90","219912","0.0-6.0-1.39","test",",","",",","",""
"null","<div style=""color:white; font-size:60px;"">+</div>","null","html-keyboard-response","91","220913","0.0-6.0-0.40","fixation","","","","",""
"1990.0399999896763","Stimuli/Hangul_M23.bmp","190","image-keyboard-response","92","222904","0.0-6.0-1.40","test",",","",".","",""
"null","<div style=""color:white; font-size:60px;"">+</div>","null","html-keyboard-response","93","223906","0.0-6.0-0.41","fixation","","","","",""
"2012.9199999937555","Stimuli/Hangul_F20.bmp","190","image-keyboard-response","94","225920","0.0-6.0-1.41","test",".","",".","",""
"null","<div style=""color:white; font-size:60px;"">+</div>","null","html-keyboard-response","95","226921","0.0-6.0-0.42","fixation","","","","",""
"2358.3199999993667","Stimuli/Hangul_F15.bmp","188","image-keyboard-response","96","229280","0.0-6.0-1.42","test",".","",",","",""
"null","<div style=""color:white; font-size:60px;"">+</div>","null","html-keyboard-response","97","230282","0.0-6.0-0.43","fixation","","","","",""
"2269.879999992554","Stimuli/Hangul_M5.bmp","190","image-keyboard-response","98","232552","0.0-6.0-1.43","test",",","",".","",""
"null","<div style=""color:white; font-size:60px;"">+</div>","null","html-keyboard-response","99","233554","0.0-6.0-0.44","fixation","","","","",""
"3332.7900000003865","Stimuli/Hangul_M1.bmp","188","image-keyboard-response","100","236888","0.0-6.0-1.44","test",",","",",","",""
"null","<div style=""color:white; font-size:60px;"">+</div>","null","html-keyboard-response","101","237890","0.0-6.0-0.45","fixation","","","","",""
"3261.3150000106543","Stimuli/Hangul_F24.bmp","188","image-keyboard-response","102","241152","0.0-6.0-1.45","test",".","",",","",""
"null","<div style=""color:white; font-size:60px;"">+</div>","null","html-keyboard-response","103","242153","0.0-6.0-0.46","fixation","","","","",""
"2310.239999991609","Stimuli/Hangul_M18.bmp","188","image-keyboard-response","104","244464","0.0-6.0-1.46","test",",","",",","",""
"null","<div style=""color:white; font-size:60px;"">+</div>","null","html-keyboard-response","105","245466","0.0-6.0-0.47","fixation","","","","",""
"2116.9299999892246","Stimuli/Hangul_M16.bmp","188","image-keyboard-response","106","247584","0.0-6.0-1.47","test",",","",",","",""
"null","<div style=""color:white; font-size:60px;"">+</div>","null","html-keyboard-response","107","248585","0.0-6.0-0.48","fixation","","","","",""
"3294.0399999934016","Stimuli/Hangul_F9.bmp","188","image-keyboard-response","108","251880","0.0-6.0-1.48","test",".","",",","",""
"null","<div style=""color:white; font-size:60px;"">+</div>","null","html-keyboard-response","109","252881","0.0-6.0-0.49","fixation","","","","",""
"2606.5050000033807","Stimuli/Hangul_M21.bmp","190","image-keyboard-response","110","255488","0.0-6.0-1.49","test",",","",".","",""
"14951.300000000629","<p style=""color:white;"">Good job, block 1 complete! Please take a moment to rest.</p> <p style=""color:white;"">When you are ready to continue with block 2 of 4, press the space bar.</p> ","32","html-keyboard-response","111","270440","0.0-7.0","","","","","",""
"null","<div style=""color:white; font-size:60px;"">+</div>","null","html-keyboard-response","112","273443","0.0-8.0-0.0","fixation","","","","",""
"2115.5950000102166","Stimuli/Hangul_M41.bmp","188","image-keyboard-response","113","275560","0.0-8.0-1.0","test",",","",",","",""
"null","<div style=""color:white; font-size:60px;"">+</div>","null","html-keyboard-response","114","276561","0.0-8.0-0.1","fixation","","","","",""
"2262.1000000071945","Stimuli/Hangul_M46.bmp","188","image-keyboard-response","115","278824","0.0-8.0-1.1","test",",","",",","",""
"null","<div style=""color:white; font-size:60px;"">+</div>","null","html-keyboard-response","116","279826","0.0-8.0-0.2","fixation","","","","",""
"1821.9850000023143","Stimuli/Hangul_F28.bmp","190","image-keyboard-response","117","281648","0.0-8.0-1.2","test",".","",".","",""
"null","<div style=""color:white; font-size:60px;"">+</div>","null","html-keyboard-response","118","282650","0.0-8.0-0.3","fixation","","","","",""
"1709.4599999982165","Stimuli/Hangul_F34.bmp","190","image-keyboard-response","119","284360","0.0-8.0-1.3","test",".","",".","",""
"null","<div style=""color:white; font-size:60px;"">+</div>","null","html-keyboard-response","120","285362","0.0-8.0-0.4","fixation","","","","",""
"2293.6999999947147","Stimuli/Hangul_F31.bmp","190","image-keyboard-response","121","287656","0.0-8.0-1.4","test",".","",".","",""
"null","<div style=""color:white; font-size:60px;"">+</div>","null","html-keyboard-response","122","288658","0.0-8.0-0.5","fixation","","","","",""
"1685.1900000037858","Stimuli/Hangul_F39.bmp","190","image-keyboard-response","123","290344","0.0-8.0-1.5","test",".","",".","",""
"null","<div style=""color:white; font-size:60px;"">+</div>","null","html-keyboard-response","124","291345","0.0-8.0-0.6","fixation","","","","",""
"1766.8199999898206","Stimuli/Hangul_F49.bmp","188","image-keyboard-response","125","293113","0.0-8.0-1.6","test",".","",",","",""
"null","<div style=""color:white; font-size:60px;"">+</div>","null","html-keyboard-response","126","294115","0.0-8.0-0.7","fixation","","","","",""
"2196.3700000051176","Stimuli/Hangul_M48.bmp","188","image-keyboard-response","127","296312","0.0-8.0-1.7","test",",","",",","",""
"null","<div style=""color:white; font-size:60px;"">+</div>","null","html-keyboard-response","128","297313","0.0-8.0-0.8","fixation","","","","",""
"2158.0099999991944","Stimuli/Hangul_M29.bmp","190","image-keyboard-response","129","299472","0.0-8.0-1.8","test",",","",".","",""
"null","<div style=""color:white; font-size:60px;"">+</div>","null","html-keyboard-response","130","300473","0.0-8.0-0.9","fixation","","","","",""
"1902.4400000052992","Stimuli/Hangul_F41.bmp","190","image-keyboard-response","131","302376","0.0-8.0-1.9","test",".","",".","",""
"null","<div style=""color:white; font-size:60px;"">+</div>","null","html-keyboard-response","132","303378","0.0-8.0-0.10","fixation","","","","",""
"1862.0000000082655","Stimuli/Hangul_F45.bmp","190","image-keyboard-response","133","305240","0.0-8.0-1.10","test",".","",".","",""
"null","<div style=""color:white; font-size:60px;"">+</div>","null","html-keyboard-response","134","306242","0.0-8.0-0.11","fixation","","","","",""
"1829.1750000062166","Stimuli/Hangul_M27.bmp","188","image-keyboard-response","135","308072","0.0-8.0-1.11","test",",","",",","",""
"null","<div style=""color:white; font-size:60px;"">+</div>","null","html-keyboard-response","136","309073","0.0-8.0-0.12","fixation","","","","",""
"1782.5750000047265","Stimuli/Hangul_F32.bmp","190","image-keyboard-response","137","310856","0.0-8.0-1.12","test",".","",".","",""
"null","<div style=""color:white; font-size:60px;"">+</div>","null","html-keyboard-response","138","311858","0.0-8.0-0.13","fixation","","","","",""
"1925.1100000110455","Stimuli/Hangul_F42.bmp","190","image-keyboard-response","139","313784","0.0-8.0-1.13","test",".","",".","",""
"null","<div style=""color:white; font-size:60px;"">+</div>","null","html-keyboard-response","140","314786","0.0-8.0-0.14","fixation","","","","",""
"2365.6499999924563","Stimuli/Hangul_F40.bmp","188","image-keyboard-response","141","317153","0.0-8.0-1.14","test",".","",",","",""
"null","<div style=""color:white; font-size:60px;"">+</div>","null","html-keyboard-response","142","318153","0.0-8.0-0.15","fixation","","","","",""
"1973.4150000003865","Stimuli/Hangul_M43.bmp","188","image-keyboard-response","143","320128","0.0-8.0-1.15","test",",","",",","",""
"null","<div style=""color:white; font-size:60px;"">+</div>","null","html-keyboard-response","144","321129","0.0-8.0-0.16","fixation","","","","",""
"1886.1150000011548","Stimuli/Hangul_M36.bmp","188","image-keyboard-response","145","323016","0.0-8.0-1.16","test",",","",",","",""
"null","<div style=""color:white; font-size:60px;"">+</div>","null","html-keyboard-response","146","324017","0.0-8.0-0.17","fixation","","","","",""
"1789.8350000032224","Stimuli/Hangul_F37.bmp","190","image-keyboard-response","147","325808","0.0-8.0-1.17","test",".","",".","",""
"null","<div style=""color:white; font-size:60px;"">+</div>","null","html-keyboard-response","148","326809","0.0-8.0-0.18","fixation","","","","",""
"2190.9149999992223","Stimuli/Hangul_M26.bmp","188","image-keyboard-response","149","329000","0.0-8.0-1.18","test",",","",",","",""
"null","<div style=""color:white; font-size:60px;"">+</div>","null","html-keyboard-response","150","330002","0.0-8.0-0.19","fixation","","","","",""
"1837.3500000016065","Stimuli/Hangul_M33.bmp","188","image-keyboard-response","151","331840","0.0-8.0-1.19","test",",","",",","",""
"null","<div style=""color:white; font-size:60px;"">+</div>","null","html-keyboard-response","152","332842","0.0-8.0-0.20","fixation","","","","",""
"1789.0599999955157","Stimuli/Hangul_F44.bmp","190","image-keyboard-response","153","334632","0.0-8.0-1.20","test",".","",".","",""
"null","<div style=""color:white; font-size:60px;"">+</div>","null","html-keyboard-response","154","335634","0.0-8.0-0.21","fixation","","","","",""
"2468.735000002198","Stimuli/Hangul_F27.bmp","190","image-keyboard-response","155","338104","0.0-8.0-1.21","test",".","",".","",""
"null","<div style=""color:white; font-size:60px;"">+</div>","null","html-keyboard-response","156","339105","0.0-8.0-0.22","fixation","","","","",""
"1814.8700000019744","Stimuli/Hangul_M44.bmp","188","image-keyboard-response","157","340920","0.0-8.0-1.22","test",",","",",","",""
"null","<div style=""color:white; font-size:60px;"">+</div>","null","html-keyboard-response","158","341922","0.0-8.0-0.23","fixation","","","","",""
"1765.384999991511","Stimuli/Hangul_F25.bmp","188","image-keyboard-response","159","343688","0.0-8.0-1.23","test",".","",",","",""
"null","<div style=""color:white; font-size:60px;"">+</div>","null","html-keyboard-response","160","344690","0.0-8.0-0.24","fixation","","","","",""
"1684.94500000088","Stimuli/Hangul_F30.bmp","190","image-keyboard-response","161","346376","0.0-8.0-1.24","test",".","",".","",""
"null","<div style=""color:white; font-size:60px;"">+</div>","null","html-keyboard-response","162","347377","0.0-8.0-0.25","fixation","","","","",""
"2398.574999999255","Stimuli/Hangul_M28.bmp","188","image-keyboard-response","163","349776","0.0-8.0-1.25","test",",","",",","",""
"null","<div style=""color:white; font-size:60px;"">+</div>","null","html-keyboard-response","164","350778","0.0-8.0-0.26","fixation","","","","",""
"1870.2099999936763","Stimuli/Hangul_M49.bmp","188","image-keyboard-response","165","352649","0.0-8.0-1.26","test",",","",",","",""
"null","<div style=""color:white; font-size:60px;"">+</div>","null","html-keyboard-response","166","353650","0.0-8.0-0.27","fixation","","","","",""
"1700.9549999929732","Stimuli/Hangul_F35.bmp","190","image-keyboard-response","167","355352","0.0-8.0-1.27","test",".","",".","",""
"null","<div style=""color:white; font-size:60px;"">+</div>","null","html-keyboard-response","168","356354","0.0-8.0-0.28","fixation","","","","",""
"1782.3650000063935","Stimuli/Hangul_F29.bmp","190","image-keyboard-response","169","358137","0.0-8.0-1.28","test",".","",".","",""
"null","<div style=""color:white; font-size:60px;"">+</div>","null","html-keyboard-response","170","359138","0.0-8.0-0.29","fixation","","","","",""
"2037.8849999979138","Stimuli/Hangul_M25.bmp","188","image-keyboard-response","171","361176","0.0-8.0-1.29","test",",","",",","",""
"null","<div style=""color:white; font-size:60px;"">+</div>","null","html-keyboard-response","172","362177","0.0-8.0-0.30","fixation","","","","",""
"1639.405000008992","Stimuli/Hangul_M30.bmp","188","image-keyboard-response","173","363817","0.0-8.0-1.30","test",",","",",","",""
"null","<div style=""color:white; font-size:60px;"">+</div>","null","html-keyboard-response","174","364819","0.0-8.0-0.31","fixation","","","","",""
"2589.3550000037067","Stimuli/Hangul_F46.bmp","188","image-keyboard-response","175","367409","0.0-8.0-1.31","test",".","",",","",""
"null","<div style=""color:white; font-size:60px;"">+</div>","null","html-keyboard-response","176","368410","0.0-8.0-0.32","fixation","","","","",""
"1813.6750000121538","Stimuli/Hangul_F26.bmp","188","image-keyboard-response","177","370224","0.0-8.0-1.32","test",".","",",","",""
"null","<div style=""color:white; font-size:60px;"">+</div>","null","html-keyboard-response","178","371225","0.0-8.0-0.33","fixation","","","","",""
"3479.364999991958","Stimuli/Hangul_M31.bmp","188","image-keyboard-response","179","374705","0.0-8.0-1.33","test",",","",",","",""
"null","<div style=""color:white; font-size:60px;"">+</div>","null","html-keyboard-response","180","375706","0.0-8.0-0.34","fixation","","","","",""
"1853.224999998929","Stimuli/Hangul_M37.bmp","188","image-keyboard-response","181","377560","0.0-8.0-1.34","test",",","",",","",""
"null","<div style=""color:white; font-size:60px;"">+</div>","null","html-keyboard-response","182","378562","0.0-8.0-0.35","fixation","","","","",""
"1853.3150000002934","Stimuli/Hangul_M40.bmp","188","image-keyboard-response","183","380416","0.0-8.0-1.35","test",",","",",","",""
"null","<div style=""color:white; font-size:60px;"">+</div>","null","html-keyboard-response","184","381418","0.0-8.0-0.36","fixation","","","","",""
"6526.79000000353","Stimuli/Hangul_F43.bmp","190","image-keyboard-response","185","387945","0.0-8.0-1.36","test",".","",".","",""
"null","<div style=""color:white; font-size:60px;"">+</div>","null","html-keyboard-response","186","388947","0.0-8.0-0.37","fixation","","","","",""
"2885.11999999173","Stimuli/Hangul_M32.bmp","188","image-keyboard-response","187","391833","0.0-8.0-1.37","test",",","",",","",""
"null","<div style=""color:white; font-size:60px;"">+</div>","null","html-keyboard-response","188","392834","0.0-8.0-0.38","fixation","","","","",""
"1717.7599999995437","Stimuli/Hangul_F33.bmp","190","image-keyboard-response","189","394552","0.0-8.0-1.38","test",".","",".","",""
"null","<div style=""color:white; font-size:60px;"">+</div>","null","html-keyboard-response","190","395554","0.0-8.0-0.39","fixation","","","","",""
"2365.2000000001863","Stimuli/Hangul_M38.bmp","188","image-keyboard-response","191","397920","0.0-8.0-1.39","test",",","",",","",""
"null","<div style=""color:white; font-size:60px;"">+</div>","null","html-keyboard-response","192","398922","0.0-8.0-0.40","fixation","","","","",""
"2102.59500000393","Stimuli/Hangul_M47.bmp","188","image-keyboard-response","193","401025","0.0-8.0-1.40","test",",","",",","",""
"null","<div style=""color:white; font-size:60px;"">+</div>","null","html-keyboard-response","194","402026","0.0-8.0-0.41","fixation","","","","",""
"2181.6450000042096","Stimuli/Hangul_F38.bmp","188","image-keyboard-response","195","404209","0.0-8.0-1.41","test",".","",",","",""
"null","<div style=""color:white; font-size:60px;"">+</div>","null","html-keyboard-response","196","405210","0.0-8.0-0.42","fixation","","","","",""
"2141.6599999938626","Stimuli/Hangul_M45.bmp","188","image-keyboard-response","197","407352","0.0-8.0-1.42","test",",","",",","",""
"null","<div style=""color:white; font-size:60px;"">+</div>","null","html-keyboard-response","198","408353","0.0-8.0-0.43","fixation","","","","",""
"1974.4649999920512","Stimuli/Hangul_M39.bmp","188","image-keyboard-response","199","410328","0.0-8.0-1.43","test",",","",",","",""
"null","<div style=""color:white; font-size:60px;"">+</div>","null","html-keyboard-response","200","411330","0.0-8.0-0.44","fixation","","","","",""
"2070.049999994808","Stimuli/Hangul_M35.bmp","190","image-keyboard-response","201","413401","0.0-8.0-1.44","test",",","",".","",""
"null","<div style=""color:white; font-size:60px;"">+</div>","null","html-keyboard-response","202","414402","0.0-8.0-0.45","fixation","","","","",""
"1853.335000007064","Stimuli/Hangul_F47.bmp","188","image-keyboard-response","203","416256","0.0-8.0-1.45","test",".","",",","",""
"null","<div style=""color:white; font-size:60px;"">+</div>","null","html-keyboard-response","204","417257","0.0-8.0-0.46","fixation","","","","",""
"1790.5100000061793","Stimuli/Hangul_M42.bmp","188","image-keyboard-response","205","419048","0.0-8.0-1.46","test",",","",",","",""
"null","<div style=""color:white; font-size:60px;"">+</div>","null","html-keyboard-response","206","420050","0.0-8.0-0.47","fixation","","","","",""
"1942.0799999934388","Stimuli/Hangul_F36.bmp","188","image-keyboard-response","207","421992","0.0-8.0-1.47","test",".","",",","",""
"null","<div style=""color:white; font-size:60px;"">+</div>","null","html-keyboard-response","208","422993","0.0-8.0-0.48","fixation","","","","",""
"2158.609999998589","Stimuli/Hangul_F48.bmp","188","image-keyboard-response","209","425153","0.0-8.0-1.48","test",".","",",","",""
"null","<div style=""color:white; font-size:60px;"">+</div>","null","html-keyboard-response","210","426154","0.0-8.0-0.49","fixation","","","","",""
"2373.894999996992","Stimuli/Hangul_M34.bmp","188","image-keyboard-response","211","428528","0.0-8.0-1.49","test",",","",",","",""
"2255.3699999989476","<p style=""color:white;"">Half way there! Please take a moment to rest.</p> <p style=""color:white;"">When you are ready to continue with block 3 of 4, press the space bar.</p> ","32","html-keyboard-response","212","430784","0.0-9.0","","","","","",""
"null","<div style=""color:white; font-size:60px;"">+</div>","null","html-keyboard-response","213","433786","0.0-10.0-0.0","fixation","","","","",""
"3421.5600000025006","Stimuli/Hangul_F56.bmp","190","image-keyboard-response","214","437209","0.0-10.0-1.0","test",".","",".","",""
"null","<div style=""color:white; font-size:60px;"">+</div>","null","html-keyboard-response","215","438211","0.0-10.0-0.1","fixation","","","","",""
"3340.3249999973923","Stimuli/Hangul_F70.bmp","190","image-keyboard-response","216","441552","0.0-10.0-1.1","test",".","",".","",""
"null","<div style=""color:white; font-size:60px;"">+</div>","null","html-keyboard-response","217","442553","0.0-10.0-0.2","fixation","","","","",""
"1950.6600000022445","Stimuli/Hangul_F59.bmp","190","image-keyboard-response","218","444504","0.0-10.0-1.2","test",".","",".","",""
"null","<div style=""color:white; font-size:60px;"">+</div>","null","html-keyboard-response","219","445506","0.0-10.0-0.3","fixation","","","","",""
"1741.9950000039535","Stimuli/Hangul_M53.bmp","188","image-keyboard-response","220","447249","0.0-10.0-1.3","test",",","",",","",""
"null","<div style=""color:white; font-size:60px;"">+</div>","null","html-keyboard-response","221","448250","0.0-10.0-0.4","fixation","","","","",""
"2445.269999996526","Stimuli/Hangul_M73.bmp","188","image-keyboard-response","222","450696","0.0-10.0-1.4","test",",","",",","",""
"null","<div style=""color:white; font-size:60px;"">+</div>","null","html-keyboard-response","223","451698","0.0-10.0-0.5","fixation","","","","",""
"1677.204999999958","Stimuli/Hangul_F74.bmp","190","image-keyboard-response","224","453376","0.0-10.0-1.5","test",".","",".","",""
"null","<div style=""color:white; font-size:60px;"">+</div>","null","html-keyboard-response","225","454377","0.0-10.0-0.6","fixation","","","","",""
"1757.9450000048382","Stimuli/Hangul_F67.bmp","188","image-keyboard-response","226","456136","0.0-10.0-1.6","test",".","",",","",""
"null","<div style=""color:white; font-size:60px;"">+</div>","null","html-keyboard-response","227","457137","0.0-10.0-0.7","fixation","","","","",""
"3478.559999988647","Stimuli/Hangul_M70.bmp","190","image-keyboard-response","228","460616","0.0-10.0-1.7","test",",","",".","",""
"null","<div style=""color:white; font-size:60px;"">+</div>","null","html-keyboard-response","229","461618","0.0-10.0-0.8","fixation","","","","",""
"2165.6650000077207","Stimuli/Hangul_M54.bmp","188","image-keyboard-response","230","463784","0.0-10.0-1.8","test",",","",",","",""
"null","<div style=""color:white; font-size:60px;"">+</div>","null","html-keyboard-response","231","464785","0.0-10.0-0.9","fixation","","","","",""
"1806.2249999929918","Stimuli/Hangul_M74.bmp","188","image-keyboard-response","232","466592","0.0-10.0-1.9","test",",","",",","",""
"null","<div style=""color:white; font-size:60px;"">+</div>","null","html-keyboard-response","233","467594","0.0-10.0-0.10","fixation","","","","",""
"1942.0700000046054","Stimuli/Hangul_M71.bmp","188","image-keyboard-response","234","469536","0.0-10.0-1.10","test",",","",",","",""
"null","<div style=""color:white; font-size:60px;"">+</div>","null","html-keyboard-response","235","470538","0.0-10.0-0.11","fixation","","","","",""
"1790.2500000054715","Stimuli/Hangul_M65.bmp","188","image-keyboard-response","236","472329","0.0-10.0-1.11","test",",","",",","",""
"null","<div style=""color:white; font-size:60px;"">+</div>","null","html-keyboard-response","237","473331","0.0-10.0-0.12","fixation","","","","",""
"1757.3750000010477","Stimuli/Hangul_M72.bmp","188","image-keyboard-response","238","475088","0.0-10.0-1.12","test",",","",",","",""
"null","<div style=""color:white; font-size:60px;"">+</div>","null","html-keyboard-response","239","476090","0.0-10.0-0.13","fixation","","","","",""
"2237.6899999944726","Stimuli/Hangul_F55.bmp","190","image-keyboard-response","240","478329","0.0-10.0-1.13","test",".","",".","",""
"null","<div style=""color:white; font-size:60px;"">+</div>","null","html-keyboard-response","241","479330","0.0-10.0-0.14","fixation","","","","",""
"2077.8250000003027","Stimuli/Hangul_F52.bmp","188","image-keyboard-response","242","481408","0.0-10.0-1.14","test",".","",",","",""
"null","<div style=""color:white; font-size:60px;"">+</div>","null","html-keyboard-response","243","482410","0.0-10.0-0.15","fixation","","","","",""
"1709.7800000046846","Stimuli/Hangul_M57.bmp","188","image-keyboard-response","244","484121","0.0-10.0-1.15","test",",","",",","",""
"null","<div style=""color:white; font-size:60px;"">+</div>","null","html-keyboard-response","245","485122","0.0-10.0-0.16","fixation","","","","",""
"1685.330000007525","Stimuli/Hangul_F57.bmp","190","image-keyboard-response","246","486808","0.0-10.0-1.16","test",".","",".","",""
"null","<div style=""color:white; font-size:60px;"">+</div>","null","html-keyboard-response","247","487810","0.0-10.0-0.17","fixation","","","","",""
"1822.2050000040326","Stimuli/Hangul_M56.bmp","188","image-keyboard-response","248","489633","0.0-10.0-1.17","test",",","",",","",""
"null","<div style=""color:white; font-size:60px;"">+</div>","null","html-keyboard-response","249","490634","0.0-10.0-0.18","fixation","","","","",""
"2390.0100000028033","Stimuli/Hangul_M64.bmp","190","image-keyboard-response","250","493025","0.0-10.0-1.18","test",",","",".","",""
"null","<div style=""color:white; font-size:60px;"">+</div>","null","html-keyboard-response","251","494026","0.0-10.0-0.19","fixation","","","","",""
"1622.2750000015367","Stimuli/Hangul_M67.bmp","190","image-keyboard-response","252","495649","0.0-10.0-1.19","test",",","",".","",""
"null","<div style=""color:white; font-size:60px;"">+</div>","null","html-keyboard-response","253","496651","0.0-10.0-0.20","fixation","","","","",""
"1644.4999999948777","Stimuli/Hangul_F73.bmp","190","image-keyboard-response","254","498296","0.0-10.0-1.20","test",".","",".","",""
"null","<div style=""color:white; font-size:60px;"">+</div>","null","html-keyboard-response","255","499298","0.0-10.0-0.21","fixation","","","","",""
"1742.27499999688","Stimuli/Hangul_M51.bmp","188","image-keyboard-response","256","501040","0.0-10.0-1.21","test",",","",",","",""
"null","<div style=""color:white; font-size:60px;"">+</div>","null","html-keyboard-response","257","502042","0.0-10.0-0.22","fixation","","","","",""
"2261.805000001914","Stimuli/Hangul_M52.bmp","188","image-keyboard-response","258","504305","0.0-10.0-1.22","test",",","",",","",""
"null","<div style=""color:white; font-size:60px;"">+</div>","null","html-keyboard-response","259","505306","0.0-10.0-0.23","fixation","","","","",""
"1638.5750000044936","Stimuli/Hangul_F51.bmp","190","image-keyboard-response","260","506945","0.0-10.0-1.23","test",".","",".","",""
"null","<div style=""color:white; font-size:60px;"">+</div>","null","html-keyboard-response","261","507946","0.0-10.0-0.24","fixation","","","","",""
"3165.64500000095","Stimuli/Hangul_F62.bmp","188","image-keyboard-response","262","511112","0.0-10.0-1.24","test",".","",",","",""
"null","<div style=""color:white; font-size:60px;"">+</div>","null","html-keyboard-response","263","512114","0.0-10.0-0.25","fixation","","","","",""
"2437.739999993937","Stimuli/Hangul_F50.bmp","188","image-keyboard-response","264","514552","0.0-10.0-1.25","test",".","",",","",""
"null","<div style=""color:white; font-size:60px;"">+</div>","null","html-keyboard-response","265","515555","0.0-10.0-0.26","fixation","","","","",""
"2005.6150000018533","Stimuli/Hangul_M68.bmp","188","image-keyboard-response","266","517561","0.0-10.0-1.26","test",",","",",","",""
"null","<div style=""color:white; font-size:60px;"">+</div>","null","html-keyboard-response","267","518562","0.0-10.0-0.27","fixation","","","","",""
"2189.7750000061933","Stimuli/Hangul_M58.bmp","188","image-keyboard-response","268","520752","0.0-10.0-1.27","test",",","",",","",""
"null","<div style=""color:white; font-size:60px;"">+</div>","null","html-keyboard-response","269","521754","0.0-10.0-0.28","fixation","","","","",""
"1621.740000002319","Stimuli/Hangul_F69.bmp","190","image-keyboard-response","270","523376","0.0-10.0-1.28","test",".","",".","",""
"null","<div style=""color:white; font-size:60px;"">+</div>","null","html-keyboard-response","271","524378","0.0-10.0-0.29","fixation","","","","",""
"1957.620000001043","Stimuli/Hangul_M66.bmp","188","image-keyboard-response","272","526336","0.0-10.0-1.29","test",",","",",","",""
"null","<div style=""color:white; font-size:60px;"">+</div>","null","html-keyboard-response","273","527338","0.0-10.0-0.30","fixation","","","","",""
"1909.8899999953574","Stimuli/Hangul_M61.bmp","188","image-keyboard-response","274","529249","0.0-10.0-1.30","test",",","",",","",""
"null","<div style=""color:white; font-size:60px;"">+</div>","null","html-keyboard-response","275","530250","0.0-10.0-0.31","fixation","","","","",""
"1909.6949999948265","Stimuli/Hangul_F68.bmp","190","image-keyboard-response","276","532160","0.0-10.0-1.31","test",".","",".","",""
"null","<div style=""color:white; font-size:60px;"">+</div>","null","html-keyboard-response","277","533162","0.0-10.0-0.32","fixation","","","","",""
"1788.8999999995576","Stimuli/Hangul_M60.bmp","188","image-keyboard-response","278","534952","0.0-10.0-1.32","test",",","",",","",""
"null","<div style=""color:white; font-size:60px;"">+</div>","null","html-keyboard-response","279","535953","0.0-10.0-0.33","fixation","","","","",""
"1878.5400000051595","Stimuli/Hangul_F65.bmp","188","image-keyboard-response","280","537832","0.0-10.0-1.33","test",".","",",","",""
"null","<div style=""color:white; font-size:60px;"">+</div>","null","html-keyboard-response","281","538834","0.0-10.0-0.34","fixation","","","","",""
"1942.8199999965727","Stimuli/Hangul_F54.bmp","188","image-keyboard-response","282","540777","0.0-10.0-1.34","test",".","",",","",""
"null","<div style=""color:white; font-size:60px;"">+</div>","null","html-keyboard-response","283","541779","0.0-10.0-0.35","fixation","","","","",""
"1669.2449999973178","Stimuli/Hangul_F71.bmp","190","image-keyboard-response","284","543448","0.0-10.0-1.35","test",".","",".","",""
"null","<div style=""color:white; font-size:60px;"">+</div>","null","html-keyboard-response","285","544449","0.0-10.0-0.36","fixation","","","","",""
"1638.2400000002235","Stimuli/Hangul_F60.bmp","190","image-keyboard-response","286","546088","0.0-10.0-1.36","test",".","",".","",""
"null","<div style=""color:white; font-size:60px;"">+</div>","null","html-keyboard-response","287","547090","0.0-10.0-0.37","fixation","","","","",""
"1709.7750000102678","Stimuli/Hangul_F63.bmp","188","image-keyboard-response","288","548800","0.0-10.0-1.37","test",".","",",","",""
"null","<div style=""color:white; font-size:60px;"">+</div>","null","html-keyboard-response","289","549802","0.0-10.0-0.38","fixation","","","","",""
"2485.9750000032363","Stimuli/Hangul_M62.bmp","188","image-keyboard-response","290","552289","0.0-10.0-1.38","test",",","",",","",""
"null","<div style=""color:white; font-size:60px;"">+</div>","null","html-keyboard-response","291","553290","0.0-10.0-0.39","fixation","","","","",""
"2021.134999988135","Stimuli/Hangul_M59.bmp","188","image-keyboard-response","292","555312","0.0-10.0-1.39","test",",","",",","",""
"null","<div style=""color:white; font-size:60px;"">+</div>","null","html-keyboard-response","293","556314","0.0-10.0-0.40","fixation","","","","",""
"1965.4799999989336","Stimuli/Hangul_M63.bmp","188","image-keyboard-response","294","558280","0.0-10.0-1.40","test",",","",",","",""
"null","<div style=""color:white; font-size:60px;"">+</div>","null","html-keyboard-response","295","559282","0.0-10.0-0.41","fixation","","","","",""
"1989.4700000004377","Stimuli/Hangul_F61.bmp","190","image-keyboard-response","296","561272","0.0-10.0-1.41","test",".","",".","",""
"null","<div style=""color:white; font-size:60px;"">+</div>","null","html-keyboard-response","297","562273","0.0-10.0-0.42","fixation","","","","",""
"1805.7600000029197","Stimuli/Hangul_F72.bmp","190","image-keyboard-response","298","564081","0.0-10.0-1.42","test",".","",".","",""
"null","<div style=""color:white; font-size:60px;"">+</div>","null","html-keyboard-response","299","565082","0.0-10.0-0.43","fixation","","","","",""
"1917.184999998426","Stimuli/Hangul_F64.bmp","190","image-keyboard-response","300","567000","0.0-10.0-1.43","test",".","",".","",""
"null","<div style=""color:white; font-size:60px;"">+</div>","null","html-keyboard-response","301","568002","0.0-10.0-0.44","fixation","","","","",""
"2941.7649999959394","Stimuli/Hangul_F66.bmp","190","image-keyboard-response","302","570944","0.0-10.0-1.44","test",".","",".","",""
"null","<div style=""color:white; font-size:60px;"">+</div>","null","html-keyboard-response","303","571946","0.0-10.0-0.45","fixation","","","","",""
"2029.3949999904726","Stimuli/Hangul_M55.bmp","188","image-keyboard-response","304","573976","0.0-10.0-1.45","test",",","",",","",""
"null","<div style=""color:white; font-size:60px;"">+</div>","null","html-keyboard-response","305","574978","0.0-10.0-0.46","fixation","","","","",""
"2038.3299999957671","Stimuli/Hangul_M50.bmp","190","image-keyboard-response","306","577017","0.0-10.0-1.46","test",",","",".","",""
"null","<div style=""color:white; font-size:60px;"">+</div>","null","html-keyboard-response","307","578018","0.0-10.0-0.47","fixation","","","","",""
"5237.27999998664","Stimuli/Hangul_F58.bmp","190","image-keyboard-response","308","583256","0.0-10.0-1.47","test",".","",".","",""
"null","<div style=""color:white; font-size:60px;"">+</div>","null","html-keyboard-response","309","584258","0.0-10.0-0.48","fixation","","","","",""
"2453.444999991916","Stimuli/Hangul_F53.bmp","190","image-keyboard-response","310","586712","0.0-10.0-1.48","test",".","",".","",""
"null","<div style=""color:white; font-size:60px;"">+</div>","null","html-keyboard-response","311","587713","0.0-10.0-0.49","fixation","","","","",""
"1895.2799999970011","Stimuli/Hangul_M69.bmp","188","image-keyboard-response","312","589609","0.0-10.0-1.49","test",",","",",","",""
"1358.6300000024494","<p style=""color:white;"">One more block to go! Please take a moment to rest.</p> <p style=""color:white;"">When you are ready to continue with block 4 of 4, press the space bar.</p> ","32","html-keyboard-response","313","590968","0.0-11.0","","","","","",""
"null","<div style=""color:white; font-size:60px;"">+</div>","null","html-keyboard-response","314","593970","0.0-12.0-0.0","fixation","","","","",""
"1901.0850000049686","Stimuli/Hangul_M96.bmp","188","image-keyboard-response","315","595872","0.0-12.0-1.0","test",",","",",","",""
"null","<div style=""color:white; font-size:60px;"">+</div>","null","html-keyboard-response","316","596873","0.0-12.0-0.1","fixation","","","","",""
"2270.619999995688","Stimuli/Hangul_M85.bmp","190","image-keyboard-response","317","599144","0.0-12.0-1.1","test",",","",".","",""
"null","<div style=""color:white; font-size:60px;"">+</div>","null","html-keyboard-response","318","600145","0.0-12.0-0.2","fixation","","","","",""
"1733.989999993355","Stimuli/Hangul_F88.bmp","190","image-keyboard-response","319","601880","0.0-12.0-1.2","test",".","",".","",""
"null","<div style=""color:white; font-size:60px;"">+</div>","null","html-keyboard-response","320","602882","0.0-12.0-0.3","fixation","","","","",""
"1773.0850000079954","Stimuli/Hangul_M75.bmp","188","image-keyboard-response","321","604656","0.0-12.0-1.3","test",",","",",","",""
"null","<div style=""color:white; font-size:60px;"">+</div>","null","html-keyboard-response","322","605657","0.0-12.0-0.4","fixation","","","","",""
"1998.4999999869615","Stimuli/Hangul_F93.bmp","190","image-keyboard-response","323","607656","0.0-12.0-1.4","test",".","",".","",""
"null","<div style=""color:white; font-size:60px;"">+</div>","null","html-keyboard-response","324","608657","0.0-12.0-0.5","fixation","","","","",""
"1614.2850000032922","Stimuli/Hangul_F89.bmp","190","image-keyboard-response","325","610272","0.0-12.0-1.5","test",".","",".","",""
"null","<div style=""color:white; font-size:60px;"">+</div>","null","html-keyboard-response","326","611273","0.0-12.0-0.6","fixation","","","","",""
"1622.8299999929732","Stimuli/Hangul_F81.bmp","190","image-keyboard-response","327","612896","0.0-12.0-1.6","test",".","",".","",""
"null","<div style=""color:white; font-size:60px;"">+</div>","null","html-keyboard-response","328","613898","0.0-12.0-0.7","fixation","","","","",""
"2525.389999995241","Stimuli/Hangul_M93.bmp","188","image-keyboard-response","329","616424","0.0-12.0-1.7","test",",","",",","",""
"null","<div style=""color:white; font-size:60px;"">+</div>","null","html-keyboard-response","330","617425","0.0-12.0-0.8","fixation","","","","",""
"1678.5450000024866","Stimuli/Hangul_F79.bmp","190","image-keyboard-response","331","619104","0.0-12.0-1.8","test",".","",".","",""
"null","<div style=""color:white; font-size:60px;"">+</div>","null","html-keyboard-response","332","620105","0.0-12.0-0.9","fixation","","","","",""
"1797.8950000106124","Stimuli/Hangul_F76.bmp","190","image-keyboard-response","333","621904","0.0-12.0-1.9","test",".","",".","",""
"null","<div style=""color:white; font-size:60px;"">+</div>","null","html-keyboard-response","334","622906","0.0-12.0-0.10","fixation","","","","",""
"1685.8749999955762","Stimuli/Hangul_F94.bmp","190","image-keyboard-response","335","624592","0.0-12.0-1.10","test",".","",".","",""
"null","<div style=""color:white; font-size:60px;"">+</div>","null","html-keyboard-response","336","625594","0.0-12.0-0.11","fixation","","","","",""
"1869.2650000011781","Stimuli/Hangul_F86.bmp","190","image-keyboard-response","337","627464","0.0-12.0-1.11","test",".","",".","",""
"null","<div style=""color:white; font-size:60px;"">+</div>","null","html-keyboard-response","338","628466","0.0-12.0-0.12","fixation","","","","",""
"1661.6349999967497","Stimuli/Hangul_F92.bmp","190","image-keyboard-response","339","630128","0.0-12.0-1.12","test",".","",".","",""
"null","<div style=""color:white; font-size:60px;"">+</div>","null","html-keyboard-response","340","631129","0.0-12.0-0.13","fixation","","","","",""
"1766.2600000039674","Stimuli/Hangul_M87.bmp","190","image-keyboard-response","341","632896","0.0-12.0-1.13","test",",","",".","",""
"null","<div style=""color:white; font-size:60px;"">+</div>","null","html-keyboard-response","342","633897","0.0-12.0-0.14","fixation","","","","",""
"2319.2850000050385","Stimuli/Hangul_F98.bmp","188","image-keyboard-response","343","636217","0.0-12.0-1.14","test",".","",",","",""
"null","<div style=""color:white; font-size:60px;"">+</div>","null","html-keyboard-response","344","637219","0.0-12.0-0.15","fixation","","","","",""
"2332.345000002533","Stimuli/Hangul_F96.bmp","190","image-keyboard-response","345","639552","0.0-12.0-1.15","test",".","",".","",""
"null","<div style=""color:white; font-size:60px;"">+</div>","null","html-keyboard-response","346","640553","0.0-12.0-0.16","fixation","","","","",""
"1854.3050000007497","Stimuli/Hangul_M98.bmp","188","image-keyboard-response","347","642408","0.0-12.0-1.16","test",",","",",","",""
"null","<div style=""color:white; font-size:60px;"">+</div>","null","html-keyboard-response","348","643410","0.0-12.0-0.17","fixation","","","","",""
"1741.1299999948824","Stimuli/Hangul_M97.bmp","188","image-keyboard-response","349","645152","0.0-12.0-1.17","test",",","",",","",""
"null","<div style=""color:white; font-size:60px;"">+</div>","null","html-keyboard-response","350","646153","0.0-12.0-0.18","fixation","","","","",""
"1718.8749999913853","Stimuli/Hangul_M84.bmp","190","image-keyboard-response","351","647872","0.0-12.0-1.18","test",",","",".","",""
"null","<div style=""color:white; font-size:60px;"">+</div>","null","html-keyboard-response","352","648874","0.0-12.0-0.19","fixation","","","","",""
"1573.12999998976","Stimuli/Hangul_F75.bmp","190","image-keyboard-response","353","650448","0.0-12.0-1.19","test",".","",".","",""
"null","<div style=""color:white; font-size:60px;"">+</div>","null","html-keyboard-response","354","651449","0.0-12.0-0.20","fixation","","","","",""
"1765.9249999996973","Stimuli/Hangul_F91.bmp","188","image-keyboard-response","355","653216","0.0-12.0-1.20","test",".","",",","",""
"null","<div style=""color:white; font-size:60px;"">+</div>","null","html-keyboard-response","356","654218","0.0-12.0-0.21","fixation","","","","",""
"1813.6749999976018","Stimuli/Hangul_M83.bmp","188","image-keyboard-response","357","656032","0.0-12.0-1.21","test",",","",",","",""
"null","<div style=""color:white; font-size:60px;"">+</div>","null","html-keyboard-response","358","657034","0.0-12.0-0.22","fixation","","","","",""
"1886.2450000015087","Stimuli/Hangul_M92.bmp","188","image-keyboard-response","359","658921","0.0-12.0-1.22","test",",","",",","",""
"null","<div style=""color:white; font-size:60px;"">+</div>","null","html-keyboard-response","360","659922","0.0-12.0-0.23","fixation","","","","",""
"1725.814999997965","Stimuli/Hangul_M91.bmp","188","image-keyboard-response","361","661648","0.0-12.0-1.23","test",",","",",","",""
"null","<div style=""color:white; font-size:60px;"">+</div>","null","html-keyboard-response","362","662650","0.0-12.0-0.24","fixation","","","","",""
"1565.5750000005355","Stimuli/Hangul_F97.bmp","190","image-keyboard-response","363","664216","0.0-12.0-1.24","test",".","",".","",""
"null","<div style=""color:white; font-size:60px;"">+</div>","null","html-keyboard-response","364","665218","0.0-12.0-0.25","fixation","","","","",""
"1765.6050000077812","Stimuli/Hangul_F99.bmp","188","image-keyboard-response","365","666984","0.0-12.0-1.25","test",".","",",","",""
"null","<div style=""color:white; font-size:60px;"">+</div>","null","html-keyboard-response","366","667986","0.0-12.0-0.26","fixation","","","","",""
"2453.9349999977276","Stimuli/Hangul_M81.bmp","188","image-keyboard-response","367","670441","0.0-12.0-1.26","test",",","",",","",""
"null","<div style=""color:white; font-size:60px;"">+</div>","null","html-keyboard-response","368","671442","0.0-12.0-0.27","fixation","","","","",""
"3165.5199999950128","Stimuli/Hangul_F90.bmp","188","image-keyboard-response","369","674609","0.0-12.0-1.27","test",".","",",","",""
"null","<div style=""color:white; font-size:60px;"">+</div>","null","html-keyboard-response","370","675611","0.0-12.0-0.28","fixation","","","","",""
"1700.5749999952968","Stimuli/Hangul_F95.bmp","190","image-keyboard-response","371","677312","0.0-12.0-1.28","test",".","",".","",""
"null","<div style=""color:white; font-size:60px;"">+</div>","null","html-keyboard-response","372","678313","0.0-12.0-0.29","fixation","","","","",""
"2439.2550000047777","Stimuli/Hangul_M95.bmp","190","image-keyboard-response","373","680753","0.0-12.0-1.29","test",",","",".","",""
"null","<div style=""color:white; font-size:60px;"">+</div>","null","html-keyboard-response","374","681755","0.0-12.0-0.30","fixation","","","","",""
"2644.669999994221","Stimuli/Hangul_M80.bmp","190","image-keyboard-response","375","684400","0.0-12.0-1.30","test",",","",".","",""
"null","<div style=""color:white; font-size:60px;"">+</div>","null","html-keyboard-response","376","685403","0.0-12.0-0.31","fixation","","","","",""
"1820.4350000014529","Stimuli/Hangul_M86.bmp","188","image-keyboard-response","377","687224","0.0-12.0-1.31","test",",","",",","",""
"null","<div style=""color:white; font-size:60px;"">+</div>","null","html-keyboard-response","378","688226","0.0-12.0-0.32","fixation","","","","",""
"2462.0600000052946","Stimuli/Hangul_M77.bmp","188","image-keyboard-response","379","690689","0.0-12.0-1.32","test",",","",",","",""
"null","<div style=""color:white; font-size:60px;"">+</div>","null","html-keyboard-response","380","691690","0.0-12.0-0.33","fixation","","","","",""
"2086.6149999928894","Stimuli/Hangul_M88.bmp","188","image-keyboard-response","381","693777","0.0-12.0-1.33","test",",","",",","",""
"null","<div style=""color:white; font-size:60px;"">+</div>","null","html-keyboard-response","382","694779","0.0-12.0-0.34","fixation","","","","",""
"1620.5499999923632","Stimuli/Hangul_F82.bmp","190","image-keyboard-response","383","696400","0.0-12.0-1.34","test",".","",".","",""
"null","<div style=""color:white; font-size:60px;"">+</div>","null","html-keyboard-response","384","697402","0.0-12.0-0.35","fixation","","","","",""
"1877.4050000065472","Stimuli/Hangul_M79.bmp","188","image-keyboard-response","385","699280","0.0-12.0-1.35","test",",","",",","",""
"null","<div style=""color:white; font-size:60px;"">+</div>","null","html-keyboard-response","386","700281","0.0-12.0-0.36","fixation","","","","",""
"1942.6499999972293","Stimuli/Hangul_F83.bmp","190","image-keyboard-response","387","702224","0.0-12.0-1.36","test",".","",".","",""
"null","<div style=""color:white; font-size:60px;"">+</div>","null","html-keyboard-response","388","703225","0.0-12.0-0.37","fixation","","","","",""
"1903.0000000057044","Stimuli/Hangul_F85.bmp","190","image-keyboard-response","389","705129","0.0-12.0-1.37","test",".","",".","",""
"null","<div style=""color:white; font-size:60px;"">+</div>","null","html-keyboard-response","390","706131","0.0-12.0-0.38","fixation","","","","",""
"1877.2900000039954","Stimuli/Hangul_M99.bmp","188","image-keyboard-response","391","708009","0.0-12.0-1.38","test",",","",",","",""
"null","<div style=""color:white; font-size:60px;"">+</div>","null","html-keyboard-response","392","709010","0.0-12.0-0.39","fixation","","","","",""
"1805.354999989504","Stimuli/Hangul_F80.bmp","190","image-keyboard-response","393","710816","0.0-12.0-1.39","test",".","",".","",""
"null","<div style=""color:white; font-size:60px;"">+</div>","null","html-keyboard-response","394","711818","0.0-12.0-0.40","fixation","","","","",""
"1989.8300000058953","Stimuli/Hangul_M90.bmp","188","image-keyboard-response","395","713808","0.0-12.0-1.40","test",",","",",","",""
"null","<div style=""color:white; font-size:60px;"">+</div>","null","html-keyboard-response","396","714809","0.0-12.0-0.41","fixation","","","","",""
"3086.5199999971082","Stimuli/Hangul_M76.bmp","190","image-keyboard-response","397","717897","0.0-12.0-1.41","test",",","",".","",""
"null","<div style=""color:white; font-size:60px;"">+</div>","null","html-keyboard-response","398","718898","0.0-12.0-0.42","fixation","","","","",""
"2284.620000005816","Stimuli/Hangul_M94.bmp","188","image-keyboard-response","399","721184","0.0-12.0-1.42","test",",","",",","",""
"null","<div style=""color:white; font-size:60px;"">+</div>","null","html-keyboard-response","400","722185","0.0-12.0-0.43","fixation","","","","",""
"1902.074999990873","Stimuli/Hangul_M78.bmp","188","image-keyboard-response","401","724088","0.0-12.0-1.43","test",",","",",","",""
"null","<div style=""color:white; font-size:60px;"">+</div>","null","html-keyboard-response","402","725090","0.0-12.0-0.44","fixation","","","","",""
"1701.5700000047218","Stimuli/Hangul_F78.bmp","190","image-keyboard-response","403","726792","0.0-12.0-1.44","test",".","",".","",""
"null","<div style=""color:white; font-size:60px;"">+</div>","null","html-keyboard-response","404","727793","0.0-12.0-0.45","fixation","","","","",""
"2910.780000005616","Stimuli/Hangul_M89.bmp","188","image-keyboard-response","405","730705","0.0-12.0-1.45","test",",","",",","",""
"null","<div style=""color:white; font-size:60px;"">+</div>","null","html-keyboard-response","406","731707","0.0-12.0-0.46","fixation","","","","",""
"1772.5249999930384","Stimuli/Hangul_F77.bmp","190","image-keyboard-response","407","733480","0.0-12.0-1.46","test",".","",".","",""
"null","<div style=""color:white; font-size:60px;"">+</div>","null","html-keyboard-response","408","734481","0.0-12.0-0.47","fixation","","","","",""
"1854.1699999914272","Stimuli/Hangul_F84.bmp","190","image-keyboard-response","409","736336","0.0-12.0-1.47","test",".","",".","",""
"null","<div style=""color:white; font-size:60px;"">+</div>","null","html-keyboard-response","410","737338","0.0-12.0-0.48","fixation","","","","",""
"1725.7149999932153","Stimuli/Hangul_F87.bmp","190","image-keyboard-response","411","739064","0.0-12.0-1.48","test",".","",".","",""
"null","<div style=""color:white; font-size:60px;"">+</div>","null","html-keyboard-response","412","740066","0.0-12.0-0.49","fixation","","","","",""
"2349.9200000078417","Stimuli/Hangul_M82.bmp","188","image-keyboard-response","413","742417","0.0-12.0-1.49","test",",","",",","",""
"2198.7050000025192","<p style=""color:white;"">Phase I of the experiment is complete.</p> <p style=""color:white;"">Press the space bar to proceed to Phase II of the experiment.</p> ","32","html-keyboard-response","414","744616","0.0-13.0","","","","","",""
"34134.68499999726","<p style=""color:white;"">Now we are interested in how well you can predict patterns in the series of figures. You will be asked to predict whether the next figure in the series is more male-like or female-like. When you see the <q>Next Figure</q> prompt, press the corresponding response keys to indicate your prediction: </p><p style=""color:white;""> Male &#8594 <q>,</q> (comma)</p><p style=""color:white;""> Female &#8594 <q>.</q> (period)</p><p style=""color:white;"">The actual figure will then appear on the screen. After you see the figure, please guess the assigned gender with response keys. </p><p style=""color:white;"">As before, you will receive 2 cents for correctly classifying each figure.</p><p style=""color:white;"">Press either response keys to continue.</p>","190","html-keyboard-response","415","780752","0.0-14.0","","","","","",""
"11127.804999996442","<p style=""color:white;"">PREDICTION BONUS</p> <p style=""color:white;"">Your prediction accuracy is the total number of correct predictions you make over the 200 trials.</p> <p style=""color:white;"">In addition to the 2 cents per correct figure classification, you have the chance to receive a bonus of 40 dollars IF your accuracy is above average relative to previous participants.</p><p style=""color:white;"">If your accuracy is below average relative to previous participants, then you will not receive the 40 dollar bonus.</p><p style=""color:white;"">Press the space bar to continue.</p>","32","html-keyboard-response","416","791881","0.0-15.0","","","","","",""
"11135.055000006105","<p style=""color:white;"">Here are some examples.</p> <p style=""color:white;"">For each, predict whether the next figure looks more male-like or female-like. Then, when the figure appears, guess whether it looks more male-like or female-like and indicate your choice.</p> <p style=""color:white;"">Press the space bar to continue.</p>","32","html-keyboard-response","417","803016","0.0-16.0","","","","","",""
"2965.5450000136625","<p style=""color:white;""> Next Figure: Male or Female? </p>","190","html-keyboard-response","418","807984","0.0-17.0-0.0","prediction_train","","","",".",""
"null","<div style=""color:white; font-size:60px;"">+</div>","null","html-keyboard-response","419","808986","0.0-17.0-1.0","fixation","","","","",""
"1173.1250000011642","Stimuli/Hangul_E1.bmp","188","image-keyboard-response","420","810160","0.0-17.0-2.0","c2_train",",","","","",","
"1935.1449999958277","<p style=""color:white;""> Next Figure: Male or Female? </p>","188","html-keyboard-response","421","812096","0.0-17.0-0.1","prediction_train","","","",",",""
"null","<div style=""color:white; font-size:60px;"">+</div>","null","html-keyboard-response","422","813098","0.0-17.0-1.1","fixation","","","","",""
"645.4950000043027","Stimuli/Hangul_E0.bmp","188","image-keyboard-response","423","813744","0.0-17.0-2.1","c2_train",",","","","",","
"2438.8099999923725","<p style=""color:white;""> Next Figure: Male or Female? </p>","190","html-keyboard-response","424","816184","0.0-17.0-0.2","prediction_train","","","",".",""
"null","<div style=""color:white; font-size:60px;"">+</div>","null","html-keyboard-response","425","817185","0.0-17.0-1.2","fixation","","","","",""
"693.6699999932898","Stimuli/Hangul_E2.bmp","190","image-keyboard-response","426","817879","0.0-17.0-2.2","c2_train",".","","","","."
"1855.490000001737","<p style=""color:white;"">Let us begin! Press the space bar when you are ready to start block 1 of 4.</p> ","32","html-keyboard-response","427","819736","0.0-18.0","","","","","",""
"1029.4949999952223","<p style=""color:white;""> Next Figure: Male or Female? </p>","190","html-keyboard-response","428","822767","0.0-19.0-0.0","prediction","","","",".",""
"null","<div style=""color:white; font-size:60px;"">+</div>","null","html-keyboard-response","429","823768","0.0-19.0-1.0","fixation","","","","",""
"511.21499999135267","Stimuli/Hangul_M24.bmp","188","image-keyboard-response","430","824280","0.0-19.0-2.0","c2_test",",","","","",","
"1022.7999999915482","<p style=""color:white;""> Next Figure: Male or Female? </p>","188","html-keyboard-response","431","825304","0.0-19.0-0.1","prediction","","","",",",""
"null","<div style=""color:white; font-size:60px;"">+</div>","null","html-keyboard-response","432","826305","0.0-19.0-1.1","fixation","","","","",""
"573.8000000128523","Stimuli/Hangul_M18.bmp","188","image-keyboard-response","433","826880","0.0-19.0-2.1","c2_test",",","","","",","
"1127.3550000041723","<p style=""color:white;""> Next Figure: Male or Female? </p>","190","html-keyboard-response","434","828008","0.0-19.0-0.2","prediction","","","",".",""
"null","<div style=""color:white; font-size:60px;"">+</div>","null","html-keyboard-response","435","829009","0.0-19.0-1.2","fixation","","","","",""
"638.424999997369","Stimuli/Hangul_M2.bmp","188","image-keyboard-response","436","829648","0.0-19.0-2.2","c2_test",",","","","",","
"1350.785000002361","<p style=""color:white;""> Next Figure: Male or Female? </p>","188","html-keyboard-response","437","830999","0.0-19.0-0.3","prediction","","","",",",""
"null","<div style=""color:white; font-size:60px;"">+</div>","null","html-keyboard-response","438","832000","0.0-19.0-1.3","fixation","","","","",""
"638.375000009546","Stimuli/Hangul_F10.bmp","190","image-keyboard-response","439","832640","0.0-19.0-2.3","c2_test",".","","","","."
"1151.1249999894062","<p style=""color:white;""> Next Figure: Male or Female? </p>","190","html-keyboard-response","440","833791","0.0-19.0-0.4","prediction","","","",".",""
"null","<div style=""color:white; font-size:60px;"">+</div>","null","html-keyboard-response","441","834793","0.0-19.0-1.4","fixation","","","","",""
"614.8800000082701","Stimuli/Hangul_F13.bmp","188","image-keyboard-response","442","835408","0.0-19.0-2.4","c2_test",".","","","",","
"1406.7700000014156","<p style=""color:white;""> Next Figure: Male or Female? </p>","188","html-keyboard-response","443","836816","0.0-19.0-0.5","prediction","","","",",",""
"null","<div style=""color:white; font-size:60px;"">+</div>","null","html-keyboard-response","444","837817","0.0-19.0-1.5","fixation","","","","",""
"557.9799999977695","Stimuli/Hangul_M6.bmp","188","image-keyboard-response","445","838376","0.0-19.0-2.5","c2_test",",","","","",","
"1143.5050000000047","<p style=""color:white;""> Next Figure: Male or Female? </p>","190","html-keyboard-response","446","839520","0.0-19.0-0.6","prediction","","","",".",""
"null","<div style=""color:white; font-size:60px;"">+</div>","null","html-keyboard-response","447","840522","0.0-19.0-1.6","fixation","","","","",""
"501.4099999971222","Stimuli/Hangul_M13.bmp","188","image-keyboard-response","448","841024","0.0-19.0-2.6","c2_test",",","","","",","
"1143.2300000014948","<p style=""color:white;""> Next Figure: Male or Female? </p>","188","html-keyboard-response","449","842168","0.0-19.0-0.7","prediction","","","",",",""
"null","<div style=""color:white; font-size:60px;"">+</div>","null","html-keyboard-response","450","843169","0.0-19.0-1.7","fixation","","","","",""
"598.6499999999069","Stimuli/Hangul_M22.bmp","188","image-keyboard-response","451","843768","0.0-19.0-2.7","c2_test",",","","","",","
"1015.2450000023236","<p style=""color:white;""> Next Figure: Male or Female? </p>","190","html-keyboard-response","452","844784","0.0-19.0-0.8","prediction","","","",".",""
"null","<div style=""color:white; font-size:60px;"">+</div>","null","html-keyboard-response","453","845786","0.0-19.0-1.8","fixation","","","","",""
"1414.6600000094622","Stimuli/Hangul_M3.bmp","188","image-keyboard-response","454","847201","0.0-19.0-2.8","c2_test",",","","","",","
"1406.6949999978533","<p style=""color:white;""> Next Figure: Male or Female? </p>","190","html-keyboard-response","455","848608","0.0-19.0-0.9","prediction","","","",".",""
"null","<div style=""color:white; font-size:60px;"">+</div>","null","html-keyboard-response","456","849610","0.0-19.0-1.9","fixation","","","","",""
"2581.1499999981606","Stimuli/Hangul_F0.bmp","188","image-keyboard-response","457","852192","0.0-19.0-2.9","c2_test",".","","","",","
"775.2749999926891","<p style=""color:white;""> Next Figure: Male or Female? </p>","188","html-keyboard-response","458","852968","0.0-19.0-0.10","prediction","","","",",",""
"null","<div style=""color:white; font-size:60px;"">+</div>","null","html-keyboard-response","459","853970","0.0-19.0-1.10","fixation","","","","",""
"596.8299999949522","Stimuli/Hangul_F24.bmp","188","image-keyboard-response","460","854568","0.0-19.0-2.10","c2_test",".","","","",","
"783.2799999887357","<p style=""color:white;""> Next Figure: Male or Female? </p>","188","html-keyboard-response","461","855352","0.0-19.0-0.11","prediction","","","",",",""
"null","<div style=""color:white; font-size:60px;"">+</div>","null","html-keyboard-response","462","856353","0.0-19.0-1.11","fixation","","","","",""
"526.3449999911245","Stimuli/Hangul_M9.bmp","188","image-keyboard-response","463","856880","0.0-19.0-2.11","c2_test",",","","","",","
"1007.9149999946821","<p style=""color:white;""> Next Figure: Male or Female? </p>","190","html-keyboard-response","464","857889","0.0-19.0-0.12","prediction","","","",".",""
"null","<div style=""color:white; font-size:60px;"">+</div>","null","html-keyboard-response","465","858890","0.0-19.0-1.12","fixation","","","","",""
"733.6100000102306","Stimuli/Hangul_M19.bmp","188","image-keyboard-response","466","859624","0.0-19.0-2.12","c2_test",",","","","",","
"887.0700000115903","<p style=""color:white;""> Next Figure: Male or Female? </p>","190","html-keyboard-response","467","860512","0.0-19.0-0.13","prediction","","","",".",""
"null","<div style=""color:white; font-size:60px;"">+</div>","null","html-keyboard-response","468","861513","0.0-19.0-1.13","fixation","","","","",""
"990.0250000064261","Stimuli/Hangul_M20.bmp","188","image-keyboard-response","469","862504","0.0-19.0-2.13","c2_test",",","","","",","
"590.4149999987567","<p style=""color:white;""> Next Figure: Male or Female? </p>","188","html-keyboard-response","470","863096","0.0-19.0-0.14","prediction","","","",",",""
"null","<div style=""color:white; font-size:60px;"">+</div>","null","html-keyboard-response","471","864097","0.0-19.0-1.14","fixation","","","","",""
"773.5799999936717","Stimuli/Hangul_M15.bmp","188","image-keyboard-response","472","864872","0.0-19.0-2.14","c2_test",",","","","",","
"631.7649999982677","<p style=""color:white;""> Next Figure: Male or Female? </p>","188","html-keyboard-response","473","865504","0.0-19.0-0.15","prediction","","","",",",""
"null","<div style=""color:white; font-size:60px;"">+</div>","null","html-keyboard-response","474","866506","0.0-19.0-1.15","fixation","","","","",""
"788.894999990589","Stimuli/Hangul_F11.bmp","188","image-keyboard-response","475","867296","0.0-19.0-2.15","c2_test",".","","","",","
"790.7899999991059","<p style=""color:white;""> Next Figure: Male or Female? </p>","188","html-keyboard-response","476","868089","0.0-19.0-0.16","prediction","","","",",",""
"null","<div style=""color:white; font-size:60px;"">+</div>","null","html-keyboard-response","477","869090","0.0-19.0-1.16","fixation","","","","",""
"813.190000000759","Stimuli/Hangul_F1.bmp","190","image-keyboard-response","478","869904","0.0-19.0-2.16","c2_test",".","","","","."
"527.3449999949662","<p style=""color:white;""> Next Figure: Male or Female? </p>","190","html-keyboard-response","479","870432","0.0-19.0-0.17","prediction","","","",".",""
"null","<div style=""color:white; font-size:60px;"">+</div>","null","html-keyboard-response","480","871434","0.0-19.0-1.17","fixation","","","","",""
"1005.1299999904586","Stimuli/Hangul_M4.bmp","188","image-keyboard-response","481","872440","0.0-19.0-2.17","c2_test",",","","","",","
"807.4649999907706","<p style=""color:white;""> Next Figure: Male or Female? </p>","190","html-keyboard-response","482","873248","0.0-19.0-0.18","prediction","","","",".",""
"null","<div style=""color:white; font-size:60px;"">+</div>","null","html-keyboard-response","483","874249","0.0-19.0-1.18","fixation","","","","",""
"702.1200000017416","Stimuli/Hangul_F7.bmp","188","image-keyboard-response","484","874952","0.0-19.0-2.18","c2_test",".","","","",","
"655.4299999988871","<p style=""color:white;""> Next Figure: Male or Female? </p>","188","html-keyboard-response","485","875608","0.0-19.0-0.19","prediction","","","",",",""
"null","<div style=""color:white; font-size:60px;"">+</div>","null","html-keyboard-response","486","876609","0.0-19.0-1.19","fixation","","","","",""
"670.6699999922421","Stimuli/Hangul_F15.bmp","188","image-keyboard-response","487","877280","0.0-19.0-2.19","c2_test",".","","","",","
"551.0750000103144","<p style=""color:white;""> Next Figure: Male or Female? </p>","188","html-keyboard-response","488","877832","0.0-19.0-0.20","prediction","","","",",",""
"null","<div style=""color:white; font-size:60px;"">+</div>","null","html-keyboard-response","489","878833","0.0-19.0-1.20","fixation","","","","",""
"583.0100000021048","Stimuli/Hangul_M17.bmp","188","image-keyboard-response","490","879416","0.0-19.0-2.20","c2_test",",","","","",","
"574.8699999967357","<p style=""color:white;""> Next Figure: Male or Female? </p>","190","html-keyboard-response","491","879992","0.0-19.0-0.21","prediction","","","",".",""
"null","<div style=""color:white; font-size:60px;"">+</div>","null","html-keyboard-response","492","880993","0.0-19.0-1.21","fixation","","","","",""
"494.4450000039069","Stimuli/Hangul_F8.bmp","190","image-keyboard-response","493","881488","0.0-19.0-2.21","c2_test",".","","","","."
"919.2499999917345","<p style=""color:white;""> Next Figure: Male or Female? </p>","190","html-keyboard-response","494","882408","0.0-19.0-0.22","prediction","","","",".",""
"null","<div style=""color:white; font-size:60px;"">+</div>","null","html-keyboard-response","495","883409","0.0-19.0-1.22","fixation","","","","",""
"693.9200000051642","Stimuli/Hangul_M12.bmp","188","image-keyboard-response","496","884104","0.0-19.0-2.22","c2_test",",","","","",","
"639.4099999888567","<p style=""color:white;""> Next Figure: Male or Female? </p>","188","html-keyboard-response","497","884744","0.0-19.0-0.23","prediction","","","",",",""
"null","<div style=""color:white; font-size:60px;"">+</div>","null","html-keyboard-response","498","885745","0.0-19.0-1.23","fixation","","","","",""
"1454.0950000082375","Stimuli/Hangul_M11.bmp","188","image-keyboard-response","499","887200","0.0-19.0-2.23","c2_test",",","","","",","
"679.5750000019325","<p style=""color:white;""> Next Figure: Male or Female? </p>","190","html-keyboard-response","500","887880","0.0-19.0-0.24","prediction","","","",".",""
"null","<div style=""color:white; font-size:60px;"">+</div>","null","html-keyboard-response","501","888881","0.0-19.0-1.24","fixation","","","","",""
"742.9049999918789","Stimuli/Hangul_M23.bmp","190","image-keyboard-response","502","889625","0.0-19.0-2.24","c2_test",",","","","","."
"830.8699999906821","<p style=""color:white;""> Next Figure: Male or Female? </p>","190","html-keyboard-response","503","890456","0.0-19.0-0.25","prediction","","","",".",""
"null","<div style=""color:white; font-size:60px;"">+</div>","null","html-keyboard-response","504","891458","0.0-19.0-1.25","fixation","","","","",""
"669.3500000110362","Stimuli/Hangul_F20.bmp","190","image-keyboard-response","505","892128","0.0-19.0-2.25","c2_test",".","","","","."
"591.3799999980256","<p style=""color:white;""> Next Figure: Male or Female? </p>","190","html-keyboard-response","506","892720","0.0-19.0-0.26","prediction","","","",".",""
"null","<div style=""color:white; font-size:60px;"">+</div>","null","html-keyboard-response","507","893722","0.0-19.0-1.26","fixation","","","","",""
"501.7799999914132","Stimuli/Hangul_F4.bmp","190","image-keyboard-response","508","894224","0.0-19.0-2.26","c2_test",".","","","","."
"607.2100000019418","<p style=""color:white;""> Next Figure: Male or Female? </p>","190","html-keyboard-response","509","894832","0.0-19.0-0.27","prediction","","","",".",""
"null","<div style=""color:white; font-size:60px;"">+</div>","null","html-keyboard-response","510","895833","0.0-19.0-1.27","fixation","","","","",""
"566.2599999923259","Stimuli/Hangul_F16.bmp","188","image-keyboard-response","511","896400","0.0-19.0-2.27","c2_test",".","","","",","
"542.8800000081537","<p style=""color:white;""> Next Figure: Male or Female? </p>","188","html-keyboard-response","512","896944","0.0-19.0-0.28","prediction","","","",",",""
"null","<div style=""color:white; font-size:60px;"">+</div>","null","html-keyboard-response","513","897945","0.0-19.0-1.28","fixation","","","","",""
"918.4999999997672","Stimuli/Hangul_F22.bmp","190","image-keyboard-response","514","898864","0.0-19.0-2.28","c2_test",".","","","","."
"1487.5650000030873","<p style=""color:white;""> Next Figure: Male or Female? </p>","190","html-keyboard-response","515","900352","0.0-19.0-0.29","prediction","","","",".",""
"null","<div style=""color:white; font-size:60px;"">+</div>","null","html-keyboard-response","516","901353","0.0-19.0-1.29","fixation","","","","",""
"740.8399999985704","Stimuli/Hangul_F23.bmp","188","image-keyboard-response","517","902096","0.0-19.0-2.29","c2_test",".","","","",","
"583.4600000089267","<p style=""color:white;""> Next Figure: Male or Female? </p>","188","html-keyboard-response","518","902680","0.0-19.0-0.30","prediction","","","",",",""
"null","<div style=""color:white; font-size:60px;"">+</div>","null","html-keyboard-response","519","903681","0.0-19.0-1.30","fixation","","","","",""
"582.299999994575","Stimuli/Hangul_M7.bmp","188","image-keyboard-response","520","904264","0.0-19.0-2.30","c2_test",",","","","",","
"559.4750000018394","<p style=""color:white;""> Next Figure: Male or Female? </p>","188","html-keyboard-response","521","904824","0.0-19.0-0.31","prediction","","","",",",""
"null","<div style=""color:white; font-size:60px;"">+</div>","null","html-keyboard-response","522","905826","0.0-19.0-1.31","fixation","","","","",""
"589.80000000156","Stimuli/Hangul_F18.bmp","190","image-keyboard-response","523","906416","0.0-19.0-2.31","c2_test",".","","","","."
"575.0750000006519","<p style=""color:white;""> Next Figure: Male or Female? </p>","190","html-keyboard-response","524","906992","0.0-19.0-0.32","prediction","","","",".",""
"null","<div style=""color:white; font-size:60px;"">+</div>","null","html-keyboard-response","525","907995","0.0-19.0-1.32","fixation","","","","",""
"660.6000000028871","Stimuli/Hangul_M14.bmp","188","image-keyboard-response","526","908656","0.0-19.0-2.32","c2_test",",","","","",","
"1063.4600000048522","<p style=""color:white;""> Next Figure: Male or Female? </p>","190","html-keyboard-response","527","909720","0.0-19.0-0.33","prediction","","","",".",""
"null","<div style=""color:white; font-size:60px;"">+</div>","null","html-keyboard-response","528","910721","0.0-19.0-1.33","fixation","","","","",""
"654.9550000054296","Stimuli/Hangul_F19.bmp","190","image-keyboard-response","529","911377","0.0-19.0-2.33","c2_test",".","","","","."
"854.845000008936","<p style=""color:white;""> Next Figure: Male or Female? </p>","190","html-keyboard-response","530","912232","0.0-19.0-0.34","prediction","","","",".",""
"null","<div style=""color:white; font-size:60px;"">+</div>","null","html-keyboard-response","531","913234","0.0-19.0-1.34","fixation","","","","",""
"485.50999999861233","Stimuli/Hangul_F14.bmp","190","image-keyboard-response","532","913720","0.0-19.0-2.34","c2_test",".","","","","."
"839.2250000033528","<p style=""color:white;""> Next Figure: Male or Female? </p>","188","html-keyboard-response","533","914560","0.0-19.0-0.35","prediction","","","",",",""
"null","<div style=""color:white; font-size:60px;"">+</div>","null","html-keyboard-response","534","915562","0.0-19.0-1.35","fixation","","","","",""
"493.7449999997625","Stimuli/Hangul_M10.bmp","188","image-keyboard-response","535","916056","0.0-19.0-2.35","c2_test",",","","","",","
"967.1899999957532","<p style=""color:white;""> Next Figure: Male or Female? </p>","188","html-keyboard-response","536","917024","0.0-19.0-0.36","prediction","","","",",",""
"null","<div style=""color:white; font-size:60px;"">+</div>","null","html-keyboard-response","537","918026","0.0-19.0-1.36","fixation","","","","",""
"814.1049999976531","Stimuli/Hangul_M21.bmp","190","image-keyboard-response","538","918840","0.0-19.0-2.36","c2_test",",","","","","."
"575.3600000025472","<p style=""color:white;""> Next Figure: Male or Female? </p>","190","html-keyboard-response","539","919416","0.0-19.0-0.37","prediction","","","",".",""
"null","<div style=""color:white; font-size:60px;"">+</div>","null","html-keyboard-response","540","920417","0.0-19.0-1.37","fixation","","","","",""
"542.0999999914784","Stimuli/Hangul_F21.bmp","190","image-keyboard-response","541","920960","0.0-19.0-2.37","c2_test",".","","","","."
"583.9900000137277","<p style=""color:white;""> Next Figure: Male or Female? </p>","190","html-keyboard-response","542","921545","0.0-19.0-0.38","prediction","","","",".",""
"null","<div style=""color:white; font-size:60px;"">+</div>","null","html-keyboard-response","543","922546","0.0-19.0-1.38","fixation","","","","",""
"814.0299999940908","Stimuli/Hangul_F2.bmp","188","image-keyboard-response","544","923360","0.0-19.0-2.38","c2_test",".","","","",","
"719.4350000063423","<p style=""color:white;""> Next Figure: Male or Female? </p>","188","html-keyboard-response","545","924080","0.0-19.0-0.39","prediction","","","",",",""
"null","<div style=""color:white; font-size:60px;"">+</div>","null","html-keyboard-response","546","925082","0.0-19.0-1.39","fixation","","","","",""
"589.430000007269","Stimuli/Hangul_F6.bmp","188","image-keyboard-response","547","925672","0.0-19.0-2.39","c2_test",".","","","",","
"567.7149999974063","<p style=""color:white;""> Next Figure: Male or Female? </p>","188","html-keyboard-response","548","926240","0.0-19.0-0.40","prediction","","","",",",""
"null","<div style=""color:white; font-size:60px;"">+</div>","null","html-keyboard-response","549","927242","0.0-19.0-1.40","fixation","","","","",""
"493.41999999887776","Stimuli/Hangul_F12.bmp","188","image-keyboard-response","550","927736","0.0-19.0-2.40","c2_test",".","","","",","
"615.3449999983422","<p style=""color:white;""> Next Figure: Male or Female? </p>","190","html-keyboard-response","551","928352","0.0-19.0-0.41","prediction","","","",".",""
"null","<div style=""color:white; font-size:60px;"">+</div>","null","html-keyboard-response","552","929354","0.0-19.0-1.41","fixation","","","","",""
"2718.1450000061886","Stimuli/Hangul_M1.bmp","190","image-keyboard-response","553","932073","0.0-19.0-2.41","c2_test",",","","","","."
"854.9449999991339","<p style=""color:white;""> Next Figure: Male or Female? </p>","190","html-keyboard-response","554","932928","0.0-19.0-0.42","prediction","","","",".",""
"null","<div style=""color:white; font-size:60px;"">+</div>","null","html-keyboard-response","555","933931","0.0-19.0-1.42","fixation","","","","",""
"1788.6650000000373","Stimuli/Hangul_M5.bmp","190","image-keyboard-response","556","935720","0.0-19.0-2.42","c2_test",",","","","","."
"607.5300000084098","<p style=""color:white;""> Next Figure: Male or Female? </p>","188","html-keyboard-response","557","936328","0.0-19.0-0.43","prediction","","","",",",""
"null","<div style=""color:white; font-size:60px;"">+</div>","null","html-keyboard-response","558","937330","0.0-19.0-1.43","fixation","","","","",""
"685.4049999965355","Stimuli/Hangul_F17.bmp","188","image-keyboard-response","559","938016","0.0-19.0-2.43","c2_test",".","","","",","
"551.6050000005635","<p style=""color:white;""> Next Figure: Male or Female? </p>","188","html-keyboard-response","560","938568","0.0-19.0-0.44","prediction","","","",",",""
"null","<div style=""color:white; font-size:60px;"">+</div>","null","html-keyboard-response","561","939569","0.0-19.0-1.44","fixation","","","","",""
"1174.060000004829","Stimuli/Hangul_F3.bmp","190","image-keyboard-response","562","940744","0.0-19.0-2.44","c2_test",".","","","","."
"935.3350000019418","<p style=""color:white;""> Next Figure: Male or Female? </p>","190","html-keyboard-response","563","941680","0.0-19.0-0.45","prediction","","","",".",""
"null","<div style=""color:white; font-size:60px;"">+</div>","null","html-keyboard-response","564","942682","0.0-19.0-1.45","fixation","","","","",""
"877.810000005411","Stimuli/Hangul_F9.bmp","190","image-keyboard-response","565","943561","0.0-19.0-2.45","c2_test",".","","","","."
"735.0200000073528","<p style=""color:white;""> Next Figure: Male or Female? </p>","190","html-keyboard-response","566","944296","0.0-19.0-0.46","prediction","","","",".",""
"null","<div style=""color:white; font-size:60px;"">+</div>","null","html-keyboard-response","567","945298","0.0-19.0-1.46","fixation","","","","",""
"1957.090000010794","Stimuli/Hangul_M0.bmp","188","image-keyboard-response","568","947256","0.0-19.0-2.46","c2_test",",","","","",","
"727.3700000077952","<p style=""color:white;""> Next Figure: Male or Female? </p>","188","html-keyboard-response","569","947984","0.0-19.0-0.47","prediction","","","",",",""
"null","<div style=""color:white; font-size:60px;"">+</div>","null","html-keyboard-response","570","948986","0.0-19.0-1.47","fixation","","","","",""
"541.2300000025425","Stimuli/Hangul_M16.bmp","188","image-keyboard-response","571","949528","0.0-19.0-2.47","c2_test",",","","","",","
"583.0500000010943","<p style=""color:white;""> Next Figure: Male or Female? </p>","188","html-keyboard-response","572","950112","0.0-19.0-0.48","prediction","","","",",",""
"null","<div style=""color:white; font-size:60px;"">+</div>","null","html-keyboard-response","573","951113","0.0-19.0-1.48","fixation","","","","",""
"1174.0799999970477","Stimuli/Hangul_M8.bmp","188","image-keyboard-response","574","952288","0.0-19.0-2.48","c2_test",",","","","",","
"623.2049999962328","<p style=""color:white;""> Next Figure: Male or Female? </p>","188","html-keyboard-response","575","952912","0.0-19.0-0.49","prediction","","","",",",""
"null","<div style=""color:white; font-size:60px;"">+</div>","null","html-keyboard-response","576","953914","0.0-19.0-1.49","fixation","","","","",""
"598.2050000020536","Stimuli/Hangul_F5.bmp","188","image-keyboard-response","577","954512","0.0-19.0-2.49","c2_test",".","","","",","
"10679.434999998193","<p style=""color:white;"">Good job, block 1 complete! Please take a moment to rest.</p> <p style=""color:white;"">When you are ready to continue with block 2 of 4, press the space bar.</p> ","32","html-keyboard-response","578","965193","0.0-20.0","","","","","",""
"485.3999999904772","<p style=""color:white;""> Next Figure: Male or Female? </p>","190","html-keyboard-response","579","967680","0.0-21.0-0.0","prediction","","","",".",""
"null","<div style=""color:white; font-size:60px;"">+</div>","null","html-keyboard-response","580","968683","0.0-21.0-1.0","fixation","","","","",""
"1764.6749999985332","Stimuli/Hangul_M43.bmp","188","image-keyboard-response","581","970448","0.0-21.0-2.0","c2_test",",","","","",","
"871.2499999965075","<p style=""color:white;""> Next Figure: Male or Female? </p>","188","html-keyboard-response","582","971320","0.0-21.0-0.1","prediction","","","",",",""
"null","<div style=""color:white; font-size:60px;"">+</div>","null","html-keyboard-response","583","972323","0.0-21.0-1.1","fixation","","","","",""
"484.7799999988638","Stimuli/Hangul_F34.bmp","190","image-keyboard-response","584","972808","0.0-21.0-2.1","c2_test",".","","","","."
"487.2949999989942","<p style=""color:white;""> Next Figure: Male or Female? </p>","190","html-keyboard-response","585","973296","0.0-21.0-0.2","prediction","","","",".",""
"null","<div style=""color:white; font-size:60px;"">+</div>","null","html-keyboard-response","586","974298","0.0-21.0-1.2","fixation","","","","",""
"485.675000003539","Stimuli/Hangul_F44.bmp","190","image-keyboard-response","587","974784","0.0-21.0-2.2","c2_test",".","","","","."
"504.2150000081165","<p style=""color:white;""> Next Figure: Male or Female? </p>","190","html-keyboard-response","588","975289","0.0-21.0-0.3","prediction","","","",".",""
"null","<div style=""color:white; font-size:60px;"">+</div>","null","html-keyboard-response","589","976291","0.0-21.0-1.3","fixation","","","","",""
"700.9350000007544","Stimuli/Hangul_M33.bmp","188","image-keyboard-response","590","976992","0.0-21.0-2.3","c2_test",",","","","",","
"463.53999999701045","<p style=""color:white;""> Next Figure: Male or Female? </p>","188","html-keyboard-response","591","977456","0.0-21.0-0.4","prediction","","","",",",""
"null","<div style=""color:white; font-size:60px;"">+</div>","null","html-keyboard-response","592","978457","0.0-21.0-1.4","fixation","","","","",""
"550.5399999965448","Stimuli/Hangul_F49.bmp","188","image-keyboard-response","593","979008","0.0-21.0-2.4","c2_test",".","","","",","
"503.10000000172295","<p style=""color:white;""> Next Figure: Male or Female? </p>","188","html-keyboard-response","594","979512","0.0-21.0-0.5","prediction","","","",",",""
"null","<div style=""color:white; font-size:60px;"">+</div>","null","html-keyboard-response","595","980513","0.0-21.0-1.5","fixation","","","","",""
"717.994999999064","Stimuli/Hangul_F41.bmp","190","image-keyboard-response","596","981232","0.0-21.0-2.5","c2_test",".","","","","."
"583.8550000044052","<p style=""color:white;""> Next Figure: Male or Female? </p>","188","html-keyboard-response","597","981816","0.0-21.0-0.6","prediction","","","",",",""
"null","<div style=""color:white; font-size:60px;"">+</div>","null","html-keyboard-response","598","982819","0.0-21.0-1.6","fixation","","","","",""
"565.1149999903282","Stimuli/Hangul_F48.bmp","188","image-keyboard-response","599","983384","0.0-21.0-2.6","c2_test",".","","","",","
"551.3049999863142","<p style=""color:white;""> Next Figure: Male or Female? </p>","190","html-keyboard-response","600","983936","0.0-21.0-0.7","prediction","","","",".",""
"null","<div style=""color:white; font-size:60px;"">+</div>","null","html-keyboard-response","601","984937","0.0-21.0-1.7","fixation","","","","",""
"774.7749999980442","Stimuli/Hangul_M41.bmp","188","image-keyboard-response","602","985713","0.0-21.0-2.7","c2_test",",","","","",","
"686.8300000060117","<p style=""color:white;""> Next Figure: Male or Female? </p>","188","html-keyboard-response","603","986400","0.0-21.0-0.8","prediction","","","",",",""
"null","<div style=""color:white; font-size:60px;"">+</div>","null","html-keyboard-response","604","987402","0.0-21.0-1.8","fixation","","","","",""
"1117.580000005546","Stimuli/Hangul_F46.bmp","188","image-keyboard-response","605","988520","0.0-21.0-2.8","c2_test",".","","","",","
"455.11499998974614","<p style=""color:white;""> Next Figure: Male or Female? </p>","190","html-keyboard-response","606","988976","0.0-21.0-0.9","prediction","","","",".",""
"null","<div style=""color:white; font-size:60px;"">+</div>","null","html-keyboard-response","607","989978","0.0-21.0-1.9","fixation","","","","",""
"581.4450000034412","Stimuli/Hangul_F39.bmp","190","image-keyboard-response","608","990560","0.0-21.0-2.9","c2_test",".","","","","."
"647.3750000004657","<p style=""color:white;""> Next Figure: Male or Female? </p>","190","html-keyboard-response","609","991208","0.0-21.0-0.10","prediction","","","",".",""
"null","<div style=""color:white; font-size:60px;"">+</div>","null","html-keyboard-response","610","992210","0.0-21.0-1.10","fixation","","","","",""
"694.0250000043306","Stimuli/Hangul_M47.bmp","188","image-keyboard-response","611","992904","0.0-21.0-2.10","c2_test",",","","","",","
"502.9000000067754","<p style=""color:white;""> Next Figure: Male or Female? </p>","188","html-keyboard-response","612","993408","0.0-21.0-0.11","prediction","","","",",",""
"null","<div style=""color:white; font-size:60px;"">+</div>","null","html-keyboard-response","613","994410","0.0-21.0-1.11","fixation","","","","",""
"1237.4550000095041","Stimuli/Hangul_F40.bmp","188","image-keyboard-response","614","995648","0.0-21.0-2.11","c2_test",".","","","",","
"647.7000000013504","<p style=""color:white;""> Next Figure: Male or Female? </p>","190","html-keyboard-response","615","996297","0.0-21.0-0.12","prediction","","","",".",""
"null","<div style=""color:white; font-size:60px;"">+</div>","null","html-keyboard-response","616","997298","0.0-21.0-1.12","fixation","","","","",""
"805.290000003879","Stimuli/Hangul_M30.bmp","188","image-keyboard-response","617","998104","0.0-21.0-2.12","c2_test",",","","","",","
"551.2499999895226","<p style=""color:white;""> Next Figure: Male or Female? </p>","188","html-keyboard-response","618","998656","0.0-21.0-0.13","prediction","","","",",",""
"null","<div style=""color:white; font-size:60px;"">+</div>","null","html-keyboard-response","619","999657","0.0-21.0-1.13","fixation","","","","",""
"638.1850000034319","Stimuli/Hangul_M27.bmp","188","image-keyboard-response","620","1000296","0.0-21.0-2.13","c2_test",",","","","",","
"567.4899999867193","<p style=""color:white;""> Next Figure: Male or Female? </p>","190","html-keyboard-response","621","1000864","0.0-21.0-0.14","prediction","","","",".",""
"null","<div style=""color:white; font-size:60px;"">+</div>","null","html-keyboard-response","622","1001866","0.0-21.0-1.14","fixation","","","","",""
"694.1200000001118","Stimuli/Hangul_M35.bmp","190","image-keyboard-response","623","1002560","0.0-21.0-2.14","c2_test",",","","","","."
"583.2200000004377","<p style=""color:white;""> Next Figure: Male or Female? </p>","190","html-keyboard-response","624","1003144","0.0-21.0-0.15","prediction","","","",".",""
"null","<div style=""color:white; font-size:60px;"">+</div>","null","html-keyboard-response","625","1004146","0.0-21.0-1.15","fixation","","","","",""
"725.1000000105705","Stimuli/Hangul_M44.bmp","188","image-keyboard-response","626","1004872","0.0-21.0-2.15","c2_test",",","","","",","
"663.7799999880372","<p style=""color:white;""> Next Figure: Male or Female? </p>","188","html-keyboard-response","627","1005536","0.0-21.0-0.16","prediction","","","",",",""
"null","<div style=""color:white; font-size:60px;"">+</div>","null","html-keyboard-response","628","1006538","0.0-21.0-1.16","fixation","","","","",""
"782.5599999923725","Stimuli/Hangul_M31.bmp","190","image-keyboard-response","629","1007321","0.0-21.0-2.16","c2_test",",","","","","."
"606.7800000018906","<p style=""color:white;""> Next Figure: Male or Female? </p>","190","html-keyboard-response","630","1007928","0.0-21.0-0.17","prediction","","","",".",""
"null","<div style=""color:white; font-size:60px;"">+</div>","null","html-keyboard-response","631","1008929","0.0-21.0-1.17","fixation","","","","",""
"558.1850000016857","Stimuli/Hangul_F42.bmp","190","image-keyboard-response","632","1009488","0.0-21.0-2.17","c2_test",".","","","","."
"615.4799999931129","<p style=""color:white;""> Next Figure: Male or Female? </p>","190","html-keyboard-response","633","1010104","0.0-21.0-0.18","prediction","","","",".",""
"null","<div style=""color:white; font-size:60px;"">+</div>","null","html-keyboard-response","634","1011106","0.0-21.0-1.18","fixation","","","","",""
"509.5500000024913","Stimuli/Hangul_F30.bmp","190","image-keyboard-response","635","1011616","0.0-21.0-2.18","c2_test",".","","","","."
"679.2549999954645","<p style=""color:white;""> Next Figure: Male or Female? </p>","188","html-keyboard-response","636","1012296","0.0-21.0-0.19","prediction","","","",",",""
"null","<div style=""color:white; font-size:60px;"">+</div>","null","html-keyboard-response","637","1013297","0.0-21.0-1.19","fixation","","","","",""
"710.6349999958184","Stimuli/Hangul_F45.bmp","190","image-keyboard-response","638","1014008","0.0-21.0-2.19","c2_test",".","","","","."
"695.4300000070361","<p style=""color:white;""> Next Figure: Male or Female? </p>","188","html-keyboard-response","639","1014704","0.0-21.0-0.20","prediction","","","",",",""
"null","<div style=""color:white; font-size:60px;"">+</div>","null","html-keyboard-response","640","1015706","0.0-21.0-1.20","fixation","","","","",""
"757.8800000046613","Stimuli/Hangul_M36.bmp","188","image-keyboard-response","641","1016464","0.0-21.0-2.20","c2_test",",","","","",","
"583.5100000113016","<p style=""color:white;""> Next Figure: Male or Female? </p>","188","html-keyboard-response","642","1017048","0.0-21.0-0.21","prediction","","","",",",""
"null","<div style=""color:white; font-size:60px;"">+</div>","null","html-keyboard-response","643","1018050","0.0-21.0-1.21","fixation","","","","",""
"1134.6550000016578","Stimuli/Hangul_M29.bmp","188","image-keyboard-response","644","1019185","0.0-21.0-2.21","c2_test",",","","","",","
"438.5049999982584","<p style=""color:white;""> Next Figure: Male or Female? </p>","190","html-keyboard-response","645","1019624","0.0-21.0-0.22","prediction","","","",".",""
"null","<div style=""color:white; font-size:60px;"">+</div>","null","html-keyboard-response","646","1020626","0.0-21.0-1.22","fixation","","","","",""
"597.3050000029616","Stimuli/Hangul_F27.bmp","190","image-keyboard-response","647","1021224","0.0-21.0-2.22","c2_test",".","","","","."
"735.2350000001024","<p style=""color:white;""> Next Figure: Male or Female? </p>","190","html-keyboard-response","648","1021960","0.0-21.0-0.23","prediction","","","",".",""
"null","<div style=""color:white; font-size:60px;"">+</div>","null","html-keyboard-response","649","1022962","0.0-21.0-1.23","fixation","","","","",""
"686.134999996284","Stimuli/Hangul_M40.bmp","188","image-keyboard-response","650","1023648","0.0-21.0-2.23","c2_test",",","","","",","
"711.0749999992549","<p style=""color:white;""> Next Figure: Male or Female? </p>","188","html-keyboard-response","651","1024360","0.0-21.0-0.24","prediction","","","",",",""
"null","<div style=""color:white; font-size:60px;"">+</div>","null","html-keyboard-response","652","1025362","0.0-21.0-1.24","fixation","","","","",""
"1333.150000005844","Stimuli/Hangul_M45.bmp","188","image-keyboard-response","653","1026696","0.0-21.0-2.24","c2_test",",","","","",","
"807.425000006333","<p style=""color:white;""> Next Figure: Male or Female? </p>","188","html-keyboard-response","654","1027504","0.0-21.0-0.25","prediction","","","",",",""
"null","<div style=""color:white; font-size:60px;"">+</div>","null","html-keyboard-response","655","1028505","0.0-21.0-1.25","fixation","","","","",""
"542.3250000021653","Stimuli/Hangul_F33.bmp","190","image-keyboard-response","656","1029048","0.0-21.0-2.25","c2_test",".","","","","."
