"rt","stimulus","key_press","trial_type","trial_index","time_elapsed","internal_node_id","test_part","correct_response","C1_train","C1","A","C2"
"2686.969999995199","<p style=""color:white;"">Welcome to the experiment! Press any key to begin.</p>","32","html-keyboard-response","0","2702","0.0-0.0","","","","","",""
"48711.645000003045","<p style=""color:white;"">You will see a series of abstract figures. They are adaptations of signs in the Korean alphabet, but that is not important for this study. </p><p style=""color:white;"">Abstract figures sometimes have a more masculine or feminine shape. Here, each figure has already been assigned a gender as <q>Male</q> or <q>Female</q> by a panel of respondents in a pilot study. The respondents were not given specific instructions on how to do this, but were only told to use their intuition and to take into account the entire configuration of the stimulus. </p><p style=""color:white;"">Your task now is to guess the assigned gender of each figure. Please press the corresponding response keys to indicate your choice: </p><p style=""color:white;""> Male &#8594 <q>,</q> (comma)</p><p style=""color:white;""> Female &#8594 <q>.</q> (period)</p><p style=""color:white;"">Press either response keys to continue.</p>","190","html-keyboard-response","1","51414","0.0-1.0","","","","","",""
"15210.489999997662","<p style=""color:white;"">Your choice is correct if it matches the gender assigned by the majority of respondents in the pilot study.</p> <p style=""color:white;"">For each correct choice you will receive 2 cents. There will be 200 trials divided into 4 blocks of 50 trials. You will be able to take a break after every 50 trials.</p> <p style=""color:white;"">Press the space bar to continue.</p>","32","html-keyboard-response","2","66625","0.0-2.0","","","","","",""
"5152.13999999105","<p style=""color:white;"">Here are some examples.</p> <p style=""color:white;"">For each, guess whether the assigned figure is male-like or female-like and indicate your choice by pressing either response keys.</p> <p style=""color:white;"">Press the space bar to continue.</p>","32","html-keyboard-response","3","71778","0.0-3.0","","","","","",""
"null","<div style=""color:white; font-size:60px;"">+</div>","null","html-keyboard-response","4","74789","0.0-4.0-0.0","fixation","","","","",""
"3221.2450000079116","Stimuli/Hangul_E1.bmp","188","image-keyboard-response","5","78012","0.0-4.0-1.0","c1_train",",",",","","",""
"null","<div style=""color:white; font-size:60px;"">+</div>","null","html-keyboard-response","6","79019","0.0-4.0-0.1","fixation","","","","",""
"6343.349999995553","Stimuli/Hangul_E2.bmp","190","image-keyboard-response","7","85363","0.0-4.0-1.1","c1_train",".",".","","",""
"null","<div style=""color:white; font-size:60px;"">+</div>","null","html-keyboard-response","8","86367","0.0-4.0-0.2","fixation","","","","",""
"3633.139999990817","Stimuli/Hangul_E0.bmp","188","image-keyboard-response","9","90001","0.0-4.0-1.2","c1_train",",",",","","",""
"3542.1099999948638","<p style=""color:white;"">Let us begin! Press the space bar when you are ready to start block 1 of 4.</p> ","32","html-keyboard-response","10","93544","0.0-5.0","","","","","",""
"null","<div style=""color:white; font-size:60px;"">+</div>","null","html-keyboard-response","11","96556","0.0-6.0-0.0","fixation","","","","",""
"2690.7000000064727","Stimuli/Hangul_M22.bmp","188","image-keyboard-response","12","99248","0.0-6.0-1.0","test",",","",",","",""
"null","<div style=""color:white; font-size:60px;"">+</div>","null","html-keyboard-response","13","100253","0.0-6.0-0.1","fixation","","","","",""
"1778.585000007297","Stimuli/Hangul_M20.bmp","190","image-keyboard-response","14","102033","0.0-6.0-1.1","test",",","",".","",""
"null","<div style=""color:white; font-size:60px;"">+</div>","null","html-keyboard-response","15","103034","0.0-6.0-0.2","fixation","","","","",""
"1659.9649999989197","Stimuli/Hangul_M5.bmp","188","image-keyboard-response","16","104695","0.0-6.0-1.2","test",",","",",","",""
"null","<div style=""color:white; font-size:60px;"">+</div>","null","html-keyboard-response","17","105701","0.0-6.0-0.3","fixation","","","","",""
"1185.060000003432","Stimuli/Hangul_M2.bmp","188","image-keyboard-response","18","106887","0.0-6.0-1.3","test",",","",",","",""
"null","<div style=""color:white; font-size:60px;"">+</div>","null","html-keyboard-response","19","107888","0.0-6.0-0.4","fixation","","","","",""
"1485.9199999918928","Stimuli/Hangul_M1.bmp","188","image-keyboard-response","20","109375","0.0-6.0-1.4","test",",","",",","",""
"null","<div style=""color:white; font-size:60px;"">+</div>","null","html-keyboard-response","21","110381","0.0-6.0-0.5","fixation","","","","",""
"1129.4599999964703","Stimuli/Hangul_M12.bmp","188","image-keyboard-response","22","111511","0.0-6.0-1.5","test",",","",",","",""
"null","<div style=""color:white; font-size:60px;"">+</div>","null","html-keyboard-response","23","112515","0.0-6.0-0.6","fixation","","","","",""
"1227.7600000088569","Stimuli/Hangul_F8.bmp","190","image-keyboard-response","24","113750","0.0-6.0-1.6","test",".","",".","",""
"null","<div style=""color:white; font-size:60px;"">+</div>","null","html-keyboard-response","25","114752","0.0-6.0-0.7","fixation","","","","",""
"1574.254999999539","Stimuli/Hangul_M11.bmp","188","image-keyboard-response","26","116327","0.0-6.0-1.7","test",",","",",","",""
"null","<div style=""color:white; font-size:60px;"">+</div>","null","html-keyboard-response","27","117330","0.0-6.0-0.8","fixation","","","","",""
"1459.9149999994552","Stimuli/Hangul_M23.bmp","190","image-keyboard-response","28","118791","0.0-6.0-1.8","test",",","",".","",""
"null","<div style=""color:white; font-size:60px;"">+</div>","null","html-keyboard-response","29","119795","0.0-6.0-0.9","fixation","","","","",""
"3355.93499999959","Stimuli/Hangul_F24.bmp","188","image-keyboard-response","30","123152","0.0-6.0-1.9","test",".","",",","",""
"null","<div style=""color:white; font-size:60px;"">+</div>","null","html-keyboard-response","31","124156","0.0-6.0-0.10","fixation","","","","",""
"1931.494999997085","Stimuli/Hangul_M19.bmp","190","image-keyboard-response","32","126089","0.0-6.0-1.10","test",",","",".","",""
"null","<div style=""color:white; font-size:60px;"">+</div>","null","html-keyboard-response","33","127095","0.0-6.0-0.11","fixation","","","","",""
"2295.3850000048988","Stimuli/Hangul_M7.bmp","190","image-keyboard-response","34","129391","0.0-6.0-1.11","test",",","",".","",""
"null","<div style=""color:white; font-size:60px;"">+</div>","null","html-keyboard-response","35","130393","0.0-6.0-0.12","fixation","","","","",""
"2070.0399999914225","Stimuli/Hangul_M17.bmp","190","image-keyboard-response","36","132463","0.0-6.0-1.12","test",",","",".","",""
"null","<div style=""color:white; font-size:60px;"">+</div>","null","html-keyboard-response","37","133469","0.0-6.0-0.13","fixation","","","","",""
"2152.4800000042887","Stimuli/Hangul_F14.bmp","190","image-keyboard-response","38","135623","0.0-6.0-1.13","test",".","",".","",""
"null","<div style=""color:white; font-size:60px;"">+</div>","null","html-keyboard-response","39","136626","0.0-6.0-0.14","fixation","","","","",""
"1628.3850000036182","Stimuli/Hangul_F23.bmp","188","image-keyboard-response","40","138256","0.0-6.0-1.14","test",".","",",","",""
"null","<div style=""color:white; font-size:60px;"">+</div>","null","html-keyboard-response","41","139262","0.0-6.0-0.15","fixation","","","","",""
"1695.9749999950873","Stimuli/Hangul_F12.bmp","190","image-keyboard-response","42","140959","0.0-6.0-1.15","test",".","",".","",""
"null","<div style=""color:white; font-size:60px;"">+</div>","null","html-keyboard-response","43","141963","0.0-6.0-0.16","fixation","","","","",""
"1930.2750000060769","Stimuli/Hangul_M3.bmp","190","image-keyboard-response","44","143894","0.0-6.0-1.16","test",",","",".","",""
"null","<div style=""color:white; font-size:60px;"">+</div>","null","html-keyboard-response","45","144900","0.0-6.0-0.17","fixation","","","","",""
"4145.609999992303","Stimuli/Hangul_M18.bmp","190","image-keyboard-response","46","149047","0.0-6.0-1.17","test",",","",".","",""
"null","<div style=""color:white; font-size:60px;"">+</div>","null","html-keyboard-response","47","150053","0.0-6.0-0.18","fixation","","","","",""
"2040.6099999963772","Stimuli/Hangul_F22.bmp","188","image-keyboard-response","48","152095","0.0-6.0-1.18","test",".","",",","",""
"null","<div style=""color:white; font-size:60px;"">+</div>","null","html-keyboard-response","49","153096","0.0-6.0-0.19","fixation","","","","",""
"2890.720000010333","Stimuli/Hangul_F17.bmp","190","image-keyboard-response","50","155988","0.0-6.0-1.19","test",".","",".","",""
"null","<div style=""color:white; font-size:60px;"">+</div>","null","html-keyboard-response","51","156994","0.0-6.0-0.20","fixation","","","","",""
"2057.520000002114","Stimuli/Hangul_F19.bmp","190","image-keyboard-response","52","159053","0.0-6.0-1.20","test",".","",".","",""
"null","<div style=""color:white; font-size:60px;"">+</div>","null","html-keyboard-response","53","160059","0.0-6.0-0.21","fixation","","","","",""
"1360.4800000030082","Stimuli/Hangul_M13.bmp","188","image-keyboard-response","54","161420","0.0-6.0-1.21","test",",","",",","",""
"null","<div style=""color:white; font-size:60px;"">+</div>","null","html-keyboard-response","55","162426","0.0-6.0-0.22","fixation","","","","",""
"2726.3999999995576","Stimuli/Hangul_F3.bmp","190","image-keyboard-response","56","165153","0.0-6.0-1.22","test",".","",".","",""
"null","<div style=""color:white; font-size:60px;"">+</div>","null","html-keyboard-response","57","166157","0.0-6.0-0.23","fixation","","","","",""
"1754.8149999929592","Stimuli/Hangul_F9.bmp","188","image-keyboard-response","58","167913","0.0-6.0-1.23","test",".","",",","",""
"null","<div style=""color:white; font-size:60px;"">+</div>","null","html-keyboard-response","59","168919","0.0-6.0-0.24","fixation","","","","",""
"1657.6550000027055","Stimuli/Hangul_F6.bmp","188","image-keyboard-response","60","170578","0.0-6.0-1.24","test",".","",",","",""
"null","<div style=""color:white; font-size:60px;"">+</div>","null","html-keyboard-response","61","171582","0.0-6.0-0.25","fixation","","","","",""
"3678.360000005341","Stimuli/Hangul_F10.bmp","190","image-keyboard-response","62","175261","0.0-6.0-1.25","test",".","",".","",""
"null","<div style=""color:white; font-size:60px;"">+</div>","null","html-keyboard-response","63","176267","0.0-6.0-0.26","fixation","","","","",""
"2328.73500000278","Stimuli/Hangul_F0.bmp","188","image-keyboard-response","64","178597","0.0-6.0-1.26","test",".","",",","",""
"null","<div style=""color:white; font-size:60px;"">+</div>","null","html-keyboard-response","65","179603","0.0-6.0-0.27","fixation","","","","",""
"1433.564999999362","Stimuli/Hangul_M0.bmp","188","image-keyboard-response","66","181038","0.0-6.0-1.27","test",",","",",","",""
"null","<div style=""color:white; font-size:60px;"">+</div>","null","html-keyboard-response","67","182043","0.0-6.0-0.28","fixation","","","","",""
"1385.5749999929685","Stimuli/Hangul_F18.bmp","190","image-keyboard-response","68","183429","0.0-6.0-1.28","test",".","",".","",""
"null","<div style=""color:white; font-size:60px;"">+</div>","null","html-keyboard-response","69","184437","0.0-6.0-0.29","fixation","","","","",""
"2351.234999994631","Stimuli/Hangul_F4.bmp","190","image-keyboard-response","70","186789","0.0-6.0-1.29","test",".","",".","",""
"null","<div style=""color:white; font-size:60px;"">+</div>","null","html-keyboard-response","71","187790","0.0-6.0-0.30","fixation","","","","",""
"1253.4500000037951","Stimuli/Hangul_F7.bmp","188","image-keyboard-response","72","189045","0.0-6.0-1.30","test",".","",",","",""
"null","<div style=""color:white; font-size:60px;"">+</div>","null","html-keyboard-response","73","190049","0.0-6.0-0.31","fixation","","","","",""
"1204.3000000121538","Stimuli/Hangul_M4.bmp","188","image-keyboard-response","74","191254","0.0-6.0-1.31","test",",","",",","",""
"null","<div style=""color:white; font-size:60px;"">+</div>","null","html-keyboard-response","75","192258","0.0-6.0-0.32","fixation","","","","",""
"1394.2349999997532","Stimuli/Hangul_M6.bmp","188","image-keyboard-response","76","193653","0.0-6.0-1.32","test",",","",",","",""
"null","<div style=""color:white; font-size:60px;"">+</div>","null","html-keyboard-response","77","194659","0.0-6.0-0.33","fixation","","","","",""
"1257.3650000122143","Stimuli/Hangul_F15.bmp","188","image-keyboard-response","78","195917","0.0-6.0-1.33","test",".","",",","",""
"null","<div style=""color:white; font-size:60px;"">+</div>","null","html-keyboard-response","79","196921","0.0-6.0-0.34","fixation","","","","",""
"1650.4249999998137","Stimuli/Hangul_M16.bmp","188","image-keyboard-response","80","198572","0.0-6.0-1.34","test",",","",",","",""
"null","<div style=""color:white; font-size:60px;"">+</div>","null","html-keyboard-response","81","199578","0.0-6.0-0.35","fixation","","","","",""
"2965.3049999906216","Stimuli/Hangul_F2.bmp","190","image-keyboard-response","82","202544","0.0-6.0-1.35","test",".","",".","",""
"null","<div style=""color:white; font-size:60px;"">+</div>","null","html-keyboard-response","83","203550","0.0-6.0-0.36","fixation","","","","",""
"1351.2200000113808","Stimuli/Hangul_M10.bmp","188","image-keyboard-response","84","204903","0.0-6.0-1.36","test",",","",",","",""
"null","<div style=""color:white; font-size:60px;"">+</div>","null","html-keyboard-response","85","205906","0.0-6.0-0.37","fixation","","","","",""
"2823.690000004717","Stimuli/Hangul_F5.bmp","188","image-keyboard-response","86","208730","0.0-6.0-1.37","test",".","",",","",""
"null","<div style=""color:white; font-size:60px;"">+</div>","null","html-keyboard-response","87","209736","0.0-6.0-0.38","fixation","","","","",""
"1657.084999998915","Stimuli/Hangul_M9.bmp","188","image-keyboard-response","88","211394","0.0-6.0-1.38","test",",","",",","",""
"null","<div style=""color:white; font-size:60px;"">+</div>","null","html-keyboard-response","89","212401","0.0-6.0-0.39","fixation","","","","",""
"1657.6199999981327","Stimuli/Hangul_F11.bmp","190","image-keyboard-response","90","214059","0.0-6.0-1.39","test",".","",".","",""
"null","<div style=""color:white; font-size:60px;"">+</div>","null","html-keyboard-response","91","215060","0.0-6.0-0.40","fixation","","","","",""
"2045.3050000069197","Stimuli/Hangul_M15.bmp","190","image-keyboard-response","92","217106","0.0-6.0-1.40","test",",","",".","",""
"null","<div style=""color:white; font-size:60px;"">+</div>","null","html-keyboard-response","93","218107","0.0-6.0-0.41","fixation","","","","",""
"1230.1749999896856","Stimuli/Hangul_F20.bmp","188","image-keyboard-response","94","219338","0.0-6.0-1.41","test",".","",",","",""
"null","<div style=""color:white; font-size:60px;"">+</div>","null","html-keyboard-response","95","220344","0.0-6.0-0.42","fixation","","","","",""
"1784.9299999943469","Stimuli/Hangul_M24.bmp","188","image-keyboard-response","96","222130","0.0-6.0-1.42","test",",","",",","",""
"null","<div style=""color:white; font-size:60px;"">+</div>","null","html-keyboard-response","97","223133","0.0-6.0-0.43","fixation","","","","",""
"1325.2449999999953","Stimuli/Hangul_M8.bmp","188","image-keyboard-response","98","224459","0.0-6.0-1.43","test",",","",",","",""
"null","<div style=""color:white; font-size:60px;"">+</div>","null","html-keyboard-response","99","225464","0.0-6.0-0.44","fixation","","","","",""
"1320.6150000041816","Stimuli/Hangul_M14.bmp","188","image-keyboard-response","100","226786","0.0-6.0-1.44","test",",","",",","",""
"null","<div style=""color:white; font-size:60px;"">+</div>","null","html-keyboard-response","101","227790","0.0-6.0-0.45","fixation","","","","",""
"3929.169999988517","Stimuli/Hangul_F21.bmp","190","image-keyboard-response","102","231720","0.0-6.0-1.45","test",".","",".","",""
"null","<div style=""color:white; font-size:60px;"">+</div>","null","html-keyboard-response","103","232722","0.0-6.0-0.46","fixation","","","","",""
"1869.7749999992084","Stimuli/Hangul_F16.bmp","188","image-keyboard-response","104","234593","0.0-6.0-1.46","test",".","",",","",""
"null","<div style=""color:white; font-size:60px;"">+</div>","null","html-keyboard-response","105","235599","0.0-6.0-0.47","fixation","","","","",""
"1768.2800000038696","Stimuli/Hangul_F1.bmp","190","image-keyboard-response","106","237368","0.0-6.0-1.47","test",".","",".","",""
"null","<div style=""color:white; font-size:60px;"">+</div>","null","html-keyboard-response","107","238374","0.0-6.0-0.48","fixation","","","","",""
"1111.8449999921722","Stimuli/Hangul_M21.bmp","188","image-keyboard-response","108","239487","0.0-6.0-1.48","test",",","",",","",""
"null","<div style=""color:white; font-size:60px;"">+</div>","null","html-keyboard-response","109","240493","0.0-6.0-0.49","fixation","","","","",""
"1145.8249999996042","Stimuli/Hangul_F13.bmp","188","image-keyboard-response","110","241639","0.0-6.0-1.49","test",".","",",","",""
"13683.574999988195","<p style=""color:white;"">Good job, block 1 complete! Please take a moment to rest.</p> <p style=""color:white;"">When you are ready to continue with block 2 of 4, press the space bar.</p> ","32","html-keyboard-response","111","255324","0.0-7.0","","","","","",""
"null","<div style=""color:white; font-size:60px;"">+</div>","null","html-keyboard-response","112","258335","0.0-8.0-0.0","fixation","","","","",""
"1639.7349999897415","Stimuli/Hangul_F44.bmp","190","image-keyboard-response","113","259975","0.0-8.0-1.0","test",".","",".","",""
"null","<div style=""color:white; font-size:60px;"">+</div>","null","html-keyboard-response","114","260981","0.0-8.0-0.1","fixation","","","","",""
"1664.6449999971082","Stimuli/Hangul_F26.bmp","188","image-keyboard-response","115","262647","0.0-8.0-1.1","test",".","",",","",""
"null","<div style=""color:white; font-size:60px;"">+</div>","null","html-keyboard-response","116","263648","0.0-8.0-0.2","fixation","","","","",""
"1293.5300000099232","Stimuli/Hangul_M28.bmp","188","image-keyboard-response","117","264943","0.0-8.0-1.2","test",",","",",","",""
"null","<div style=""color:white; font-size:60px;"">+</div>","null","html-keyboard-response","118","265947","0.0-8.0-0.3","fixation","","","","",""
"3153.5000000003492","Stimuli/Hangul_M39.bmp","190","image-keyboard-response","119","269101","0.0-8.0-1.3","test",",","",".","",""
"null","<div style=""color:white; font-size:60px;"">+</div>","null","html-keyboard-response","120","270107","0.0-8.0-0.4","fixation","","","","",""
"1801.8149999988964","Stimuli/Hangul_M43.bmp","190","image-keyboard-response","121","271910","0.0-8.0-1.4","test",",","",".","",""
"null","<div style=""color:white; font-size:60px;"">+</div>","null","html-keyboard-response","122","272916","0.0-8.0-0.5","fixation","","","","",""
"1198.8349999883212","Stimuli/Hangul_F47.bmp","188","image-keyboard-response","123","274117","0.0-8.0-1.5","test",".","",",","",""
"null","<div style=""color:white; font-size:60px;"">+</div>","null","html-keyboard-response","124","275124","0.0-8.0-0.6","fixation","","","","",""
"1192.4250000010943","Stimuli/Hangul_M32.bmp","188","image-keyboard-response","125","276317","0.0-8.0-1.6","test",",","",",","",""
"null","<div style=""color:white; font-size:60px;"">+</div>","null","html-keyboard-response","126","277318","0.0-8.0-0.7","fixation","","","","",""
"1509.9300000001676","Stimuli/Hangul_F33.bmp","190","image-keyboard-response","127","278829","0.0-8.0-1.7","test",".","",".","",""
"null","<div style=""color:white; font-size:60px;"">+</div>","null","html-keyboard-response","128","279833","0.0-8.0-0.8","fixation","","","","",""
"1379.4199999974808","Stimuli/Hangul_M48.bmp","188","image-keyboard-response","129","281213","0.0-8.0-1.8","test",",","",",","",""
"null","<div style=""color:white; font-size:60px;"">+</div>","null","html-keyboard-response","130","282217","0.0-8.0-0.9","fixation","","","","",""
"2035.3199999954086","Stimuli/Hangul_F28.bmp","188","image-keyboard-response","131","284253","0.0-8.0-1.9","test",".","",",","",""
"null","<div style=""color:white; font-size:60px;"">+</div>","null","html-keyboard-response","132","285259","0.0-8.0-0.10","fixation","","","","",""
"1904.324999995879","Stimuli/Hangul_F46.bmp","188","image-keyboard-response","133","287164","0.0-8.0-1.10","test",".","",",","",""
"null","<div style=""color:white; font-size:60px;"">+</div>","null","html-keyboard-response","134","288167","0.0-8.0-0.11","fixation","","","","",""
"1909.2800000071293","Stimuli/Hangul_F32.bmp","190","image-keyboard-response","135","290077","0.0-8.0-1.11","test",".","",".","",""
"null","<div style=""color:white; font-size:60px;"">+</div>","null","html-keyboard-response","136","291080","0.0-8.0-0.12","fixation","","","","",""
"1395.45999999973","Stimuli/Hangul_M44.bmp","188","image-keyboard-response","137","292476","0.0-8.0-1.12","test",",","",",","",""
"null","<div style=""color:white; font-size:60px;"">+</div>","null","html-keyboard-response","138","293480","0.0-8.0-0.13","fixation","","","","",""
"1956.980000002659","Stimuli/Hangul_F39.bmp","190","image-keyboard-response","139","295438","0.0-8.0-1.13","test",".","",".","",""
"null","<div style=""color:white; font-size:60px;"">+</div>","null","html-keyboard-response","140","296441","0.0-8.0-0.14","fixation","","","","",""
"2041.0649999976158","Stimuli/Hangul_M25.bmp","188","image-keyboard-response","141","298484","0.0-8.0-1.14","test",",","",",","",""
"null","<div style=""color:white; font-size:60px;"">+</div>","null","html-keyboard-response","142","299487","0.0-8.0-0.15","fixation","","","","",""
"1852.0550000102958","Stimuli/Hangul_M49.bmp","188","image-keyboard-response","143","301340","0.0-8.0-1.15","test",",","",",","",""
"null","<div style=""color:white; font-size:60px;"">+</div>","null","html-keyboard-response","144","302347","0.0-8.0-0.16","fixation","","","","",""
"1568.7899999902584","Stimuli/Hangul_F36.bmp","188","image-keyboard-response","145","303916","0.0-8.0-1.16","test",".","",",","",""
"null","<div style=""color:white; font-size:60px;"">+</div>","null","html-keyboard-response","146","304922","0.0-8.0-0.17","fixation","","","","",""
"1297.48500000278","Stimuli/Hangul_F29.bmp","190","image-keyboard-response","147","306221","0.0-8.0-1.17","test",".","",".","",""
"null","<div style=""color:white; font-size:60px;"">+</div>","null","html-keyboard-response","148","307223","0.0-8.0-0.18","fixation","","","","",""
"1195.7349999865983","Stimuli/Hangul_M31.bmp","188","image-keyboard-response","149","308420","0.0-8.0-1.18","test",",","",",","",""
"null","<div style=""color:white; font-size:60px;"">+</div>","null","html-keyboard-response","150","309424","0.0-8.0-0.19","fixation","","","","",""
"1410.4300000035437","Stimuli/Hangul_F37.bmp","190","image-keyboard-response","151","310836","0.0-8.0-1.19","test",".","",".","",""
"null","<div style=""color:white; font-size:60px;"">+</div>","null","html-keyboard-response","152","311839","0.0-8.0-0.20","fixation","","","","",""
"1292.089999988093","Stimuli/Hangul_F43.bmp","188","image-keyboard-response","153","313132","0.0-8.0-1.20","test",".","",",","",""
"null","<div style=""color:white; font-size:60px;"">+</div>","null","html-keyboard-response","154","314136","0.0-8.0-0.21","fixation","","","","",""
"1395.040000003064","Stimuli/Hangul_M33.bmp","188","image-keyboard-response","155","315532","0.0-8.0-1.21","test",",","",",","",""
"null","<div style=""color:white; font-size:60px;"">+</div>","null","html-keyboard-response","156","316535","0.0-8.0-0.22","fixation","","","","",""
"1483.284999994794","Stimuli/Hangul_F27.bmp","188","image-keyboard-response","157","318020","0.0-8.0-1.22","test",".","",",","",""
"null","<div style=""color:white; font-size:60px;"">+</div>","null","html-keyboard-response","158","319022","0.0-8.0-0.23","fixation","","","","",""
"1557.0749999897089","Stimuli/Hangul_M30.bmp","188","image-keyboard-response","159","320580","0.0-8.0-1.23","test",",","",",","",""
"null","<div style=""color:white; font-size:60px;"">+</div>","null","html-keyboard-response","160","321586","0.0-8.0-0.24","fixation","","","","",""
"1312.7650000096764","Stimuli/Hangul_F30.bmp","190","image-keyboard-response","161","322900","0.0-8.0-1.24","test",".","",".","",""
"null","<div style=""color:white; font-size:60px;"">+</div>","null","html-keyboard-response","162","323904","0.0-8.0-0.25","fixation","","","","",""
"1178.9849999913713","Stimuli/Hangul_M27.bmp","188","image-keyboard-response","163","325083","0.0-8.0-1.25","test",",","",",","",""
"null","<div style=""color:white; font-size:60px;"">+</div>","null","html-keyboard-response","164","326088","0.0-8.0-0.26","fixation","","","","",""
"1098.9100000006147","Stimuli/Hangul_F25.bmp","188","image-keyboard-response","165","327187","0.0-8.0-1.26","test",".","",",","",""
"null","<div style=""color:white; font-size:60px;"">+</div>","null","html-keyboard-response","166","328191","0.0-8.0-0.27","fixation","","","","",""
"1060.395000007702","Stimuli/Hangul_M46.bmp","188","image-keyboard-response","167","329252","0.0-8.0-1.27","test",",","",",","",""
"null","<div style=""color:white; font-size:60px;"">+</div>","null","html-keyboard-response","168","330255","0.0-8.0-0.28","fixation","","","","",""
"1003.9950000063982","Stimuli/Hangul_M40.bmp","188","image-keyboard-response","169","331259","0.0-8.0-1.28","test",",","",",","",""
"null","<div style=""color:white; font-size:60px;"">+</div>","null","html-keyboard-response","170","332262","0.0-8.0-0.29","fixation","","","","",""
"4102.784999995492","Stimuli/Hangul_F42.bmp","190","image-keyboard-response","171","336366","0.0-8.0-1.29","test",".","",".","",""
"null","<div style=""color:white; font-size:60px;"">+</div>","null","html-keyboard-response","172","337369","0.0-8.0-0.30","fixation","","","","",""
"1275.6800000061048","Stimuli/Hangul_M42.bmp","188","image-keyboard-response","173","338647","0.0-8.0-1.30","test",",","",",","",""
"null","<div style=""color:white; font-size:60px;"">+</div>","null","html-keyboard-response","174","339652","0.0-8.0-0.31","fixation","","","","",""
"1146.180000010645","Stimuli/Hangul_M29.bmp","188","image-keyboard-response","175","340799","0.0-8.0-1.31","test",",","",",","",""
"null","<div style=""color:white; font-size:60px;"">+</div>","null","html-keyboard-response","176","341803","0.0-8.0-0.32","fixation","","","","",""
"1315.180000005057","Stimuli/Hangul_F40.bmp","188","image-keyboard-response","177","343118","0.0-8.0-1.32","test",".","",",","",""
"null","<div style=""color:white; font-size:60px;"">+</div>","null","html-keyboard-response","178","344122","0.0-8.0-0.33","fixation","","","","",""
"1971.1850000021514","Stimuli/Hangul_F49.bmp","188","image-keyboard-response","179","346094","0.0-8.0-1.33","test",".","",",","",""
"null","<div style=""color:white; font-size:60px;"">+</div>","null","html-keyboard-response","180","347098","0.0-8.0-0.34","fixation","","","","",""
"1531.8350000015926","Stimuli/Hangul_M36.bmp","188","image-keyboard-response","181","348630","0.0-8.0-1.34","test",",","",",","",""
"null","<div style=""color:white; font-size:60px;"">+</div>","null","html-keyboard-response","182","349634","0.0-8.0-0.35","fixation","","","","",""
"1699.3550000042887","Stimuli/Hangul_F38.bmp","188","image-keyboard-response","183","351335","0.0-8.0-1.35","test",".","",",","",""
"null","<div style=""color:white; font-size:60px;"">+</div>","null","html-keyboard-response","184","352340","0.0-8.0-0.36","fixation","","","","",""
"1329.4949999981327","Stimuli/Hangul_M35.bmp","188","image-keyboard-response","185","353670","0.0-8.0-1.36","test",",","",",","",""
"null","<div style=""color:white; font-size:60px;"">+</div>","null","html-keyboard-response","186","354676","0.0-8.0-0.37","fixation","","","","",""
"1696.909999998752","Stimuli/Hangul_M41.bmp","188","image-keyboard-response","187","356374","0.0-8.0-1.37","test",",","",",","",""
"null","<div style=""color:white; font-size:60px;"">+</div>","null","html-keyboard-response","188","357376","0.0-8.0-0.38","fixation","","","","",""
"5365.464999995311","Stimuli/Hangul_F35.bmp","190","image-keyboard-response","189","362742","0.0-8.0-1.38","test",".","",".","",""
"null","<div style=""color:white; font-size:60px;"">+</div>","null","html-keyboard-response","190","363746","0.0-8.0-0.39","fixation","","","","",""
"1937.1850000025006","Stimuli/Hangul_F48.bmp","188","image-keyboard-response","191","365685","0.0-8.0-1.39","test",".","",",","",""
"null","<div style=""color:white; font-size:60px;"">+</div>","null","html-keyboard-response","192","366691","0.0-8.0-0.40","fixation","","","","",""
"1712.904999993043","Stimuli/Hangul_F34.bmp","190","image-keyboard-response","193","368405","0.0-8.0-1.40","test",".","",".","",""
"null","<div style=""color:white; font-size:60px;"">+</div>","null","html-keyboard-response","194","369412","0.0-8.0-0.41","fixation","","","","",""
"1847.9200000001583","Stimuli/Hangul_F41.bmp","188","image-keyboard-response","195","371260","0.0-8.0-1.41","test",".","",",","",""
"null","<div style=""color:white; font-size:60px;"">+</div>","null","html-keyboard-response","196","372266","0.0-8.0-0.42","fixation","","","","",""
"1784.8099999973783","Stimuli/Hangul_F45.bmp","188","image-keyboard-response","197","374052","0.0-8.0-1.42","test",".","",",","",""
"null","<div style=""color:white; font-size:60px;"">+</div>","null","html-keyboard-response","198","375058","0.0-8.0-0.43","fixation","","","","",""
"1385.3649999946356","Stimuli/Hangul_M45.bmp","188","image-keyboard-response","199","376444","0.0-8.0-1.43","test",",","",",","",""
"null","<div style=""color:white; font-size:60px;"">+</div>","null","html-keyboard-response","200","377450","0.0-8.0-0.44","fixation","","","","",""
"3420.719999994617","Stimuli/Hangul_F31.bmp","190","image-keyboard-response","201","380872","0.0-8.0-1.44","test",".","",".","",""
"null","<div style=""color:white; font-size:60px;"">+</div>","null","html-keyboard-response","202","381876","0.0-8.0-0.45","fixation","","","","",""
"2680.0599999987753","Stimuli/Hangul_M34.bmp","188","image-keyboard-response","203","384557","0.0-8.0-1.45","test",",","",",","",""
"null","<div style=""color:white; font-size:60px;"">+</div>","null","html-keyboard-response","204","385563","0.0-8.0-0.46","fixation","","","","",""
"1016.0449999966659","Stimuli/Hangul_M38.bmp","188","image-keyboard-response","205","386580","0.0-8.0-1.46","test",",","",",","",""
"null","<div style=""color:white; font-size:60px;"">+</div>","null","html-keyboard-response","206","387581","0.0-8.0-0.47","fixation","","","","",""
"1902.4300000019139","Stimuli/Hangul_M26.bmp","188","image-keyboard-response","207","389484","0.0-8.0-1.47","test",",","",",","",""
"null","<div style=""color:white; font-size:60px;"">+</div>","null","html-keyboard-response","208","390486","0.0-8.0-0.48","fixation","","","","",""
"1620.1449999934994","Stimuli/Hangul_M47.bmp","188","image-keyboard-response","209","392108","0.0-8.0-1.48","test",",","",",","",""
"null","<div style=""color:white; font-size:60px;"">+</div>","null","html-keyboard-response","210","393112","0.0-8.0-0.49","fixation","","","","",""
"1539.984999995795","Stimuli/Hangul_M37.bmp","188","image-keyboard-response","211","394653","0.0-8.0-1.49","test",",","",",","",""
"69366.94000000716","<p style=""color:white;"">Half way there! Please take a moment to rest.</p> <p style=""color:white;"">When you are ready to continue with block 3 of 4, press the space bar.</p> ","32","html-keyboard-response","212","464018","0.0-9.0","","","","","",""
"null","<div style=""color:white; font-size:60px;"">+</div>","null","html-keyboard-response","213","467023","0.0-10.0-0.0","fixation","","","","",""
"1331.4550000068266","Stimuli/Hangul_M51.bmp","188","image-keyboard-response","214","468356","0.0-10.0-1.0","test",",","",",","",""
"null","<div style=""color:white; font-size:60px;"">+</div>","null","html-keyboard-response","215","469357","0.0-10.0-0.1","fixation","","","","",""
"1140.7449999969685","Stimuli/Hangul_M52.bmp","188","image-keyboard-response","216","470498","0.0-10.0-1.1","test",",","",",","",""
"null","<div style=""color:white; font-size:60px;"">+</div>","null","html-keyboard-response","217","471502","0.0-10.0-0.2","fixation","","","","",""
"1315.3400000010151","Stimuli/Hangul_F68.bmp","190","image-keyboard-response","218","472818","0.0-10.0-1.2","test",".","",".","",""
"null","<div style=""color:white; font-size:60px;"">+</div>","null","html-keyboard-response","219","473822","0.0-10.0-0.3","fixation","","","","",""
"1043.4400000085589","Stimuli/Hangul_F55.bmp","188","image-keyboard-response","220","474866","0.0-10.0-1.3","test",".","",",","",""
"null","<div style=""color:white; font-size:60px;"">+</div>","null","html-keyboard-response","221","475870","0.0-10.0-0.4","fixation","","","","",""
"1811.0750000050757","Stimuli/Hangul_F67.bmp","188","image-keyboard-response","222","477682","0.0-10.0-1.4","test",".","",",","",""
"null","<div style=""color:white; font-size:60px;"">+</div>","null","html-keyboard-response","223","478687","0.0-10.0-0.5","fixation","","","","",""
"1426.9099999946775","Stimuli/Hangul_F57.bmp","190","image-keyboard-response","224","480115","0.0-10.0-1.5","test",".","",".","",""
"null","<div style=""color:white; font-size:60px;"">+</div>","null","html-keyboard-response","225","481118","0.0-10.0-0.6","fixation","","","","",""
"2442.330000005313","Stimuli/Hangul_M58.bmp","188","image-keyboard-response","226","483562","0.0-10.0-1.6","test",",","",",","",""
"null","<div style=""color:white; font-size:60px;"">+</div>","null","html-keyboard-response","227","484568","0.0-10.0-0.7","fixation","","","","",""
"4221.149999997579","Stimuli/Hangul_M66.bmp","188","image-keyboard-response","228","488790","0.0-10.0-1.7","test",",","",",","",""
"null","<div style=""color:white; font-size:60px;"">+</div>","null","html-keyboard-response","229","489792","0.0-10.0-0.8","fixation","","","","",""
"1876.7749999969965","Stimuli/Hangul_M62.bmp","188","image-keyboard-response","230","491670","0.0-10.0-1.8","test",",","",",","",""
"null","<div style=""color:white; font-size:60px;"">+</div>","null","html-keyboard-response","231","492676","0.0-10.0-0.9","fixation","","","","",""
"4791.109999991022","Stimuli/Hangul_M50.bmp","190","image-keyboard-response","232","497468","0.0-10.0-1.9","test",",","",".","",""
"null","<div style=""color:white; font-size:60px;"">+</div>","null","html-keyboard-response","233","498471","0.0-10.0-0.10","fixation","","","","",""
"3050.729999988107","Stimuli/Hangul_M57.bmp","188","image-keyboard-response","234","501523","0.0-10.0-1.10","test",",","",",","",""
"null","<div style=""color:white; font-size:60px;"">+</div>","null","html-keyboard-response","235","502529","0.0-10.0-0.11","fixation","","","","",""
"2098.054999994929","Stimuli/Hangul_F64.bmp","190","image-keyboard-response","236","504628","0.0-10.0-1.11","test",".","",".","",""
"null","<div style=""color:white; font-size:60px;"">+</div>","null","html-keyboard-response","237","505629","0.0-10.0-0.12","fixation","","","","",""
"2761.629999993602","Stimuli/Hangul_F51.bmp","190","image-keyboard-response","238","508392","0.0-10.0-1.12","test",".","",".","",""
"null","<div style=""color:white; font-size:60px;"">+</div>","null","html-keyboard-response","239","509393","0.0-10.0-0.13","fixation","","","","",""
"3060.510000010254","Stimuli/Hangul_M67.bmp","188","image-keyboard-response","240","512455","0.0-10.0-1.13","test",",","",",","",""
"null","<div style=""color:white; font-size:60px;"">+</div>","null","html-keyboard-response","241","513459","0.0-10.0-0.14","fixation","","","","",""
"1667.119999998249","Stimuli/Hangul_M73.bmp","188","image-keyboard-response","242","515128","0.0-10.0-1.14","test",",","",",","",""
"null","<div style=""color:white; font-size:60px;"">+</div>","null","html-keyboard-response","243","516131","0.0-10.0-0.15","fixation","","","","",""
"1226.989999995567","Stimuli/Hangul_M68.bmp","188","image-keyboard-response","244","517358","0.0-10.0-1.15","test",",","",",","",""
"null","<div style=""color:white; font-size:60px;"">+</div>","null","html-keyboard-response","245","518359","0.0-10.0-0.16","fixation","","","","",""
"1710.6749999948079","Stimuli/Hangul_F74.bmp","190","image-keyboard-response","246","520071","0.0-10.0-1.16","test",".","",".","",""
"null","<div style=""color:white; font-size:60px;"">+</div>","null","html-keyboard-response","247","521072","0.0-10.0-0.17","fixation","","","","",""
"3129.1800000035437","Stimuli/Hangul_F65.bmp","190","image-keyboard-response","248","524202","0.0-10.0-1.17","test",".","",".","",""
"null","<div style=""color:white; font-size:60px;"">+</div>","null","html-keyboard-response","249","525206","0.0-10.0-0.18","fixation","","","","",""
"1291.8199999985518","Stimuli/Hangul_M61.bmp","188","image-keyboard-response","250","526500","0.0-10.0-1.18","test",",","",",","",""
"null","<div style=""color:white; font-size:60px;"">+</div>","null","html-keyboard-response","251","527502","0.0-10.0-0.19","fixation","","","","",""
"2155.80000000773","Stimuli/Hangul_F73.bmp","190","image-keyboard-response","252","529659","0.0-10.0-1.19","test",".","",".","",""
"null","<div style=""color:white; font-size:60px;"">+</div>","null","html-keyboard-response","253","530662","0.0-10.0-0.20","fixation","","","","",""
"2098.7000000022817","Stimuli/Hangul_F61.bmp","190","image-keyboard-response","254","532762","0.0-10.0-1.20","test",".","",".","",""
"null","<div style=""color:white; font-size:60px;"">+</div>","null","html-keyboard-response","255","533766","0.0-10.0-0.21","fixation","","","","",""
"1426.9299999868963","Stimuli/Hangul_F56.bmp","190","image-keyboard-response","256","535194","0.0-10.0-1.21","test",".","",".","",""
"null","<div style=""color:white; font-size:60px;"">+</div>","null","html-keyboard-response","257","536197","0.0-10.0-0.22","fixation","","","","",""
"989.6399999997811","Stimuli/Hangul_M63.bmp","188","image-keyboard-response","258","537187","0.0-10.0-1.22","test",",","",",","",""
"null","<div style=""color:white; font-size:60px;"">+</div>","null","html-keyboard-response","259","538193","0.0-10.0-0.23","fixation","","","","",""
"2990.560000005644","Stimuli/Hangul_M72.bmp","188","image-keyboard-response","260","541184","0.0-10.0-1.23","test",",","",",","",""
"null","<div style=""color:white; font-size:60px;"">+</div>","null","html-keyboard-response","261","542187","0.0-10.0-0.24","fixation","","","","",""
"1187.7799999929266","Stimuli/Hangul_M69.bmp","188","image-keyboard-response","262","543376","0.0-10.0-1.24","test",",","",",","",""
"null","<div style=""color:white; font-size:60px;"">+</div>","null","html-keyboard-response","263","544379","0.0-10.0-0.25","fixation","","","","",""
"5697.969999993802","Stimuli/Hangul_M54.bmp","190","image-keyboard-response","264","550078","0.0-10.0-1.25","test",",","",".","",""
"null","<div style=""color:white; font-size:60px;"">+</div>","null","html-keyboard-response","265","551084","0.0-10.0-0.26","fixation","","","","",""
"1895.3350000083447","Stimuli/Hangul_F72.bmp","188","image-keyboard-response","266","552981","0.0-10.0-1.26","test",".","",",","",""
"null","<div style=""color:white; font-size:60px;"">+</div>","null","html-keyboard-response","267","553987","0.0-10.0-0.27","fixation","","","","",""
"1960.7650000107242","Stimuli/Hangul_M64.bmp","190","image-keyboard-response","268","555949","0.0-10.0-1.27","test",",","",".","",""
"null","<div style=""color:white; font-size:60px;"">+</div>","null","html-keyboard-response","269","556957","0.0-10.0-0.28","fixation","","","","",""
"2199.4550000090385","Stimuli/Hangul_M60.bmp","190","image-keyboard-response","270","559157","0.0-10.0-1.28","test",",","",".","",""
"null","<div style=""color:white; font-size:60px;"">+</div>","null","html-keyboard-response","271","560163","0.0-10.0-0.29","fixation","","","","",""
"1497.2999999881722","Stimuli/Hangul_M56.bmp","188","image-keyboard-response","272","561662","0.0-10.0-1.29","test",",","",",","",""
"null","<div style=""color:white; font-size:60px;"">+</div>","null","html-keyboard-response","273","562665","0.0-10.0-0.30","fixation","","","","",""
"1770.7499999960419","Stimuli/Hangul_M53.bmp","188","image-keyboard-response","274","564437","0.0-10.0-1.30","test",",","",",","",""
"null","<div style=""color:white; font-size:60px;"">+</div>","null","html-keyboard-response","275","565443","0.0-10.0-0.31","fixation","","","","",""
"1888.5449999943376","Stimuli/Hangul_F53.bmp","190","image-keyboard-response","276","567332","0.0-10.0-1.31","test",".","",".","",""
"null","<div style=""color:white; font-size:60px;"">+</div>","null","html-keyboard-response","277","568337","0.0-10.0-0.32","fixation","","","","",""
"1018.3149999938905","Stimuli/Hangul_F54.bmp","188","image-keyboard-response","278","569357","0.0-10.0-1.32","test",".","",",","",""
"null","<div style=""color:white; font-size:60px;"">+</div>","null","html-keyboard-response","279","570360","0.0-10.0-0.33","fixation","","","","",""
"1580.3049999958603","Stimuli/Hangul_M65.bmp","188","image-keyboard-response","280","571942","0.0-10.0-1.33","test",",","",",","",""
"null","<div style=""color:white; font-size:60px;"">+</div>","null","html-keyboard-response","281","572945","0.0-10.0-0.34","fixation","","","","",""
"3334.340000001248","Stimuli/Hangul_F69.bmp","190","image-keyboard-response","282","576280","0.0-10.0-1.34","test",".","",".","",""
"null","<div style=""color:white; font-size:60px;"">+</div>","null","html-keyboard-response","283","577284","0.0-10.0-0.35","fixation","","","","",""
"2290.9749999962514","Stimuli/Hangul_F52.bmp","188","image-keyboard-response","284","579576","0.0-10.0-1.35","test",".","",",","",""
"null","<div style=""color:white; font-size:60px;"">+</div>","null","html-keyboard-response","285","580581","0.0-10.0-0.36","fixation","","","","",""
"2083.9649999979883","Stimuli/Hangul_F58.bmp","188","image-keyboard-response","286","582665","0.0-10.0-1.36","test",".","",",","",""
"null","<div style=""color:white; font-size:60px;"">+</div>","null","html-keyboard-response","287","583671","0.0-10.0-0.37","fixation","","","","",""
"1383.560000002035","Stimuli/Hangul_M59.bmp","188","image-keyboard-response","288","585056","0.0-10.0-1.37","test",",","",",","",""
"null","<div style=""color:white; font-size:60px;"">+</div>","null","html-keyboard-response","289","586061","0.0-10.0-0.38","fixation","","","","",""
"2041.960000002291","Stimuli/Hangul_F50.bmp","188","image-keyboard-response","290","588104","0.0-10.0-1.38","test",".","",",","",""
"null","<div style=""color:white; font-size:60px;"">+</div>","null","html-keyboard-response","291","589108","0.0-10.0-0.39","fixation","","","","",""
"1507.064999997965","Stimuli/Hangul_F62.bmp","188","image-keyboard-response","292","590616","0.0-10.0-1.39","test",".","",",","",""
"null","<div style=""color:white; font-size:60px;"">+</div>","null","html-keyboard-response","293","591622","0.0-10.0-0.40","fixation","","","","",""
"1464.704999991227","Stimuli/Hangul_M55.bmp","188","image-keyboard-response","294","593088","0.0-10.0-1.40","test",",","",",","",""
"null","<div style=""color:white; font-size:60px;"">+</div>","null","html-keyboard-response","295","594094","0.0-10.0-0.41","fixation","","","","",""
"1473.0100000015227","Stimuli/Hangul_F60.bmp","190","image-keyboard-response","296","595568","0.0-10.0-1.41","test",".","",".","",""
"null","<div style=""color:white; font-size:60px;"">+</div>","null","html-keyboard-response","297","596574","0.0-10.0-0.42","fixation","","","","",""
"2834.3000000022585","Stimuli/Hangul_M70.bmp","188","image-keyboard-response","298","599409","0.0-10.0-1.42","test",",","",",","",""
"null","<div style=""color:white; font-size:60px;"">+</div>","null","html-keyboard-response","299","600410","0.0-10.0-0.43","fixation","","","","",""
"4193.129999999655","Stimuli/Hangul_M74.bmp","188","image-keyboard-response","300","604605","0.0-10.0-1.43","test",",","",",","",""
"null","<div style=""color:white; font-size:60px;"">+</div>","null","html-keyboard-response","301","605611","0.0-10.0-0.44","fixation","","","","",""
"1655.6450000061886","Stimuli/Hangul_F63.bmp","188","image-keyboard-response","302","607268","0.0-10.0-1.44","test",".","",",","",""
"null","<div style=""color:white; font-size:60px;"">+</div>","null","html-keyboard-response","303","608274","0.0-10.0-0.45","fixation","","","","",""
"1928.6600000050385","Stimuli/Hangul_F70.bmp","188","image-keyboard-response","304","610203","0.0-10.0-1.45","test",".","",",","",""
"null","<div style=""color:white; font-size:60px;"">+</div>","null","html-keyboard-response","305","611209","0.0-10.0-0.46","fixation","","","","",""
"1937.4749999988126","Stimuli/Hangul_F59.bmp","190","image-keyboard-response","306","613147","0.0-10.0-1.46","test",".","",".","",""
"null","<div style=""color:white; font-size:60px;"">+</div>","null","html-keyboard-response","307","614153","0.0-10.0-0.47","fixation","","","","",""
"2313.6349999986123","Stimuli/Hangul_M71.bmp","188","image-keyboard-response","308","616468","0.0-10.0-1.47","test",",","",",","",""
"null","<div style=""color:white; font-size:60px;"">+</div>","null","html-keyboard-response","309","617472","0.0-10.0-0.48","fixation","","","","",""
"2751.4999999984866","Stimuli/Hangul_F71.bmp","190","image-keyboard-response","310","620224","0.0-10.0-1.48","test",".","",".","",""
"null","<div style=""color:white; font-size:60px;"">+</div>","null","html-keyboard-response","311","621229","0.0-10.0-0.49","fixation","","","","",""
"2788.7400000035996","Stimuli/Hangul_F66.bmp","190","image-keyboard-response","312","624019","0.0-10.0-1.49","test",".","",".","",""
"2751.879999996163","<p style=""color:white;"">One more block to go! Please take a moment to rest.</p> <p style=""color:white;"">When you are ready to continue with block 4 of 4, press the space bar.</p> ","32","html-keyboard-response","313","626772","0.0-11.0","","","","","",""
"null","<div style=""color:white; font-size:60px;"">+</div>","null","html-keyboard-response","314","629783","0.0-12.0-0.0","fixation","","","","",""
"2576.4300000009825","Stimuli/Hangul_F88.bmp","190","image-keyboard-response","315","632361","0.0-12.0-1.0","test",".","",".","",""
"null","<div style=""color:white; font-size:60px;"">+</div>","null","html-keyboard-response","316","633363","0.0-12.0-0.1","fixation","","","","",""
"1949.8100000055274","Stimuli/Hangul_M79.bmp","188","image-keyboard-response","317","635313","0.0-12.0-1.1","test",",","",",","",""
"null","<div style=""color:white; font-size:60px;"">+</div>","null","html-keyboard-response","318","636315","0.0-12.0-0.2","fixation","","","","",""
"1757.7650000021094","Stimuli/Hangul_M94.bmp","188","image-keyboard-response","319","638074","0.0-12.0-1.2","test",",","",",","",""
"null","<div style=""color:white; font-size:60px;"">+</div>","null","html-keyboard-response","320","639076","0.0-12.0-0.3","fixation","","","","",""
"2828.9000000077067","Stimuli/Hangul_F95.bmp","190","image-keyboard-response","321","641905","0.0-12.0-1.3","test",".","",".","",""
"null","<div style=""color:white; font-size:60px;"">+</div>","null","html-keyboard-response","322","642912","0.0-12.0-0.4","fixation","","","","",""
"1712.5599999999395","Stimuli/Hangul_M85.bmp","188","image-keyboard-response","323","644625","0.0-12.0-1.4","test",",","",",","",""
"null","<div style=""color:white; font-size:60px;"">+</div>","null","html-keyboard-response","324","645628","0.0-12.0-0.5","fixation","","","","",""
"2252.795000007609","Stimuli/Hangul_F80.bmp","190","image-keyboard-response","325","647881","0.0-12.0-1.5","test",".","",".","",""
"null","<div style=""color:white; font-size:60px;"">+</div>","null","html-keyboard-response","326","648883","0.0-12.0-0.6","fixation","","","","",""
"1230.0200000026962","Stimuli/Hangul_M95.bmp","188","image-keyboard-response","327","650114","0.0-12.0-1.6","test",",","",",","",""
"null","<div style=""color:white; font-size:60px;"">+</div>","null","html-keyboard-response","328","651120","0.0-12.0-0.7","fixation","","","","",""
"1696.1349999910453","Stimuli/Hangul_F99.bmp","188","image-keyboard-response","329","652817","0.0-12.0-1.7","test",".","",",","",""
"null","<div style=""color:white; font-size:60px;"">+</div>","null","html-keyboard-response","330","653819","0.0-12.0-0.8","fixation","","","","",""
"2268.469999995432","Stimuli/Hangul_F77.bmp","190","image-keyboard-response","331","656089","0.0-12.0-1.8","test",".","",".","",""
"null","<div style=""color:white; font-size:60px;"">+</div>","null","html-keyboard-response","332","657095","0.0-12.0-0.9","fixation","","","","",""
"2072.5249999959487","Stimuli/Hangul_F82.bmp","190","image-keyboard-response","333","659169","0.0-12.0-1.9","test",".","",".","",""
"null","<div style=""color:white; font-size:60px;"">+</div>","null","html-keyboard-response","334","660174","0.0-12.0-0.10","fixation","","","","",""
"3933.2399999984773","Stimuli/Hangul_F76.bmp","190","image-keyboard-response","335","664108","0.0-12.0-1.10","test",".","",".","",""
"null","<div style=""color:white; font-size:60px;"">+</div>","null","html-keyboard-response","336","665115","0.0-12.0-0.11","fixation","","","","",""
"2110.9850000066217","Stimuli/Hangul_M89.bmp","188","image-keyboard-response","337","667227","0.0-12.0-1.11","test",",","",",","",""
"null","<div style=""color:white; font-size:60px;"">+</div>","null","html-keyboard-response","338","668233","0.0-12.0-0.12","fixation","","","","",""
"3598.4500000049593","Stimuli/Hangul_M86.bmp","188","image-keyboard-response","339","671833","0.0-12.0-1.12","test",",","",",","",""
"null","<div style=""color:white; font-size:60px;"">+</div>","null","html-keyboard-response","340","672839","0.0-12.0-0.13","fixation","","","","",""
"9666.949999998906","Stimuli/Hangul_F87.bmp","190","image-keyboard-response","341","682507","0.0-12.0-1.13","test",".","",".","",""
"null","<div style=""color:white; font-size:60px;"">+</div>","null","html-keyboard-response","342","683513","0.0-12.0-0.14","fixation","","","","",""
"2926.9749999948544","Stimuli/Hangul_F97.bmp","190","image-keyboard-response","343","686442","0.0-12.0-1.14","test",".","",".","",""
"null","<div style=""color:white; font-size:60px;"">+</div>","null","html-keyboard-response","344","687445","0.0-12.0-0.15","fixation","","","","",""
"6953.899999993155","Stimuli/Hangul_M87.bmp","190","image-keyboard-response","345","694400","0.0-12.0-1.15","test",",","",".","",""
"null","<div style=""color:white; font-size:60px;"">+</div>","null","html-keyboard-response","346","695406","0.0-12.0-0.16","fixation","","","","",""
"4571.325000011711","Stimuli/Hangul_F79.bmp","190","image-keyboard-response","347","699978","0.0-12.0-1.16","test",".","",".","",""
"null","<div style=""color:white; font-size:60px;"">+</div>","null","html-keyboard-response","348","700979","0.0-12.0-0.17","fixation","","","","",""
"4800.9299999976065","Stimuli/Hangul_M96.bmp","188","image-keyboard-response","349","705781","0.0-12.0-1.17","test",",","",",","",""
"null","<div style=""color:white; font-size:60px;"">+</div>","null","html-keyboard-response","350","706786","0.0-12.0-0.18","fixation","","","","",""
"4769.579999992857","Stimuli/Hangul_M91.bmp","188","image-keyboard-response","351","711556","0.0-12.0-1.18","test",",","",",","",""
"null","<div style=""color:white; font-size:60px;"">+</div>","null","html-keyboard-response","352","712559","0.0-12.0-0.19","fixation","","","","",""
"1948.29000000027","Stimuli/Hangul_F81.bmp","190","image-keyboard-response","353","714508","0.0-12.0-1.19","test",".","",".","",""
"null","<div style=""color:white; font-size:60px;"">+</div>","null","html-keyboard-response","354","715511","0.0-12.0-0.20","fixation","","","","",""
"1157.0599999977276","Stimuli/Hangul_F91.bmp","188","image-keyboard-response","355","716669","0.0-12.0-1.20","test",".","",",","",""
"null","<div style=""color:white; font-size:60px;"">+</div>","null","html-keyboard-response","356","717673","0.0-12.0-0.21","fixation","","","","",""
"2298.3749999984866","Stimuli/Hangul_F89.bmp","190","image-keyboard-response","357","719972","0.0-12.0-1.21","test",".","",".","",""
"null","<div style=""color:white; font-size:60px;"">+</div>","null","html-keyboard-response","358","720974","0.0-12.0-0.22","fixation","","","","",""
"1524.9749999929918","Stimuli/Hangul_F85.bmp","190","image-keyboard-response","359","722500","0.0-12.0-1.22","test",".","",".","",""
"null","<div style=""color:white; font-size:60px;"">+</div>","null","html-keyboard-response","360","723506","0.0-12.0-0.23","fixation","","","","",""
"1257.3499999998603","Stimuli/Hangul_M75.bmp","188","image-keyboard-response","361","724764","0.0-12.0-1.23","test",",","",",","",""
"null","<div style=""color:white; font-size:60px;"">+</div>","null","html-keyboard-response","362","725770","0.0-12.0-0.24","fixation","","","","",""
"962.0449999929406","Stimuli/Hangul_F98.bmp","188","image-keyboard-response","363","726733","0.0-12.0-1.24","test",".","",",","",""
"null","<div style=""color:white; font-size:60px;"">+</div>","null","html-keyboard-response","364","727739","0.0-12.0-0.25","fixation","","","","",""
"1247.9250000033062","Stimuli/Hangul_F83.bmp","190","image-keyboard-response","365","728987","0.0-12.0-1.25","test",".","",".","",""
"null","<div style=""color:white; font-size:60px;"">+</div>","null","html-keyboard-response","366","729992","0.0-12.0-0.26","fixation","","","","",""
"1210.494999992079","Stimuli/Hangul_M76.bmp","188","image-keyboard-response","367","731204","0.0-12.0-1.26","test",",","",",","",""
"null","<div style=""color:white; font-size:60px;"">+</div>","null","html-keyboard-response","368","732208","0.0-12.0-0.27","fixation","","","","",""
"1698.56499999878","Stimuli/Hangul_F96.bmp","190","image-keyboard-response","369","733907","0.0-12.0-1.27","test",".","",".","",""
"null","<div style=""color:white; font-size:60px;"">+</div>","null","html-keyboard-response","370","734910","0.0-12.0-0.28","fixation","","","","",""
"1116.5999999939231","Stimuli/Hangul_M98.bmp","188","image-keyboard-response","371","736028","0.0-12.0-1.28","test",",","",",","",""
"null","<div style=""color:white; font-size:60px;"">+</div>","null","html-keyboard-response","372","737031","0.0-12.0-0.29","fixation","","","","",""
"2012.6299999974435","Stimuli/Hangul_M92.bmp","188","image-keyboard-response","373","739044","0.0-12.0-1.29","test",",","",",","",""
"null","<div style=""color:white; font-size:60px;"">+</div>","null","html-keyboard-response","374","740048","0.0-12.0-0.30","fixation","","","","",""
"1106.6999999893596","Stimuli/Hangul_M90.bmp","188","image-keyboard-response","375","741155","0.0-12.0-1.30","test",",","",",","",""
"null","<div style=""color:white; font-size:60px;"">+</div>","null","html-keyboard-response","376","742159","0.0-12.0-0.31","fixation","","","","",""
"1131.005000002915","Stimuli/Hangul_M78.bmp","188","image-keyboard-response","377","743291","0.0-12.0-1.31","test",",","",",","",""
"null","<div style=""color:white; font-size:60px;"">+</div>","null","html-keyboard-response","378","744295","0.0-12.0-0.32","fixation","","","","",""
"1298.8100000075065","Stimuli/Hangul_F78.bmp","190","image-keyboard-response","379","745595","0.0-12.0-1.32","test",".","",".","",""
"null","<div style=""color:white; font-size:60px;"">+</div>","null","html-keyboard-response","380","746599","0.0-12.0-0.33","fixation","","","","",""
"1035.2750000020023","Stimuli/Hangul_M82.bmp","188","image-keyboard-response","381","747635","0.0-12.0-1.33","test",",","",",","",""
"null","<div style=""color:white; font-size:60px;"">+</div>","null","html-keyboard-response","382","748639","0.0-12.0-0.34","fixation","","","","",""
"1004.3100000038976","Stimuli/Hangul_M83.bmp","188","image-keyboard-response","383","749644","0.0-12.0-1.34","test",",","",",","",""
"null","<div style=""color:white; font-size:60px;"">+</div>","null","html-keyboard-response","384","750648","0.0-12.0-0.35","fixation","","","","",""
"1209.8599999881117","Stimuli/Hangul_F75.bmp","190","image-keyboard-response","385","751859","0.0-12.0-1.35","test",".","",".","",""
"null","<div style=""color:white; font-size:60px;"">+</div>","null","html-keyboard-response","386","752862","0.0-12.0-0.36","fixation","","","","",""
"1219.1900000034366","Stimuli/Hangul_F94.bmp","190","image-keyboard-response","387","754083","0.0-12.0-1.36","test",".","",".","",""
"null","<div style=""color:white; font-size:60px;"">+</div>","null","html-keyboard-response","388","755087","0.0-12.0-0.37","fixation","","","","",""
"1131.3999999983935","Stimuli/Hangul_M88.bmp","188","image-keyboard-response","389","756219","0.0-12.0-1.37","test",",","",",","",""
"null","<div style=""color:white; font-size:60px;"">+</div>","null","html-keyboard-response","390","757223","0.0-12.0-0.38","fixation","","","","",""
"1202.96499998949","Stimuli/Hangul_M97.bmp","188","image-keyboard-response","391","758426","0.0-12.0-1.38","test",",","",",","",""
"null","<div style=""color:white; font-size:60px;"">+</div>","null","html-keyboard-response","392","759432","0.0-12.0-0.39","fixation","","","","",""
"1218.4200000046985","Stimuli/Hangul_M80.bmp","188","image-keyboard-response","393","760652","0.0-12.0-1.39","test",",","",",","",""
"null","<div style=""color:white; font-size:60px;"">+</div>","null","html-keyboard-response","394","761655","0.0-12.0-0.40","fixation","","","","",""
"2018.5199999978067","Stimuli/Hangul_F84.bmp","190","image-keyboard-response","395","763674","0.0-12.0-1.40","test",".","",".","",""
"null","<div style=""color:white; font-size:60px;"">+</div>","null","html-keyboard-response","396","764676","0.0-12.0-0.41","fixation","","","","",""
"4574.769999991986","Stimuli/Hangul_F93.bmp","190","image-keyboard-response","397","769251","0.0-12.0-1.41","test",".","",".","",""
"null","<div style=""color:white; font-size:60px;"">+</div>","null","html-keyboard-response","398","770257","0.0-12.0-0.42","fixation","","","","",""
"2816.1850000033155","Stimuli/Hangul_F86.bmp","190","image-keyboard-response","399","773075","0.0-12.0-1.42","test",".","",".","",""
"null","<div style=""color:white; font-size:60px;"">+</div>","null","html-keyboard-response","400","774079","0.0-12.0-0.43","fixation","","","","",""
"1906.3599999935832","Stimuli/Hangul_F90.bmp","188","image-keyboard-response","401","775986","0.0-12.0-1.43","test",".","",",","",""
"null","<div style=""color:white; font-size:60px;"">+</div>","null","html-keyboard-response","402","776990","0.0-12.0-0.44","fixation","","","","",""
"2186.5150000085123","Stimuli/Hangul_M84.bmp","190","image-keyboard-response","403","779178","0.0-12.0-1.44","test",",","",".","",""
"null","<div style=""color:white; font-size:60px;"">+</div>","null","html-keyboard-response","404","780181","0.0-12.0-0.45","fixation","","","","",""
"4030.9500000003027","Stimuli/Hangul_F92.bmp","190","image-keyboard-response","405","784212","0.0-12.0-1.45","test",".","",".","",""
"null","<div style=""color:white; font-size:60px;"">+</div>","null","html-keyboard-response","406","785216","0.0-12.0-0.46","fixation","","","","",""
"1266.3900000043213","Stimuli/Hangul_M77.bmp","188","image-keyboard-response","407","786483","0.0-12.0-1.46","test",",","",",","",""
"null","<div style=""color:white; font-size:60px;"">+</div>","null","html-keyboard-response","408","787487","0.0-12.0-0.47","fixation","","","","",""
"1011.2700000026962","Stimuli/Hangul_M99.bmp","188","image-keyboard-response","409","788499","0.0-12.0-1.47","test",",","",",","",""
"null","<div style=""color:white; font-size:60px;"">+</div>","null","html-keyboard-response","410","789503","0.0-12.0-0.48","fixation","","","","",""
"931.205000000773","Stimuli/Hangul_M81.bmp","188","image-keyboard-response","411","790435","0.0-12.0-1.48","test",",","",",","",""
"null","<div style=""color:white; font-size:60px;"">+</div>","null","html-keyboard-response","412","791441","0.0-12.0-0.49","fixation","","","","",""
"937.0999999955529","Stimuli/Hangul_M93.bmp","188","image-keyboard-response","413","792379","0.0-12.0-1.49","test",",","",",","",""
"2703.8399999873945","<p style=""color:white;"">Phase I of the experiment is complete.</p> <p style=""color:white;"">Press the space bar to proceed to Phase II of the experiment.</p> ","32","html-keyboard-response","414","795084","0.0-13.0","","","","","",""
"31293.539999998757","<p style=""color:white;"">Now we are interested in how well you can predict patterns in the series of figures. You will be asked to predict whether the next figure in the series is more male-like or female-like. When you see the <q>Next Figure</q> prompt, press the corresponding response keys to indicate your prediction: </p><p style=""color:white;""> Male &#8594 <q>,</q> (comma)</p><p style=""color:white;""> Female &#8594 <q>.</q> (period)</p><p style=""color:white;"">The actual figure will then appear on the screen. After you see the figure, please guess the assigned gender with response keys. </p><p style=""color:white;"">As before, you will receive 2 cents for correctly classifying each figure.</p><p style=""color:white;"">Press either response keys to continue.</p>","188","html-keyboard-response","415","828383","0.0-14.0","","","","","",""
"16707.47000000847","<p style=""color:white;"">PREDICTION BONUS</p> <p style=""color:white;"">Your prediction accuracy is the total number of correct predictions you make over the 200 trials.</p> <p style=""color:white;"">In addition to the 2 cents per correct figure classification, you have the chance to receive a bonus of 40 dollars IF your accuracy is above average relative to previous participants.</p><p style=""color:white;"">If your accuracy is below average relative to previous participants, then you will not receive the 40 dollar bonus.</p><p style=""color:white;"">Press the space bar to continue.</p>","32","html-keyboard-response","416","845091","0.0-15.0","","","","","",""
"8891.984999994747","<p style=""color:white;"">Here are some examples.</p> <p style=""color:white;"">For each, predict whether the next figure looks more male-like or female-like. Then, when the figure appears, guess whether it looks more male-like or female-like and indicate your choice.</p> <p style=""color:white;"">Press the space bar to continue.</p>","32","html-keyboard-response","417","853984","0.0-16.0","","","","","",""
"3982.815000010305","<p style=""color:white;""> Next Figure: Male or Female? </p>","188","html-keyboard-response","418","859971","0.0-17.0-0.0","prediction_train","","","",",",""
"null","<div style=""color:white; font-size:60px;"">+</div>","null","html-keyboard-response","419","860978","0.0-17.0-1.0","fixation","","","","",""
"1261.4750000066124","Stimuli/Hangul_E1.bmp","188","image-keyboard-response","420","862242","0.0-17.0-2.0","c2_train",",","","","",","
"1790.8650000026682","<p style=""color:white;""> Next Figure: Male or Female? </p>","188","html-keyboard-response","421","864034","0.0-17.0-0.1","prediction_train","","","",",",""
"null","<div style=""color:white; font-size:60px;"">+</div>","null","html-keyboard-response","422","865040","0.0-17.0-1.1","fixation","","","","",""
"952.579999997397","Stimuli/Hangul_E2.bmp","190","image-keyboard-response","423","865994","0.0-17.0-2.1","c2_train",".","","","","."
"1375.1899999915622","<p style=""color:white;""> Next Figure: Male or Female? </p>","188","html-keyboard-response","424","867370","0.0-17.0-0.2","prediction_train","","","",",",""
"null","<div style=""color:white; font-size:60px;"">+</div>","null","html-keyboard-response","425","868375","0.0-17.0-1.2","fixation","","","","",""
"465.7299999962561","Stimuli/Hangul_E0.bmp","188","image-keyboard-response","426","868842","0.0-17.0-2.2","c2_train",",","","","",","
"2608.09499998868","<p style=""color:white;"">Let us begin! Press the space bar when you are ready to start block 1 of 4.</p> ","32","html-keyboard-response","427","871451","0.0-18.0","","","","","",""
"1184.3450000014855","<p style=""color:white;""> Next Figure: Male or Female? </p>","188","html-keyboard-response","428","874642","0.0-19.0-0.0","prediction","","","",",",""
"null","<div style=""color:white; font-size:60px;"">+</div>","null","html-keyboard-response","429","875648","0.0-19.0-1.0","fixation","","","","",""
"424.6549999952549","Stimuli/Hangul_F5.bmp","188","image-keyboard-response","430","876074","0.0-19.0-2.0","c2_test",".","","","",","
"798.6999999993714","<p style=""color:white;""> Next Figure: Male or Female? </p>","190","html-keyboard-response","431","876874","0.0-19.0-0.1","prediction","","","",".",""
"null","<div style=""color:white; font-size:60px;"">+</div>","null","html-keyboard-response","432","877877","0.0-19.0-1.1","fixation","","","","",""
"643.2799999893177","Stimuli/Hangul_F13.bmp","188","image-keyboard-response","433","878521","0.0-19.0-2.1","c2_test",".","","","",","
"1743.1849999993574","<p style=""color:white;""> Next Figure: Male or Female? </p>","190","html-keyboard-response","434","880265","0.0-19.0-0.2","prediction","","","",".",""
"null","<div style=""color:white; font-size:60px;"">+</div>","null","html-keyboard-response","435","881269","0.0-19.0-1.2","fixation","","","","",""
"668.020000011893","Stimuli/Hangul_F3.bmp","188","image-keyboard-response","436","881939","0.0-19.0-2.2","c2_test",".","","","",","
"1885.9800000063842","<p style=""color:white;""> Next Figure: Male or Female? </p>","188","html-keyboard-response","437","883825","0.0-19.0-0.3","prediction","","","",",",""
"null","<div style=""color:white; font-size:60px;"">+</div>","null","html-keyboard-response","438","884830","0.0-19.0-1.3","fixation","","","","",""
"514.1600000060862","Stimuli/Hangul_M3.bmp","188","image-keyboard-response","439","885345","0.0-19.0-2.3","c2_test",",","","","",","
"1319.115000005695","<p style=""color:white;""> Next Figure: Male or Female? </p>","190","html-keyboard-response","440","886665","0.0-19.0-0.4","prediction","","","",".",""
"null","<div style=""color:white; font-size:60px;"">+</div>","null","html-keyboard-response","441","887671","0.0-19.0-1.4","fixation","","","","",""
"433.38000000221655","Stimuli/Hangul_F14.bmp","190","image-keyboard-response","442","888105","0.0-19.0-2.4","c2_test",".","","","","."
"918.6350000090897","<p style=""color:white;""> Next Figure: Male or Female? </p>","190","html-keyboard-response","443","889025","0.0-19.0-0.5","prediction","","","",".",""
"null","<div style=""color:white; font-size:60px;"">+</div>","null","html-keyboard-response","444","890029","0.0-19.0-1.5","fixation","","","","",""
"587.3350000038045","Stimuli/Hangul_F15.bmp","188","image-keyboard-response","445","890617","0.0-19.0-2.5","c2_test",".","","","",","
"2088.3150000008754","<p style=""color:white;""> Next Figure: Male or Female? </p>","188","html-keyboard-response","446","892706","0.0-19.0-0.6","prediction","","","",",",""
"null","<div style=""color:white; font-size:60px;"">+</div>","null","html-keyboard-response","447","893711","0.0-19.0-1.6","fixation","","","","",""
"480.8049999992363","Stimuli/Hangul_F16.bmp","188","image-keyboard-response","448","894193","0.0-19.0-2.6","c2_test",".","","","",","
"1775.2699999982724","<p style=""color:white;""> Next Figure: Male or Female? </p>","188","html-keyboard-response","449","895969","0.0-19.0-0.7","prediction","","","",",",""
"null","<div style=""color:white; font-size:60px;"">+</div>","null","html-keyboard-response","450","896975","0.0-19.0-1.7","fixation","","","","",""
"424.7800000011921","Stimuli/Hangul_M10.bmp","188","image-keyboard-response","451","897401","0.0-19.0-2.7","c2_test",",","","","",","
"582.9349999985425","<p style=""color:white;""> Next Figure: Male or Female? </p>","190","html-keyboard-response","452","897985","0.0-19.0-0.8","prediction","","","",".",""
"null","<div style=""color:white; font-size:60px;"">+</div>","null","html-keyboard-response","453","898987","0.0-19.0-1.8","fixation","","","","",""
"460.88999998755753","Stimuli/Hangul_F21.bmp","190","image-keyboard-response","454","899449","0.0-19.0-2.8","c2_test",".","","","","."
"1063.2250000053318","<p style=""color:white;""> Next Figure: Male or Female? </p>","188","html-keyboard-response","455","900513","0.0-19.0-0.9","prediction","","","",",",""
"null","<div style=""color:white; font-size:60px;"">+</div>","null","html-keyboard-response","456","901517","0.0-19.0-1.9","fixation","","","","",""
"666.784999993979","Stimuli/Hangul_F8.bmp","190","image-keyboard-response","457","902185","0.0-19.0-2.9","c2_test",".","","","","."
"1832.3450000025332","<p style=""color:white;""> Next Figure: Male or Female? </p>","190","html-keyboard-response","458","904018","0.0-19.0-0.10","prediction","","","",".",""
"null","<div style=""color:white; font-size:60px;"">+</div>","null","html-keyboard-response","459","905020","0.0-19.0-1.10","fixation","","","","",""
"658.8950000004843","Stimuli/Hangul_M5.bmp","188","image-keyboard-response","460","905680","0.0-19.0-2.10","c2_test",",","","","",","
"687.5100000033854","<p style=""color:white;""> Next Figure: Male or Female? </p>","188","html-keyboard-response","461","906369","0.0-19.0-0.11","prediction","","","",",",""
"null","<div style=""color:white; font-size:60px;"">+</div>","null","html-keyboard-response","462","907375","0.0-19.0-1.11","fixation","","","","",""
"408.4549999970477","Stimuli/Hangul_M18.bmp","188","image-keyboard-response","463","907784","0.0-19.0-2.11","c2_test",",","","","",","
"1935.8249999932013","<p style=""color:white;""> Next Figure: Male or Female? </p>","188","html-keyboard-response","464","909720","0.0-19.0-0.12","prediction","","","",",",""
"null","<div style=""color:white; font-size:60px;"">+</div>","null","html-keyboard-response","465","910726","0.0-19.0-1.12","fixation","","","","",""
"456.995000000461","Stimuli/Hangul_F9.bmp","188","image-keyboard-response","466","911185","0.0-19.0-2.12","c2_test",".","","","",","
"806.9399999949383","<p style=""color:white;""> Next Figure: Male or Female? </p>","190","html-keyboard-response","467","911992","0.0-19.0-0.13","prediction","","","",".",""
"null","<div style=""color:white; font-size:60px;"">+</div>","null","html-keyboard-response","468","912996","0.0-19.0-1.13","fixation","","","","",""
"907.1399999957066","Stimuli/Hangul_M2.bmp","188","image-keyboard-response","469","913904","0.0-19.0-2.13","c2_test",",","","","",","
"871.3049999932991","<p style=""color:white;""> Next Figure: Male or Female? </p>","190","html-keyboard-response","470","914777","0.0-19.0-0.14","prediction","","","",".",""
"null","<div style=""color:white; font-size:60px;"">+</div>","null","html-keyboard-response","471","915781","0.0-19.0-1.14","fixation","","","","",""
"746.7900000046939","Stimuli/Hangul_F1.bmp","190","image-keyboard-response","472","916528","0.0-19.0-2.14","c2_test",".","","","","."
"847.2949999995762","<p style=""color:white;""> Next Figure: Male or Female? </p>","188","html-keyboard-response","473","917376","0.0-19.0-0.15","prediction","","","",",",""
"null","<div style=""color:white; font-size:60px;"">+</div>","null","html-keyboard-response","474","918380","0.0-19.0-1.15","fixation","","","","",""
"498.85999999241903","Stimuli/Hangul_F19.bmp","188","image-keyboard-response","475","918880","0.0-19.0-2.15","c2_test",".","","","",","
"1031.2899999989895","<p style=""color:white;""> Next Figure: Male or Female? </p>","188","html-keyboard-response","476","919912","0.0-19.0-0.16","prediction","","","",",",""
"null","<div style=""color:white; font-size:60px;"">+</div>","null","html-keyboard-response","477","920916","0.0-19.0-1.16","fixation","","","","",""
"419.6150000061607","Stimuli/Hangul_M11.bmp","188","image-keyboard-response","478","921336","0.0-19.0-2.16","c2_test",",","","","",","
"871.1400000029244","<p style=""color:white;""> Next Figure: Male or Female? </p>","190","html-keyboard-response","479","922208","0.0-19.0-0.17","prediction","","","",".",""
"null","<div style=""color:white; font-size:60px;"">+</div>","null","html-keyboard-response","480","923214","0.0-19.0-1.17","fixation","","","","",""
"1280.7299999985844","Stimuli/Hangul_M4.bmp","188","image-keyboard-response","481","924496","0.0-19.0-2.17","c2_test",",","","","",","
"824.1850000049453","<p style=""color:white;""> Next Figure: Male or Female? </p>","190","html-keyboard-response","482","925321","0.0-19.0-0.18","prediction","","","",".",""
"null","<div style=""color:white; font-size:60px;"">+</div>","null","html-keyboard-response","483","926323","0.0-19.0-1.18","fixation","","","","",""
"683.4249999956228","Stimuli/Hangul_M20.bmp","188","image-keyboard-response","484","927008","0.0-19.0-2.18","c2_test",",","","","",","
"935.1150000002235","<p style=""color:white;""> Next Figure: Male or Female? </p>","190","html-keyboard-response","485","927944","0.0-19.0-0.19","prediction","","","",".",""
"null","<div style=""color:white; font-size:60px;"">+</div>","null","html-keyboard-response","486","928946","0.0-19.0-1.19","fixation","","","","",""
"780.6049999926472","Stimuli/Hangul_M6.bmp","188","image-keyboard-response","487","929728","0.0-19.0-2.19","c2_test",",","","","",","
"903.1300000060583","<p style=""color:white;""> Next Figure: Male or Female? </p>","188","html-keyboard-response","488","930632","0.0-19.0-0.20","prediction","","","",",",""
"null","<div style=""color:white; font-size:60px;"">+</div>","null","html-keyboard-response","489","931635","0.0-19.0-1.20","fixation","","","","",""
"1108.1750000012107","Stimuli/Hangul_F4.bmp","190","image-keyboard-response","490","932744","0.0-19.0-2.20","c2_test",".","","","","."
"895.1550000056159","<p style=""color:white;""> Next Figure: Male or Female? </p>","190","html-keyboard-response","491","933640","0.0-19.0-0.21","prediction","","","",".",""
"null","<div style=""color:white; font-size:60px;"">+</div>","null","html-keyboard-response","492","934645","0.0-19.0-1.21","fixation","","","","",""
"624.8000000050524","Stimuli/Hangul_M8.bmp","188","image-keyboard-response","493","935272","0.0-19.0-2.21","c2_test",",","","","",","
"536.2250000034692","<p style=""color:white;""> Next Figure: Male or Female? </p>","188","html-keyboard-response","494","935809","0.0-19.0-0.22","prediction","","","",",",""
"null","<div style=""color:white; font-size:60px;"">+</div>","null","html-keyboard-response","495","936810","0.0-19.0-1.22","fixation","","","","",""
"436.3500000035856","Stimuli/Hangul_M15.bmp","188","image-keyboard-response","496","937247","0.0-19.0-2.22","c2_test",",","","","",","
"559.0599999995902","<p style=""color:white;""> Next Figure: Male or Female? </p>","188","html-keyboard-response","497","937807","0.0-19.0-0.23","prediction","","","",",",""
"null","<div style=""color:white; font-size:60px;"">+</div>","null","html-keyboard-response","498","938812","0.0-19.0-1.23","fixation","","","","",""
"458.3849999908125","Stimuli/Hangul_M0.bmp","188","image-keyboard-response","499","939271","0.0-19.0-2.23","c2_test",",","","","",","
"1055.1100000011502","<p style=""color:white;""> Next Figure: Male or Female? </p>","188","html-keyboard-response","500","940327","0.0-19.0-0.24","prediction","","","",",",""
"null","<div style=""color:white; font-size:60px;"">+</div>","null","html-keyboard-response","501","941331","0.0-19.0-1.24","fixation","","","","",""
"443.2449999876553","Stimuli/Hangul_M19.bmp","188","image-keyboard-response","502","941775","0.0-19.0-2.24","c2_test",",","","","",","
"487.1100000018487","<p style=""color:white;""> Next Figure: Male or Female? </p>","190","html-keyboard-response","503","942263","0.0-19.0-0.25","prediction","","","",".",""
"null","<div style=""color:white; font-size:60px;"">+</div>","null","html-keyboard-response","504","943269","0.0-19.0-1.25","fixation","","","","",""
"641.0499999910826","Stimuli/Hangul_M1.bmp","188","image-keyboard-response","505","943911","0.0-19.0-2.25","c2_test",",","","","",","
"590.8049999998184","<p style=""color:white;""> Next Figure: Male or Female? </p>","190","html-keyboard-response","506","944503","0.0-19.0-0.26","prediction","","","",".",""
"null","<div style=""color:white; font-size:60px;"">+</div>","null","html-keyboard-response","507","945505","0.0-19.0-1.26","fixation","","","","",""
"702.8450000070734","Stimuli/Hangul_M14.bmp","188","image-keyboard-response","508","946208","0.0-19.0-2.26","c2_test",",","","","",","
"470.14499999932013","<p style=""color:white;""> Next Figure: Male or Female? </p>","190","html-keyboard-response","509","946679","0.0-19.0-0.27","prediction","","","",".",""
"null","<div style=""color:white; font-size:60px;"">+</div>","null","html-keyboard-response","510","947683","0.0-19.0-1.27","fixation","","","","",""
"651.0350000025937","Stimuli/Hangul_F6.bmp","188","image-keyboard-response","511","948335","0.0-19.0-2.27","c2_test",".","","","",","
"415.05500000494067","<p style=""color:white;""> Next Figure: Male or Female? </p>","188","html-keyboard-response","512","948751","0.0-19.0-0.28","prediction","","","",",",""
"null","<div style=""color:white; font-size:60px;"">+</div>","null","html-keyboard-response","513","949754","0.0-19.0-1.28","fixation","","","","",""
"539.2649999994319","Stimuli/Hangul_M23.bmp","188","image-keyboard-response","514","950294","0.0-19.0-2.28","c2_test",",","","","",","
"855.7000000000698","<p style=""color:white;""> Next Figure: Male or Female? </p>","190","html-keyboard-response","515","951151","0.0-19.0-0.29","prediction","","","",".",""
"null","<div style=""color:white; font-size:60px;"">+</div>","null","html-keyboard-response","516","952155","0.0-19.0-1.29","fixation","","","","",""
"571.3249999971595","Stimuli/Hangul_F2.bmp","188","image-keyboard-response","517","952727","0.0-19.0-2.29","c2_test",".","","","",","
"486.3049999985378","<p style=""color:white;""> Next Figure: Male or Female? </p>","188","html-keyboard-response","518","953215","0.0-19.0-0.30","prediction","","","",",",""
"null","<div style=""color:white; font-size:60px;"">+</div>","null","html-keyboard-response","519","954221","0.0-19.0-1.30","fixation","","","","",""
"432.54999999771826","Stimuli/Hangul_M13.bmp","188","image-keyboard-response","520","954655","0.0-19.0-2.30","c2_test",",","","","",","
"423.2049999991432","<p style=""color:white;""> Next Figure: Male or Female? </p>","188","html-keyboard-response","521","955079","0.0-19.0-0.31","prediction","","","",",",""
"null","<div style=""color:white; font-size:60px;"">+</div>","null","html-keyboard-response","522","956085","0.0-19.0-1.31","fixation","","","","",""
"474.1850000136765","Stimuli/Hangul_F24.bmp","188","image-keyboard-response","523","956560","0.0-19.0-2.31","c2_test",".","","","",","
"742.0699999929639","<p style=""color:white;""> Next Figure: Male or Female? </p>","190","html-keyboard-response","524","957303","0.0-19.0-0.32","prediction","","","",".",""
"null","<div style=""color:white; font-size:60px;"">+</div>","null","html-keyboard-response","525","958307","0.0-19.0-1.32","fixation","","","","",""
"1338.9049999968847","Stimuli/Hangul_F12.bmp","190","image-keyboard-response","526","959647","0.0-19.0-2.32","c2_test",".","","","","."
"663.1000000052154","<p style=""color:white;""> Next Figure: Male or Female? </p>","190","html-keyboard-response","527","960311","0.0-19.0-0.33","prediction","","","",".",""
"null","<div style=""color:white; font-size:60px;"">+</div>","null","html-keyboard-response","528","961313","0.0-19.0-1.33","fixation","","","","",""
"460.3400000050897","Stimuli/Hangul_F17.bmp","188","image-keyboard-response","529","961775","0.0-19.0-2.33","c2_test",".","","","",","
"430.86500000208616","<p style=""color:white;""> Next Figure: Male or Female? </p>","188","html-keyboard-response","530","962207","0.0-19.0-0.34","prediction","","","",",",""
"null","<div style=""color:white; font-size:60px;"">+</div>","null","html-keyboard-response","531","963213","0.0-19.0-1.34","fixation","","","","",""
"465.0149999943096","Stimuli/Hangul_M7.bmp","188","image-keyboard-response","532","963678","0.0-19.0-2.34","c2_test",",","","","",","
"446.7799999983981","<p style=""color:white;""> Next Figure: Male or Female? </p>","188","html-keyboard-response","533","964126","0.0-19.0-0.35","prediction","","","",",",""
"null","<div style=""color:white; font-size:60px;"">+</div>","null","html-keyboard-response","534","965130","0.0-19.0-1.35","fixation","","","","",""
"875.5249999958323","Stimuli/Hangul_F10.bmp","190","image-keyboard-response","535","966006","0.0-19.0-2.35","c2_test",".","","","","."
"768.3699999906821","<p style=""color:white;""> Next Figure: Male or Female? </p>","188","html-keyboard-response","536","966776","0.0-19.0-0.36","prediction","","","",",",""
"null","<div style=""color:white; font-size:60px;"">+</div>","null","html-keyboard-response","537","967779","0.0-19.0-1.36","fixation","","","","",""
"394.32000000670087","Stimuli/Hangul_M9.bmp","188","image-keyboard-response","538","968174","0.0-19.0-2.36","c2_test",",","","","",","
"590.9049999900162","<p style=""color:white;""> Next Figure: Male or Female? </p>","188","html-keyboard-response","539","968767","0.0-19.0-0.37","prediction","","","",",",""
"null","<div style=""color:white; font-size:60px;"">+</div>","null","html-keyboard-response","540","969773","0.0-19.0-1.37","fixation","","","","",""
"415.86500000266824","Stimuli/Hangul_F7.bmp","188","image-keyboard-response","541","970190","0.0-19.0-2.37","c2_test",".","","","",","
"630.5600000050617","<p style=""color:white;""> Next Figure: Male or Female? </p>","190","html-keyboard-response","542","970822","0.0-19.0-0.38","prediction","","","",".",""
"null","<div style=""color:white; font-size:60px;"">+</div>","null","html-keyboard-response","543","971826","0.0-19.0-1.38","fixation","","","","",""
"1115.235000004759","Stimuli/Hangul_F0.bmp","188","image-keyboard-response","544","972942","0.0-19.0-2.38","c2_test",".","","","",","
"591.1699999996927","<p style=""color:white;""> Next Figure: Male or Female? </p>","190","html-keyboard-response","545","973534","0.0-19.0-0.39","prediction","","","",".",""
"null","<div style=""color:white; font-size:60px;"">+</div>","null","html-keyboard-response","546","974540","0.0-19.0-1.39","fixation","","","","",""
"408.7849999923492","Stimuli/Hangul_F18.bmp","190","image-keyboard-response","547","974950","0.0-19.0-2.39","c2_test",".","","","","."
"727.2050000028685","<p style=""color:white;""> Next Figure: Male or Female? </p>","188","html-keyboard-response","548","975678","0.0-19.0-0.40","prediction","","","",",",""
"null","<div style=""color:white; font-size:60px;"">+</div>","null","html-keyboard-response","549","976682","0.0-19.0-1.40","fixation","","","","",""
"419.8749999923166","Stimuli/Hangul_M17.bmp","188","image-keyboard-response","550","977103","0.0-19.0-2.40","c2_test",",","","","",","
"550.1199999998789","<p style=""color:white;""> Next Figure: Male or Female? </p>","188","html-keyboard-response","551","977654","0.0-19.0-0.41","prediction","","","",",",""
"null","<div style=""color:white; font-size:60px;"">+</div>","null","html-keyboard-response","552","978660","0.0-19.0-1.41","fixation","","","","",""
"424.8799999913899","Stimuli/Hangul_F20.bmp","188","image-keyboard-response","553","979086","0.0-19.0-2.41","c2_test",".","","","",","
"775.3799999918556","<p style=""color:white;""> Next Figure: Male or Female? </p>","188","html-keyboard-response","554","979862","0.0-19.0-0.42","prediction","","","",",",""
"null","<div style=""color:white; font-size:60px;"">+</div>","null","html-keyboard-response","555","980868","0.0-19.0-1.42","fixation","","","","",""
"377.08000000566244","Stimuli/Hangul_M12.bmp","188","image-keyboard-response","556","981246","0.0-19.0-2.42","c2_test",",","","","",","
"479.2100000049686","<p style=""color:white;""> Next Figure: Male or Female? </p>","190","html-keyboard-response","557","981726","0.0-19.0-0.43","prediction","","","",".",""
"null","<div style=""color:white; font-size:60px;"">+</div>","null","html-keyboard-response","558","982727","0.0-19.0-1.43","fixation","","","","",""
"1158.2500000076834","Stimuli/Hangul_F22.bmp","188","image-keyboard-response","559","983886","0.0-19.0-2.43","c2_test",".","","","",","
"551.339999990887","<p style=""color:white;""> Next Figure: Male or Female? </p>","190","html-keyboard-response","560","984438","0.0-19.0-0.44","prediction","","","",".",""
"null","<div style=""color:white; font-size:60px;"">+</div>","null","html-keyboard-response","561","985442","0.0-19.0-1.44","fixation","","","","",""
"819.4199999998091","Stimuli/Hangul_F11.bmp","188","image-keyboard-response","562","986262","0.0-19.0-2.44","c2_test",".","","","",","
"623.120000003837","<p style=""color:white;""> Next Figure: Male or Female? </p>","188","html-keyboard-response","563","986886","0.0-19.0-0.45","prediction","","","",",",""
"null","<div style=""color:white; font-size:60px;"">+</div>","null","html-keyboard-response","564","987890","0.0-19.0-1.45","fixation","","","","",""
"452.2500000020955","Stimuli/Hangul_F23.bmp","188","image-keyboard-response","565","988343","0.0-19.0-2.45","c2_test",".","","","",","
"470.0049999955809","<p style=""color:white;""> Next Figure: Male or Female? </p>","190","html-keyboard-response","566","988813","0.0-19.0-0.46","prediction","","","",".",""
"null","<div style=""color:white; font-size:60px;"">+</div>","null","html-keyboard-response","567","989820","0.0-19.0-1.46","fixation","","","","",""
"656.844999990426","Stimuli/Hangul_M16.bmp","188","image-keyboard-response","568","990478","0.0-19.0-2.46","c2_test",",","","","",","
"399.24499999324325","<p style=""color:white;""> Next Figure: Male or Female? </p>","190","html-keyboard-response","569","990878","0.0-19.0-0.47","prediction","","","",".",""
"null","<div style=""color:white; font-size:60px;"">+</div>","null","html-keyboard-response","570","991883","0.0-19.0-1.47","fixation","","","","",""
"697.7699999988545","Stimuli/Hangul_M24.bmp","188","image-keyboard-response","571","992582","0.0-19.0-2.47","c2_test",",","","","",","
"495.0600000011036","<p style=""color:white;""> Next Figure: Male or Female? </p>","190","html-keyboard-response","572","993078","0.0-19.0-0.48","prediction","","","",".",""
"null","<div style=""color:white; font-size:60px;"">+</div>","null","html-keyboard-response","573","994084","0.0-19.0-1.48","fixation","","","","",""
"577.0400000037625","Stimuli/Hangul_M21.bmp","188","image-keyboard-response","574","994661","0.0-19.0-2.48","c2_test",",","","","",","
"351.17999999783933","<p style=""color:white;""> Next Figure: Male or Female? </p>","188","html-keyboard-response","575","995013","0.0-19.0-0.49","prediction","","","",",",""
"null","<div style=""color:white; font-size:60px;"">+</div>","null","html-keyboard-response","576","996016","0.0-19.0-1.49","fixation","","","","",""
"540.9749999962514","Stimuli/Hangul_M22.bmp","188","image-keyboard-response","577","996557","0.0-19.0-2.49","c2_test",",","","","",","
"17890.199999994365","<p style=""color:white;"">Good job, block 1 complete! Please take a moment to rest.</p> <p style=""color:white;"">When you are ready to continue with block 2 of 4, press the space bar.</p> ","32","html-keyboard-response","578","1014448","0.0-20.0","","","","","",""
"1532.509999990114","<p style=""color:white;""> Next Figure: Male or Female? </p>","190","html-keyboard-response","579","1017985","0.0-21.0-0.0","prediction","","","",".",""
"null","<div style=""color:white; font-size:60px;"">+</div>","null","html-keyboard-response","580","1018989","0.0-21.0-1.0","fixation","","","","",""
"585.0449999996927","Stimuli/Hangul_M28.bmp","188","image-keyboard-response","581","1019576","0.0-21.0-2.0","c2_test",",","","","",","
"775.1850000058766","<p style=""color:white;""> Next Figure: Male or Female? </p>","190","html-keyboard-response","582","1020352","0.0-21.0-0.1","prediction","","","",".",""
"null","<div style=""color:white; font-size:60px;"">+</div>","null","html-keyboard-response","583","1021358","0.0-21.0-1.1","fixation","","","","",""
"713.0150000012945","Stimuli/Hangul_M34.bmp","188","image-keyboard-response","584","1022072","0.0-21.0-2.1","c2_test",",","","","",","
"399.4399999938905","<p style=""color:white;""> Next Figure: Male or Female? </p>","188","html-keyboard-response","585","1022472","0.0-21.0-0.2","prediction","","","",",",""
"null","<div style=""color:white; font-size:60px;"">+</div>","null","html-keyboard-response","586","1023476","0.0-21.0-1.2","fixation","","","","",""
"498.98000000370666","Stimuli/Hangul_M45.bmp","188","image-keyboard-response","587","1023975","0.0-21.0-2.2","c2_test",",","","","",","
"527.2800000091083","<p style=""color:white;""> Next Figure: Male or Female? </p>","188","html-keyboard-response","588","1024504","0.0-21.0-0.3","prediction","","","",",",""
"null","<div style=""color:white; font-size:60px;"">+</div>","null","html-keyboard-response","589","1025507","0.0-21.0-1.3","fixation","","","","",""
"411.36500000720844","Stimuli/Hangul_M35.bmp","188","image-keyboard-response","590","1025920","0.0-21.0-2.3","c2_test",",","","","",","
"470.7199999974109","<p style=""color:white;""> Next Figure: Male or Female? </p>","190","html-keyboard-response","591","1026392","0.0-21.0-0.4","prediction","","","",".",""
"null","<div style=""color:white; font-size:60px;"">+</div>","null","html-keyboard-response","592","1027396","0.0-21.0-1.4","fixation","","","","",""
"667.6450000086334","Stimuli/Hangul_F45.bmp","188","image-keyboard-response","593","1028065","0.0-21.0-2.4","c2_test",".","","","",","
"486.01500000222586","<p style=""color:white;""> Next Figure: Male or Female? </p>","190","html-keyboard-response","594","1028551","0.0-21.0-0.5","prediction","","","",".",""
"null","<div style=""color:white; font-size:60px;"">+</div>","null","html-keyboard-response","595","1029557","0.0-21.0-1.5","fixation","","","","",""
"712.9949999945238","Stimuli/Hangul_F27.bmp","190","image-keyboard-response","596","1030271","0.0-21.0-2.5","c2_test",".","","","","."
"351.410000002943","<p style=""color:white;""> Next Figure: Male or Female? </p>","188","html-keyboard-response","597","1030624","0.0-21.0-0.6","prediction","","","",",",""
"null","<div style=""color:white; font-size:60px;"">+</div>","null","html-keyboard-response","598","1031629","0.0-21.0-1.6","fixation","","","","",""
"408.8499999924097","Stimuli/Hangul_M44.bmp","188","image-keyboard-response","599","1032039","0.0-21.0-2.6","c2_test",",","","","",","
"375.50500000361353","<p style=""color:white;""> Next Figure: Male or Female? </p>","188","html-keyboard-response","600","1032415","0.0-21.0-0.7","prediction","","","",",",""
"null","<div style=""color:white; font-size:60px;"">+</div>","null","html-keyboard-response","601","1033419","0.0-21.0-1.7","fixation","","","","",""
"475.2850000075996","Stimuli/Hangul_F38.bmp","188","image-keyboard-response","602","1033895","0.0-21.0-2.7","c2_test",".","","","",","
"366.745000006631","<p style=""color:white;""> Next Figure: Male or Female? </p>","188","html-keyboard-response","603","1034263","0.0-21.0-0.8","prediction","","","",",",""
"null","<div style=""color:white; font-size:60px;"">+</div>","null","html-keyboard-response","604","1035267","0.0-21.0-1.8","fixation","","","","",""
"419.6550000051502","Stimuli/Hangul_F46.bmp","188","image-keyboard-response","605","1035687","0.0-21.0-2.8","c2_test",".","","","",","
"455.2199999887962","<p style=""color:white;""> Next Figure: Male or Female? </p>","188","html-keyboard-response","606","1036143","0.0-21.0-0.9","prediction","","","",",",""
"null","<div style=""color:white; font-size:60px;"">+</div>","null","html-keyboard-response","607","1037149","0.0-21.0-1.9","fixation","","","","",""
"369.7600000014063","Stimuli/Hangul_M40.bmp","188","image-keyboard-response","608","1037519","0.0-21.0-2.9","c2_test",",","","","",","
"463.18999999482185","<p style=""color:white;""> Next Figure: Male or Female? </p>","190","html-keyboard-response","609","1037983","0.0-21.0-0.10","prediction","","","",".",""
"null","<div style=""color:white; font-size:60px;"">+</div>","null","html-keyboard-response","610","1038989","0.0-21.0-1.10","fixation","","","","",""
"641.9949999982491","Stimuli/Hangul_F32.bmp","190","image-keyboard-response","611","1039632","0.0-21.0-2.10","c2_test",".","","","","."
"982.2600000042003","<p style=""color:white;""> Next Figure: Male or Female? </p>","188","html-keyboard-response","612","1040615","0.0-21.0-0.11","prediction","","","",",",""
"null","<div style=""color:white; font-size:60px;"">+</div>","null","html-keyboard-response","613","1041621","0.0-21.0-1.11","fixation","","","","",""
"465.11499999882653","Stimuli/Hangul_M49.bmp","188","image-keyboard-response","614","1042087","0.0-21.0-2.11","c2_test",",","","","",","
"430.6300000024494","<p style=""color:white;""> Next Figure: Male or Female? </p>","188","html-keyboard-response","615","1042519","0.0-21.0-0.12","prediction","","","",",",""
"null","<div style=""color:white; font-size:60px;"">+</div>","null","html-keyboard-response","616","1043525","0.0-21.0-1.12","fixation","","","","",""
"425.21499999566004","Stimuli/Hangul_M25.bmp","188","image-keyboard-response","617","1043951","0.0-21.0-2.12","c2_test",",","","","",","
"407.01999999862164","<p style=""color:white;""> Next Figure: Male or Female? </p>","188","html-keyboard-response","618","1044359","0.0-21.0-0.13","prediction","","","",",",""
"null","<div style=""color:white; font-size:60px;"">+</div>","null","html-keyboard-response","619","1045364","0.0-21.0-1.13","fixation","","","","",""
"409.679999996908","Stimuli/Hangul_M33.bmp","188","image-keyboard-response","620","1045775","0.0-21.0-2.13","c2_test",",","","","",","
"391.28500000503846","<p style=""color:white;""> Next Figure: Male or Female? </p>","188","html-keyboard-response","621","1046167","0.0-21.0-0.14","prediction","","","",",",""
"null","<div style=""color:white; font-size:60px;"">+</div>","null","html-keyboard-response","622","1047173","0.0-21.0-1.14","fixation","","","","",""
"793.0100000083912","Stimuli/Hangul_F29.bmp","190","image-keyboard-response","623","1047967","0.0-21.0-2.14","c2_test",".","","","","."
"2512.205000006361","<p style=""color:white;""> Next Figure: Male or Female? </p>","188","html-keyboard-response","624","1050480","0.0-21.0-0.15","prediction","","","",",",""
"null","<div style=""color:white; font-size:60px;"">+</div>","null","html-keyboard-response","625","1051486","0.0-21.0-1.15","fixation","","","","",""
"391.0650000034366","Stimuli/Hangul_F33.bmp","188","image-keyboard-response","626","1051879","0.0-21.0-2.15","c2_test",".","","","",","
"551.1499999994412","<p style=""color:white;""> Next Figure: Male or Female? </p>","188","html-keyboard-response","627","1052431","0.0-21.0-0.16","prediction","","","",",",""
"null","<div style=""color:white; font-size:60px;"">+</div>","null","html-keyboard-response","628","1053436","0.0-21.0-1.16","fixation","","","","",""
"465.2350000105798","Stimuli/Hangul_M37.bmp","188","image-keyboard-response","629","1053903","0.0-21.0-2.16","c2_test",",","","","",","
"471.14000000897795","<p style=""color:white;""> Next Figure: Male or Female? </p>","188","html-keyboard-response","630","1054375","0.0-21.0-0.17","prediction","","","",",",""
"null","<div style=""color:white; font-size:60px;"">+</div>","null","html-keyboard-response","631","1055376","0.0-21.0-1.17","fixation","","","","",""
"493.5550000083167","Stimuli/Hangul_M48.bmp","188","image-keyboard-response","632","1055870","0.0-21.0-2.17","c2_test",",","","","",","
"335.2850000085309","<p style=""color:white;""> Next Figure: Male or Female? </p>","190","html-keyboard-response","633","1056206","0.0-21.0-0.18","prediction","","","",".",""
"null","<div style=""color:white; font-size:60px;"">+</div>","null","html-keyboard-response","634","1057213","0.0-21.0-1.18","fixation","","","","",""
"409.0649999997113","Stimuli/Hangul_F44.bmp","190","image-keyboard-response","635","1057622","0.0-21.0-2.18","c2_test",".","","","","."
"607.1499999961816","<p style=""color:white;""> Next Figure: Male or Female? </p>","188","html-keyboard-response","636","1058230","0.0-21.0-0.19","prediction","","","",",",""
"null","<div style=""color:white; font-size:60px;"">+</div>","null","html-keyboard-response","637","1059236","0.0-21.0-1.19","fixation","","","","",""
"378.0149999947753","Stimuli/Hangul_M41.bmp","188","image-keyboard-response","638","1059614","0.0-21.0-2.19","c2_test",",","","","",","
"383.06000000750646","<p style=""color:white;""> Next Figure: Male or Female? </p>","188","html-keyboard-response","639","1059998","0.0-21.0-0.20","prediction","","","",",",""
"null","<div style=""color:white; font-size:60px;"">+</div>","null","html-keyboard-response","640","1061003","0.0-21.0-1.20","fixation","","","","",""
"412.1749999905005","Stimuli/Hangul_M42.bmp","188","image-keyboard-response","641","1061416","0.0-21.0-2.20","c2_test",",","","","",","
"357.26000000420026","<p style=""color:white;""> Next Figure: Male or Female? </p>","188","html-keyboard-response","642","1061774","0.0-21.0-0.21","prediction","","","",",",""
"null","<div style=""color:white; font-size:60px;"">+</div>","null","html-keyboard-response","643","1062779","0.0-21.0-1.21","fixation","","","","",""
"739.1199999982491","Stimuli/Hangul_F34.bmp","188","image-keyboard-response","644","1063518","0.0-21.0-2.21","c2_test",".","","","",","
"606.9100000022445","<p style=""color:white;""> Next Figure: Male or Female? </p>","190","html-keyboard-response","645","1064126","0.0-21.0-0.22","prediction","","","",".",""
"null","<div style=""color:white; font-size:60px;"">+</div>","null","html-keyboard-response","646","1065130","0.0-21.0-1.22","fixation","","","","",""
"475.2299999964889","Stimuli/Hangul_F31.bmp","190","image-keyboard-response","647","1065606","0.0-21.0-2.22","c2_test",".","","","","."
"918.720000001369","<p style=""color:white;""> Next Figure: Male or Female? </p>","188","html-keyboard-response","648","1066526","0.0-21.0-0.23","prediction","","","",",",""
"null","<div style=""color:white; font-size:60px;"">+</div>","null","html-keyboard-response","649","1067532","0.0-21.0-1.23","fixation","","","","",""
"881.0749999976251","Stimuli/Hangul_F30.bmp","190","image-keyboard-response","650","1068414","0.0-21.0-2.23","c2_test",".","","","","."
"639.1700000092387","<p style=""color:white;""> Next Figure: Male or Female? </p>","188","html-keyboard-response","651","1069054","0.0-21.0-0.24","prediction","","","",",",""
"null","<div style=""color:white; font-size:60px;"">+</div>","null","html-keyboard-response","652","1070058","0.0-21.0-1.24","fixation","","","","",""
"634.8549999967217","Stimuli/Hangul_F41.bmp","188","image-keyboard-response","653","1070694","0.0-21.0-2.24","c2_test",".","","","",","
"728.2199999899603","<p style=""color:white;""> Next Figure: Male or Female? </p>","188","html-keyboard-response","654","1071423","0.0-21.0-0.25","prediction","","","",",",""
"null","<div style=""color:white; font-size:60px;"">+</div>","null","html-keyboard-response","655","1072426","0.0-21.0-1.25","fixation","","","","",""
"386.3450000062585","Stimuli/Hangul_F43.bmp","188","image-keyboard-response","656","1072814","0.0-21.0-2.25","c2_test",".","","","",","
