"rt","stimulus","key_press","trial_type","trial_index","time_elapsed","internal_node_id","test_part","correct_response","C1_train","C1","A","C2"
"3752.860000007786","<p style=""color:white;"">Welcome to the experiment! Press any key to begin.</p>","66","html-keyboard-response","0","3763","0.0-0.0","","","","","",""
"23357.43500001263","<p style=""color:white;"">You will see a series of abstract figures. They are adaptations of signs in the Korean alphabet, but that is not important for this study. </p><p style=""color:white;"">Abstract figures sometimes have a more masculine or feminine shape. Here, each figure has already been assigned a gender as <q>Male</q> or <q>Female</q> by a panel of respondents in a pilot study. The respondents were not given specific instructions on how to do this, but were only told to use their intuition and to take into account the entire configuration of the stimulus. </p><p style=""color:white;"">Your task now is to guess the assigned gender of each figure. Please press the corresponding response keys to indicate your choice: </p><p style=""color:white;""> Male &#8594 <q>,</q> (comma)</p><p style=""color:white;""> Female &#8594 <q>.</q> (period)</p><p style=""color:white;"">Press either response keys to continue.</p>","190","html-keyboard-response","1","27123","0.0-1.0","","","","","",""
"1101806.3249999979","<p style=""color:white;"">Your choice is correct if it matches the gender assigned by the majority of respondents in the pilot study.</p> <p style=""color:white;"">For each correct choice you will receive 2 cents. There will be 200 trials divided into 4 blocks of 50 trials. You will be able to take a break after every 50 trials.</p> <p style=""color:white;"">Press the space bar to continue.</p>","32","html-keyboard-response","2","1128930","0.0-2.0","","","","","",""
"6966.059999991674","<p style=""color:white;"">Here are some examples.</p> <p style=""color:white;"">For each, guess whether the assigned figure is male-like or female-like and indicate your choice by pressing either response keys.</p> <p style=""color:white;"">Press the space bar to continue.</p>","32","html-keyboard-response","3","1135898","0.0-3.0","","","","","",""
"null","<div style=""color:white; font-size:60px;"">+</div>","null","html-keyboard-response","4","1138905","0.0-4.0-0.0","fixation","","","","",""
"3927.1549999976996","Stimuli/Hangul_E1.bmp","190","image-keyboard-response","5","1142834","0.0-4.0-1.0","c1_train",",",".","","",""
"null","<div style=""color:white; font-size:60px;"">+</div>","null","html-keyboard-response","6","1143839","0.0-4.0-0.1","fixation","","","","",""
"3137.2149999951944","Stimuli/Hangul_E0.bmp","188","image-keyboard-response","7","1146978","0.0-4.0-1.1","c1_train",",",",","","",""
"null","<div style=""color:white; font-size:60px;"">+</div>","null","html-keyboard-response","8","1147988","0.0-4.0-0.2","fixation","","","","",""
"4188.460000004619","Stimuli/Hangul_E2.bmp","190","image-keyboard-response","9","1152177","0.0-4.0-1.2","c1_train",".",".","","",""
"198413.4150000026","<p style=""color:white;"">Let us begin! Press the space bar when you are ready to start block 1 of 4.</p> ","32","html-keyboard-response","10","1350592","0.0-5.0","","","","","",""
"null","<div style=""color:white; font-size:60px;"">+</div>","null","html-keyboard-response","11","1353610","0.0-6.0-0.0","fixation","","","","",""
"1460.6349999955855","Stimuli/Hangul_F23.bmp","190","image-keyboard-response","12","1355072","0.0-6.0-1.0","test",".","",".","",""
"null","<div style=""color:white; font-size:60px;"">+</div>","null","html-keyboard-response","13","1356074","0.0-6.0-0.1","fixation","","","","",""
"1484.954999992624","Stimuli/Hangul_M9.bmp","188","image-keyboard-response","14","1357557","0.0-6.0-1.1","test",",","",",","",""
"null","<div style=""color:white; font-size:60px;"">+</div>","null","html-keyboard-response","15","1358568","0.0-6.0-0.2","fixation","","","","",""
"2252.6249999939464","Stimuli/Hangul_F8.bmp","188","image-keyboard-response","16","1360822","0.0-6.0-1.2","test",".","",",","",""
"null","<div style=""color:white; font-size:60px;"">+</div>","null","html-keyboard-response","17","1361832","0.0-6.0-0.3","fixation","","","","",""
"2035.6749999918975","Stimuli/Hangul_F9.bmp","190","image-keyboard-response","18","1363871","0.0-6.0-1.3","test",".","",".","",""
"null","<div style=""color:white; font-size:60px;"">+</div>","null","html-keyboard-response","19","1364879","0.0-6.0-0.4","fixation","","","","",""
"2349.3549999985844","Stimuli/Hangul_M8.bmp","190","image-keyboard-response","20","1367229","0.0-6.0-1.4","test",",","",".","",""
"null","<div style=""color:white; font-size:60px;"">+</div>","null","html-keyboard-response","21","1368238","0.0-6.0-0.5","fixation","","","","",""
"1997.8299999928568","Stimuli/Hangul_M18.bmp","190","image-keyboard-response","22","1370237","0.0-6.0-1.5","test",",","",".","",""
"null","<div style=""color:white; font-size:60px;"">+</div>","null","html-keyboard-response","23","1371247","0.0-6.0-0.6","fixation","","","","",""
"2453.9850000003353","Stimuli/Hangul_F15.bmp","190","image-keyboard-response","24","1373702","0.0-6.0-1.6","test",".","",".","",""
"null","<div style=""color:white; font-size:60px;"">+</div>","null","html-keyboard-response","25","1374709","0.0-6.0-0.7","fixation","","","","",""
"3087.0800000121817","Stimuli/Hangul_M24.bmp","188","image-keyboard-response","26","1377797","0.0-6.0-1.7","test",",","",",","",""
"null","<div style=""color:white; font-size:60px;"">+</div>","null","html-keyboard-response","27","1378808","0.0-6.0-0.8","fixation","","","","",""
"3228.434999997262","Stimuli/Hangul_F6.bmp","188","image-keyboard-response","28","1382037","0.0-6.0-1.8","test",".","",",","",""
"null","<div style=""color:white; font-size:60px;"">+</div>","null","html-keyboard-response","29","1383049","0.0-6.0-0.9","fixation","","","","",""
"2171.2699999916367","Stimuli/Hangul_M15.bmp","190","image-keyboard-response","30","1385221","0.0-6.0-1.9","test",",","",".","",""
"null","<div style=""color:white; font-size:60px;"">+</div>","null","html-keyboard-response","31","1386231","0.0-6.0-0.10","fixation","","","","",""
"2084.6600000078324","Stimuli/Hangul_F18.bmp","190","image-keyboard-response","32","1388317","0.0-6.0-1.10","test",".","",".","",""
"null","<div style=""color:white; font-size:60px;"">+</div>","null","html-keyboard-response","33","1389327","0.0-6.0-0.11","fixation","","","","",""
"1821.2550000024494","Stimuli/Hangul_M5.bmp","188","image-keyboard-response","34","1391149","0.0-6.0-1.11","test",",","",",","",""
"null","<div style=""color:white; font-size:60px;"">+</div>","null","html-keyboard-response","35","1392155","0.0-6.0-0.12","fixation","","","","",""
"2281.1249999941792","Stimuli/Hangul_M23.bmp","190","image-keyboard-response","36","1394437","0.0-6.0-1.12","test",",","",".","",""
"null","<div style=""color:white; font-size:60px;"">+</div>","null","html-keyboard-response","37","1395445","0.0-6.0-0.13","fixation","","","","",""
"2047.5750000043772","Stimuli/Hangul_M20.bmp","188","image-keyboard-response","38","1397493","0.0-6.0-1.13","test",",","",",","",""
"null","<div style=""color:white; font-size:60px;"">+</div>","null","html-keyboard-response","39","1398495","0.0-6.0-0.14","fixation","","","","",""
"2685.030000007944","Stimuli/Hangul_M21.bmp","188","image-keyboard-response","40","1401181","0.0-6.0-1.14","test",",","",",","",""
"null","<div style=""color:white; font-size:60px;"">+</div>","null","html-keyboard-response","41","1402192","0.0-6.0-0.15","fixation","","","","",""
"2724.1450000000186","Stimuli/Hangul_F10.bmp","190","image-keyboard-response","42","1404917","0.0-6.0-1.15","test",".","",".","",""
"null","<div style=""color:white; font-size:60px;"">+</div>","null","html-keyboard-response","43","1405922","0.0-6.0-0.16","fixation","","","","",""
"2538.0850000074133","Stimuli/Hangul_M14.bmp","188","image-keyboard-response","44","1408461","0.0-6.0-1.16","test",",","",",","",""
"null","<div style=""color:white; font-size:60px;"">+</div>","null","html-keyboard-response","45","1409465","0.0-6.0-0.17","fixation","","","","",""
"2283.194999996107","Stimuli/Hangul_F12.bmp","190","image-keyboard-response","46","1411749","0.0-6.0-1.17","test",".","",".","",""
"null","<div style=""color:white; font-size:60px;"">+</div>","null","html-keyboard-response","47","1412757","0.0-6.0-0.18","fixation","","","","",""
"1502.7399999962654","Stimuli/Hangul_M4.bmp","190","image-keyboard-response","48","1414261","0.0-6.0-1.18","test",",","",".","",""
"null","<div style=""color:white; font-size:60px;"">+</div>","null","html-keyboard-response","49","1415268","0.0-6.0-0.19","fixation","","","","",""
"2183.725000009872","Stimuli/Hangul_F0.bmp","188","image-keyboard-response","50","1417454","0.0-6.0-1.19","test",".","",",","",""
"null","<div style=""color:white; font-size:60px;"">+</div>","null","html-keyboard-response","51","1418463","0.0-6.0-0.20","fixation","","","","",""
"2021.764999997802","Stimuli/Hangul_M11.bmp","190","image-keyboard-response","52","1420486","0.0-6.0-1.20","test",",","",".","",""
"null","<div style=""color:white; font-size:60px;"">+</div>","null","html-keyboard-response","53","1421494","0.0-6.0-0.21","fixation","","","","",""
"2126.7399999923073","Stimuli/Hangul_F21.bmp","190","image-keyboard-response","54","1423622","0.0-6.0-1.21","test",".","",".","",""
"null","<div style=""color:white; font-size:60px;"">+</div>","null","html-keyboard-response","55","1424626","0.0-6.0-0.22","fixation","","","","",""
"2050.2049999921583","Stimuli/Hangul_M16.bmp","188","image-keyboard-response","56","1426678","0.0-6.0-1.22","test",",","",",","",""
"null","<div style=""color:white; font-size:60px;"">+</div>","null","html-keyboard-response","57","1427682","0.0-6.0-0.23","fixation","","","","",""
"2987.2449999966193","Stimuli/Hangul_M7.bmp","190","image-keyboard-response","58","1430670","0.0-6.0-1.23","test",",","",".","",""
"null","<div style=""color:white; font-size:60px;"">+</div>","null","html-keyboard-response","59","1431681","0.0-6.0-0.24","fixation","","","","",""
"3235.505000004312","Stimuli/Hangul_F20.bmp","190","image-keyboard-response","60","1434918","0.0-6.0-1.24","test",".","",".","",""
"null","<div style=""color:white; font-size:60px;"">+</div>","null","html-keyboard-response","61","1435920","0.0-6.0-0.25","fixation","","","","",""
"2876.440000007162","Stimuli/Hangul_M3.bmp","188","image-keyboard-response","62","1438798","0.0-6.0-1.25","test",",","",",","",""
"null","<div style=""color:white; font-size:60px;"">+</div>","null","html-keyboard-response","63","1439802","0.0-6.0-0.26","fixation","","","","",""
"2731.119999996852","Stimuli/Hangul_M17.bmp","190","image-keyboard-response","64","1442534","0.0-6.0-1.26","test",",","",".","",""
"null","<div style=""color:white; font-size:60px;"">+</div>","null","html-keyboard-response","65","1443537","0.0-6.0-0.27","fixation","","","","",""
"2179.740000006743","Stimuli/Hangul_F5.bmp","190","image-keyboard-response","66","1445718","0.0-6.0-1.27","test",".","",".","",""
"null","<div style=""color:white; font-size:60px;"">+</div>","null","html-keyboard-response","67","1446726","0.0-6.0-0.28","fixation","","","","",""
"2766.324999989709","Stimuli/Hangul_M0.bmp","188","image-keyboard-response","68","1449494","0.0-6.0-1.28","test",",","",",","",""
"null","<div style=""color:white; font-size:60px;"">+</div>","null","html-keyboard-response","69","1450497","0.0-6.0-0.29","fixation","","","","",""
"2202.555000010645","Stimuli/Hangul_F3.bmp","190","image-keyboard-response","70","1452702","0.0-6.0-1.29","test",".","",".","",""
"null","<div style=""color:white; font-size:60px;"">+</div>","null","html-keyboard-response","71","1453712","0.0-6.0-0.30","fixation","","","","",""
"1868.3299999977462","Stimuli/Hangul_M13.bmp","190","image-keyboard-response","72","1455581","0.0-6.0-1.30","test",",","",".","",""
"null","<div style=""color:white; font-size:60px;"">+</div>","null","html-keyboard-response","73","1456589","0.0-6.0-0.31","fixation","","","","",""
"2351.280000002589","Stimuli/Hangul_F1.bmp","190","image-keyboard-response","74","1458941","0.0-6.0-1.31","test",".","",".","",""
"null","<div style=""color:white; font-size:60px;"">+</div>","null","html-keyboard-response","75","1459945","0.0-6.0-0.32","fixation","","","","",""
"2235.7849999968894","Stimuli/Hangul_F22.bmp","188","image-keyboard-response","76","1462181","0.0-6.0-1.32","test",".","",",","",""
"null","<div style=""color:white; font-size:60px;"">+</div>","null","html-keyboard-response","77","1463192","0.0-6.0-0.33","fixation","","","","",""
"1444.6349999927916","Stimuli/Hangul_F17.bmp","190","image-keyboard-response","78","1464638","0.0-6.0-1.33","test",".","",".","",""
"null","<div style=""color:white; font-size:60px;"">+</div>","null","html-keyboard-response","79","1465648","0.0-6.0-0.34","fixation","","","","",""
"2164.304999998538","Stimuli/Hangul_F11.bmp","188","image-keyboard-response","80","1467813","0.0-6.0-1.34","test",".","",",","",""
"null","<div style=""color:white; font-size:60px;"">+</div>","null","html-keyboard-response","81","1468818","0.0-6.0-0.35","fixation","","","","",""
"2057.7999999949243","Stimuli/Hangul_M12.bmp","188","image-keyboard-response","82","1470877","0.0-6.0-1.35","test",",","",",","",""
"null","<div style=""color:white; font-size:60px;"">+</div>","null","html-keyboard-response","83","1471888","0.0-6.0-0.36","fixation","","","","",""
"1732.6249999897555","Stimuli/Hangul_M6.bmp","188","image-keyboard-response","84","1473621","0.0-6.0-1.36","test",",","",",","",""
"null","<div style=""color:white; font-size:60px;"">+</div>","null","html-keyboard-response","85","1474627","0.0-6.0-0.37","fixation","","","","",""
"2290.09500000393","Stimuli/Hangul_M1.bmp","190","image-keyboard-response","86","1476918","0.0-6.0-1.37","test",",","",".","",""
"null","<div style=""color:white; font-size:60px;"">+</div>","null","html-keyboard-response","87","1477922","0.0-6.0-0.38","fixation","","","","",""
"2396.2699999974575","Stimuli/Hangul_M19.bmp","190","image-keyboard-response","88","1480319","0.0-6.0-1.38","test",",","",".","",""
"null","<div style=""color:white; font-size:60px;"">+</div>","null","html-keyboard-response","89","1481323","0.0-6.0-0.39","fixation","","","","",""
"1738.5649999922607","Stimuli/Hangul_F24.bmp","190","image-keyboard-response","90","1483063","0.0-6.0-1.39","test",".","",".","",""
"null","<div style=""color:white; font-size:60px;"">+</div>","null","html-keyboard-response","91","1484071","0.0-6.0-0.40","fixation","","","","",""
"2022.7750000050291","Stimuli/Hangul_F7.bmp","188","image-keyboard-response","92","1486095","0.0-6.0-1.40","test",".","",",","",""
"null","<div style=""color:white; font-size:60px;"">+</div>","null","html-keyboard-response","93","1487100","0.0-6.0-0.41","fixation","","","","",""
"1250.5649999948218","Stimuli/Hangul_F4.bmp","190","image-keyboard-response","94","1488351","0.0-6.0-1.41","test",".","",".","",""
"null","<div style=""color:white; font-size:60px;"">+</div>","null","html-keyboard-response","95","1489359","0.0-6.0-0.42","fixation","","","","",""
"3294.8449999964796","Stimuli/Hangul_M10.bmp","190","image-keyboard-response","96","1492654","0.0-6.0-1.42","test",",","",".","",""
"null","<div style=""color:white; font-size:60px;"">+</div>","null","html-keyboard-response","97","1493665","0.0-6.0-0.43","fixation","","","","",""
"2332.7600000048988","Stimuli/Hangul_F14.bmp","188","image-keyboard-response","98","1495999","0.0-6.0-1.43","test",".","",",","",""
"null","<div style=""color:white; font-size:60px;"">+</div>","null","html-keyboard-response","99","1497000","0.0-6.0-0.44","fixation","","","","",""
"2572.9849999917205","Stimuli/Hangul_F13.bmp","190","image-keyboard-response","100","1499574","0.0-6.0-1.44","test",".","",".","",""
"null","<div style=""color:white; font-size:60px;"">+</div>","null","html-keyboard-response","101","1500585","0.0-6.0-0.45","fixation","","","","",""
"2987.909999996191","Stimuli/Hangul_F16.bmp","188","image-keyboard-response","102","1503574","0.0-6.0-1.45","test",".","",",","",""
"null","<div style=""color:white; font-size:60px;"">+</div>","null","html-keyboard-response","103","1504584","0.0-6.0-0.46","fixation","","","","",""
"2357.4499999957625","Stimuli/Hangul_F2.bmp","188","image-keyboard-response","104","1506942","0.0-6.0-1.46","test",".","",",","",""
"null","<div style=""color:white; font-size:60px;"">+</div>","null","html-keyboard-response","105","1507953","0.0-6.0-0.47","fixation","","","","",""
"2732.990000003949","Stimuli/Hangul_F19.bmp","190","image-keyboard-response","106","1510687","0.0-6.0-1.47","test",".","",".","",""
"null","<div style=""color:white; font-size:60px;"">+</div>","null","html-keyboard-response","107","1511695","0.0-6.0-0.48","fixation","","","","",""
"2358.4050000063144","Stimuli/Hangul_M22.bmp","188","image-keyboard-response","108","1514054","0.0-6.0-1.48","test",",","",",","",""
"null","<div style=""color:white; font-size:60px;"">+</div>","null","html-keyboard-response","109","1515057","0.0-6.0-0.49","fixation","","","","",""
"2284.5500000112224","Stimuli/Hangul_M2.bmp","190","image-keyboard-response","110","1517342","0.0-6.0-1.49","test",",","",".","",""
"2958.1400000024587","<p style=""color:white;"">Good job, block 1 complete! Please take a moment to rest.</p> <p style=""color:white;"">When you are ready to continue with block 2 of 4, press the space bar.</p> ","32","html-keyboard-response","111","1520302","0.0-7.0","","","","","",""
"null","<div style=""color:white; font-size:60px;"">+</div>","null","html-keyboard-response","112","1523313","0.0-8.0-0.0","fixation","","","","",""
"1668.525000001071","Stimuli/Hangul_F32.bmp","190","image-keyboard-response","113","1524983","0.0-8.0-1.0","test",".","",".","",""
"null","<div style=""color:white; font-size:60px;"">+</div>","null","html-keyboard-response","114","1525994","0.0-8.0-0.1","fixation","","","","",""
"2523.495000001276","Stimuli/Hangul_F42.bmp","190","image-keyboard-response","115","1528518","0.0-8.0-1.1","test",".","",".","",""
"null","<div style=""color:white; font-size:60px;"">+</div>","null","html-keyboard-response","116","1529525","0.0-8.0-0.2","fixation","","","","",""
"1904.0749999985565","Stimuli/Hangul_M31.bmp","188","image-keyboard-response","117","1531430","0.0-8.0-1.2","test",",","",",","",""
"null","<div style=""color:white; font-size:60px;"">+</div>","null","html-keyboard-response","118","1532432","0.0-8.0-0.3","fixation","","","","",""
"2221.2799999979325","Stimuli/Hangul_F39.bmp","190","image-keyboard-response","119","1534654","0.0-8.0-1.3","test",".","",".","",""
"null","<div style=""color:white; font-size:60px;"">+</div>","null","html-keyboard-response","120","1535659","0.0-8.0-0.4","fixation","","","","",""
"2154.4199999917764","Stimuli/Hangul_M40.bmp","188","image-keyboard-response","121","1537814","0.0-8.0-1.4","test",",","",",","",""
"null","<div style=""color:white; font-size:60px;"">+</div>","null","html-keyboard-response","122","1538819","0.0-8.0-0.5","fixation","","","","",""
"1794.5599999949336","Stimuli/Hangul_M47.bmp","190","image-keyboard-response","123","1540614","0.0-8.0-1.5","test",",","",".","",""
"null","<div style=""color:white; font-size:60px;"">+</div>","null","html-keyboard-response","124","1541616","0.0-8.0-0.6","fixation","","","","",""
"2220.9700000092853","Stimuli/Hangul_F44.bmp","190","image-keyboard-response","125","1543838","0.0-8.0-1.6","test",".","",".","",""
"null","<div style=""color:white; font-size:60px;"">+</div>","null","html-keyboard-response","126","1544846","0.0-8.0-0.7","fixation","","","","",""
"1862.819999994943","Stimuli/Hangul_M26.bmp","188","image-keyboard-response","127","1546710","0.0-8.0-1.7","test",",","",",","",""
"null","<div style=""color:white; font-size:60px;"">+</div>","null","html-keyboard-response","128","1547714","0.0-8.0-0.8","fixation","","","","",""
"1859.5700000007637","Stimuli/Hangul_F34.bmp","188","image-keyboard-response","129","1549574","0.0-8.0-1.8","test",".","",",","",""
"null","<div style=""color:white; font-size:60px;"">+</div>","null","html-keyboard-response","130","1550585","0.0-8.0-0.9","fixation","","","","",""
"2340.3350000006612","Stimuli/Hangul_M37.bmp","188","image-keyboard-response","131","1552926","0.0-8.0-1.9","test",",","",",","",""
"null","<div style=""color:white; font-size:60px;"">+</div>","null","html-keyboard-response","132","1553931","0.0-8.0-0.10","fixation","","","","",""
"2593.5299999981653","Stimuli/Hangul_F27.bmp","188","image-keyboard-response","133","1556526","0.0-8.0-1.10","test",".","",",","",""
"null","<div style=""color:white; font-size:60px;"">+</div>","null","html-keyboard-response","134","1557533","0.0-8.0-0.11","fixation","","","","",""
"2440.5149999947753","Stimuli/Hangul_M45.bmp","188","image-keyboard-response","135","1559974","0.0-8.0-1.11","test",",","",",","",""
"null","<div style=""color:white; font-size:60px;"">+</div>","null","html-keyboard-response","136","1560980","0.0-8.0-0.12","fixation","","","","",""
"2217.4800000065006","Stimuli/Hangul_F41.bmp","188","image-keyboard-response","137","1563198","0.0-8.0-1.12","test",".","",",","",""
"null","<div style=""color:white; font-size:60px;"">+</div>","null","html-keyboard-response","138","1564207","0.0-8.0-0.13","fixation","","","","",""
"2421.6449999948964","Stimuli/Hangul_M44.bmp","188","image-keyboard-response","139","1566630","0.0-8.0-1.13","test",",","",",","",""
"null","<div style=""color:white; font-size:60px;"">+</div>","null","html-keyboard-response","140","1567636","0.0-8.0-0.14","fixation","","","","",""
"2256.3150000059977","Stimuli/Hangul_M32.bmp","188","image-keyboard-response","141","1569894","0.0-8.0-1.14","test",",","",",","",""
"null","<div style=""color:white; font-size:60px;"">+</div>","null","html-keyboard-response","142","1570902","0.0-8.0-0.15","fixation","","","","",""
"2023.4650000059046","Stimuli/Hangul_F31.bmp","190","image-keyboard-response","143","1572926","0.0-8.0-1.15","test",".","",".","",""
"null","<div style=""color:white; font-size:60px;"">+</div>","null","html-keyboard-response","144","1573937","0.0-8.0-0.16","fixation","","","","",""
"2371.4849999961443","Stimuli/Hangul_F30.bmp","190","image-keyboard-response","145","1576310","0.0-8.0-1.16","test",".","",".","",""
"null","<div style=""color:white; font-size:60px;"">+</div>","null","html-keyboard-response","146","1577312","0.0-8.0-0.17","fixation","","","","",""
"2276.2249999942724","Stimuli/Hangul_M38.bmp","188","image-keyboard-response","147","1579590","0.0-8.0-1.17","test",",","",",","",""
"null","<div style=""color:white; font-size:60px;"">+</div>","null","html-keyboard-response","148","1580592","0.0-8.0-0.18","fixation","","","","",""
"2180.8699999966193","Stimuli/Hangul_M39.bmp","190","image-keyboard-response","149","1582774","0.0-8.0-1.18","test",",","",".","",""
"null","<div style=""color:white; font-size:60px;"">+</div>","null","html-keyboard-response","150","1583776","0.0-8.0-0.19","fixation","","","","",""
"2268.4949999966193","Stimuli/Hangul_M27.bmp","188","image-keyboard-response","151","1586046","0.0-8.0-1.19","test",",","",",","",""
"null","<div style=""color:white; font-size:60px;"">+</div>","null","html-keyboard-response","152","1587049","0.0-8.0-0.20","fixation","","","","",""
"1851.7399999983609","Stimuli/Hangul_F28.bmp","188","image-keyboard-response","153","1588902","0.0-8.0-1.20","test",".","",",","",""
"null","<div style=""color:white; font-size:60px;"">+</div>","null","html-keyboard-response","154","1589903","0.0-8.0-0.21","fixation","","","","",""
"2029.5849999967031","Stimuli/Hangul_F47.bmp","190","image-keyboard-response","155","1591934","0.0-8.0-1.21","test",".","",".","",""
"null","<div style=""color:white; font-size:60px;"">+</div>","null","html-keyboard-response","156","1592945","0.0-8.0-0.22","fixation","","","","",""
"1931.4500000039116","Stimuli/Hangul_F25.bmp","188","image-keyboard-response","157","1594878","0.0-8.0-1.22","test",".","",",","",""
"null","<div style=""color:white; font-size:60px;"">+</div>","null","html-keyboard-response","158","1595885","0.0-8.0-0.23","fixation","","","","",""
"1551.5600000070408","Stimuli/Hangul_M43.bmp","188","image-keyboard-response","159","1597438","0.0-8.0-1.23","test",",","",",","",""
"null","<div style=""color:white; font-size:60px;"">+</div>","null","html-keyboard-response","160","1598447","0.0-8.0-0.24","fixation","","","","",""
"2134.05000000773","Stimuli/Hangul_F36.bmp","190","image-keyboard-response","161","1600578","0.0-8.0-1.24","test",".","",".","",""
"null","<div style=""color:white; font-size:60px;"">+</div>","null","html-keyboard-response","162","1601587","0.0-8.0-0.25","fixation","","","","",""
"2189.334999988321","Stimuli/Hangul_F48.bmp","190","image-keyboard-response","163","1603778","0.0-8.0-1.25","test",".","",".","",""
"null","<div style=""color:white; font-size:60px;"">+</div>","null","html-keyboard-response","164","1604788","0.0-8.0-0.26","fixation","","","","",""
"2212.0999999898486","Stimuli/Hangul_F38.bmp","188","image-keyboard-response","165","1607002","0.0-8.0-1.26","test",".","",",","",""
"null","<div style=""color:white; font-size:60px;"">+</div>","null","html-keyboard-response","166","1608004","0.0-8.0-0.27","fixation","","","","",""
"2173.175000003539","Stimuli/Hangul_F46.bmp","188","image-keyboard-response","167","1610178","0.0-8.0-1.27","test",".","",",","",""
"null","<div style=""color:white; font-size:60px;"">+</div>","null","html-keyboard-response","168","1611188","0.0-8.0-0.28","fixation","","","","",""
"2197.4049999990966","Stimuli/Hangul_M48.bmp","188","image-keyboard-response","169","1613386","0.0-8.0-1.28","test",",","",",","",""
"null","<div style=""color:white; font-size:60px;"">+</div>","null","html-keyboard-response","170","1614397","0.0-8.0-0.29","fixation","","","","",""
"2107.3749999925494","Stimuli/Hangul_M36.bmp","188","image-keyboard-response","171","1616506","0.0-8.0-1.29","test",",","",",","",""
"null","<div style=""color:white; font-size:60px;"">+</div>","null","html-keyboard-response","172","1617512","0.0-8.0-0.30","fixation","","","","",""
"1497.034999993164","Stimuli/Hangul_M49.bmp","188","image-keyboard-response","173","1619010","0.0-8.0-1.30","test",",","",",","",""
"null","<div style=""color:white; font-size:60px;"">+</div>","null","html-keyboard-response","174","1620012","0.0-8.0-0.31","fixation","","","","",""
"2157.4249999974854","Stimuli/Hangul_F26.bmp","190","image-keyboard-response","175","1622170","0.0-8.0-1.31","test",".","",".","",""
"null","<div style=""color:white; font-size:60px;"">+</div>","null","html-keyboard-response","176","1623178","0.0-8.0-0.32","fixation","","","","",""
"2390.950000000652","Stimuli/Hangul_M46.bmp","188","image-keyboard-response","177","1625570","0.0-8.0-1.32","test",",","",",","",""
"null","<div style=""color:white; font-size:60px;"">+</div>","null","html-keyboard-response","178","1626579","0.0-8.0-0.33","fixation","","","","",""
"2381.410000001779","Stimuli/Hangul_F43.bmp","190","image-keyboard-response","179","1628962","0.0-8.0-1.33","test",".","",".","",""
"null","<div style=""color:white; font-size:60px;"">+</div>","null","html-keyboard-response","180","1629969","0.0-8.0-0.34","fixation","","","","",""
"2512.430000002496","Stimuli/Hangul_F35.bmp","190","image-keyboard-response","181","1632482","0.0-8.0-1.34","test",".","",".","",""
"null","<div style=""color:white; font-size:60px;"">+</div>","null","html-keyboard-response","182","1633488","0.0-8.0-0.35","fixation","","","","",""
"2600.8399999991525","Stimuli/Hangul_F49.bmp","190","image-keyboard-response","183","1636090","0.0-8.0-1.35","test",".","",".","",""
"null","<div style=""color:white; font-size:60px;"">+</div>","null","html-keyboard-response","184","1637095","0.0-8.0-0.36","fixation","","","","",""
"2192.5900000061374","Stimuli/Hangul_M29.bmp","188","image-keyboard-response","185","1639290","0.0-8.0-1.36","test",",","",",","",""
"null","<div style=""color:white; font-size:60px;"">+</div>","null","html-keyboard-response","186","1640295","0.0-8.0-0.37","fixation","","","","",""
"2249.9000000096858","Stimuli/Hangul_M25.bmp","190","image-keyboard-response","187","1642546","0.0-8.0-1.37","test",",","",".","",""
"null","<div style=""color:white; font-size:60px;"">+</div>","null","html-keyboard-response","188","1643553","0.0-8.0-0.38","fixation","","","","",""
"2999.8349999950733","Stimuli/Hangul_M41.bmp","188","image-keyboard-response","189","1646554","0.0-8.0-1.38","test",",","",",","",""
"null","<div style=""color:white; font-size:60px;"">+</div>","null","html-keyboard-response","190","1647555","0.0-8.0-0.39","fixation","","","","",""
"3709.7150000045076","Stimuli/Hangul_M42.bmp","188","image-keyboard-response","191","1651266","0.0-8.0-1.39","test",",","",",","",""
"null","<div style=""color:white; font-size:60px;"">+</div>","null","html-keyboard-response","192","1652272","0.0-8.0-0.40","fixation","","","","",""
"12448.420000000857","Stimuli/Hangul_M33.bmp","188","image-keyboard-response","193","1664724","0.0-8.0-1.40","test",",","",",","",""
"null","<div style=""color:white; font-size:60px;"">+</div>","null","html-keyboard-response","194","1665727","0.0-8.0-0.41","fixation","","","","",""
"5156.269999992102","Stimuli/Hangul_F33.bmp","188","image-keyboard-response","195","1670884","0.0-8.0-1.41","test",".","",",","",""
"null","<div style=""color:white; font-size:60px;"">+</div>","null","html-keyboard-response","196","1671895","0.0-8.0-0.42","fixation","","","","",""
"1476.9350000133272","Stimuli/Hangul_M30.bmp","188","image-keyboard-response","197","1673373","0.0-8.0-1.42","test",",","",",","",""
"null","<div style=""color:white; font-size:60px;"">+</div>","null","html-keyboard-response","198","1674382","0.0-8.0-0.43","fixation","","","","",""
"1813.1399999985006","Stimuli/Hangul_M28.bmp","188","image-keyboard-response","199","1676196","0.0-8.0-1.43","test",",","",",","",""
"null","<div style=""color:white; font-size:60px;"">+</div>","null","html-keyboard-response","200","1677202","0.0-8.0-0.44","fixation","","","","",""
"1481.364999999525","Stimuli/Hangul_F37.bmp","188","image-keyboard-response","201","1678684","0.0-8.0-1.44","test",".","",",","",""
"null","<div style=""color:white; font-size:60px;"">+</div>","null","html-keyboard-response","202","1679691","0.0-8.0-0.45","fixation","","","","",""
"1840.9300000057556","Stimuli/Hangul_F45.bmp","190","image-keyboard-response","203","1681532","0.0-8.0-1.45","test",".","",".","",""
"null","<div style=""color:white; font-size:60px;"">+</div>","null","html-keyboard-response","204","1682537","0.0-8.0-0.46","fixation","","","","",""
"1314.8550000041723","Stimuli/Hangul_F40.bmp","190","image-keyboard-response","205","1683853","0.0-8.0-1.46","test",".","",".","",""
"null","<div style=""color:white; font-size:60px;"">+</div>","null","html-keyboard-response","206","1684863","0.0-8.0-0.47","fixation","","","","",""
"1652.2899999981746","Stimuli/Hangul_M35.bmp","188","image-keyboard-response","207","1686516","0.0-8.0-1.47","test",",","",",","",""
"null","<div style=""color:white; font-size:60px;"">+</div>","null","html-keyboard-response","208","1687522","0.0-8.0-0.48","fixation","","","","",""
"1657.57500000461","Stimuli/Hangul_F29.bmp","190","image-keyboard-response","209","1689180","0.0-8.0-1.48","test",".","",".","",""
"null","<div style=""color:white; font-size:60px;"">+</div>","null","html-keyboard-response","210","1690187","0.0-8.0-0.49","fixation","","","","",""
"2023.7049999996088","Stimuli/Hangul_M34.bmp","190","image-keyboard-response","211","1692212","0.0-8.0-1.49","test",",","",".","",""
"2079.385000004666","<p style=""color:white;"">Half way there! Please take a moment to rest.</p> <p style=""color:white;"">When you are ready to continue with block 3 of 4, press the space bar.</p> ","32","html-keyboard-response","212","1694293","0.0-9.0","","","","","",""
"null","<div style=""color:white; font-size:60px;"">+</div>","null","html-keyboard-response","213","1697302","0.0-10.0-0.0","fixation","","","","",""
"1452.8549999960233","Stimuli/Hangul_F61.bmp","188","image-keyboard-response","214","1698756","0.0-10.0-1.0","test",".","",",","",""
"null","<div style=""color:white; font-size:60px;"">+</div>","null","html-keyboard-response","215","1699765","0.0-10.0-0.1","fixation","","","","",""
"2149.820000006119","Stimuli/Hangul_F66.bmp","190","image-keyboard-response","216","1701916","0.0-10.0-1.1","test",".","",".","",""
"null","<div style=""color:white; font-size:60px;"">+</div>","null","html-keyboard-response","217","1702923","0.0-10.0-0.2","fixation","","","","",""
"2232.2899999998044","Stimuli/Hangul_F60.bmp","188","image-keyboard-response","218","1705156","0.0-10.0-1.2","test",".","",",","",""
"null","<div style=""color:white; font-size:60px;"">+</div>","null","html-keyboard-response","219","1706168","0.0-10.0-0.3","fixation","","","","",""
"2466.8349999990314","Stimuli/Hangul_M57.bmp","190","image-keyboard-response","220","1708636","0.0-10.0-1.3","test",",","",".","",""
"null","<div style=""color:white; font-size:60px;"">+</div>","null","html-keyboard-response","221","1709648","0.0-10.0-0.4","fixation","","","","",""
"2659.2949999901466","Stimuli/Hangul_M54.bmp","188","image-keyboard-response","222","1712308","0.0-10.0-1.4","test",",","",",","",""
"null","<div style=""color:white; font-size:60px;"">+</div>","null","html-keyboard-response","223","1713316","0.0-10.0-0.5","fixation","","","","",""
"1863.7849999940954","Stimuli/Hangul_M67.bmp","188","image-keyboard-response","224","1715180","0.0-10.0-1.5","test",",","",",","",""
"null","<div style=""color:white; font-size:60px;"">+</div>","null","html-keyboard-response","225","1716185","0.0-10.0-0.6","fixation","","","","",""
"1737.6400000066496","Stimuli/Hangul_M50.bmp","190","image-keyboard-response","226","1717924","0.0-10.0-1.6","test",",","",".","",""
"null","<div style=""color:white; font-size:60px;"">+</div>","null","html-keyboard-response","227","1718928","0.0-10.0-0.7","fixation","","","","",""
"2026.9100000003818","Stimuli/Hangul_F51.bmp","188","image-keyboard-response","228","1720956","0.0-10.0-1.7","test",".","",",","",""
"null","<div style=""color:white; font-size:60px;"">+</div>","null","html-keyboard-response","229","1721964","0.0-10.0-0.8","fixation","","","","",""
"1983.0250000087544","Stimuli/Hangul_M66.bmp","188","image-keyboard-response","230","1723949","0.0-10.0-1.8","test",",","",",","",""
"null","<div style=""color:white; font-size:60px;"">+</div>","null","html-keyboard-response","231","1724957","0.0-10.0-0.9","fixation","","","","",""
"2383.3250000025146","Stimuli/Hangul_M53.bmp","188","image-keyboard-response","232","1727341","0.0-10.0-1.9","test",",","",",","",""
"null","<div style=""color:white; font-size:60px;"">+</div>","null","html-keyboard-response","233","1728350","0.0-10.0-0.10","fixation","","","","",""
"2053.14000000339","Stimuli/Hangul_M58.bmp","190","image-keyboard-response","234","1730405","0.0-10.0-1.10","test",",","",".","",""
"null","<div style=""color:white; font-size:60px;"">+</div>","null","html-keyboard-response","235","1731411","0.0-10.0-0.11","fixation","","","","",""
"2193.4999999939464","Stimuli/Hangul_M62.bmp","190","image-keyboard-response","236","1733606","0.0-10.0-1.11","test",",","",".","",""
"null","<div style=""color:white; font-size:60px;"">+</div>","null","html-keyboard-response","237","1734617","0.0-10.0-0.12","fixation","","","","",""
"2313.5449999971315","Stimuli/Hangul_F50.bmp","190","image-keyboard-response","238","1736933","0.0-10.0-1.12","test",".","",".","",""
"null","<div style=""color:white; font-size:60px;"">+</div>","null","html-keyboard-response","239","1737937","0.0-10.0-0.13","fixation","","","","",""
"2202.5949999953154","Stimuli/Hangul_M61.bmp","188","image-keyboard-response","240","1740141","0.0-10.0-1.13","test",",","",",","",""
"null","<div style=""color:white; font-size:60px;"">+</div>","null","html-keyboard-response","241","1741147","0.0-10.0-0.14","fixation","","","","",""
"1648.6050000095274","Stimuli/Hangul_F56.bmp","190","image-keyboard-response","242","1742797","0.0-10.0-1.14","test",".","",".","",""
"null","<div style=""color:white; font-size:60px;"">+</div>","null","html-keyboard-response","243","1743801","0.0-10.0-0.15","fixation","","","","",""
"1970.9149999981746","Stimuli/Hangul_F69.bmp","190","image-keyboard-response","244","1745773","0.0-10.0-1.15","test",".","",".","",""
"null","<div style=""color:white; font-size:60px;"">+</div>","null","html-keyboard-response","245","1746784","0.0-10.0-0.16","fixation","","","","",""
"1963.490000009071","Stimuli/Hangul_M63.bmp","188","image-keyboard-response","246","1748749","0.0-10.0-1.16","test",",","",",","",""
"null","<div style=""color:white; font-size:60px;"">+</div>","null","html-keyboard-response","247","1749753","0.0-10.0-0.17","fixation","","","","",""
"2418.564999999944","Stimuli/Hangul_F74.bmp","190","image-keyboard-response","248","1752173","0.0-10.0-1.17","test",".","",".","",""
"null","<div style=""color:white; font-size:60px;"">+</div>","null","html-keyboard-response","249","1753178","0.0-10.0-0.18","fixation","","","","",""
"2634.01500000339","Stimuli/Hangul_F55.bmp","190","image-keyboard-response","250","1755813","0.0-10.0-1.18","test",".","",".","",""
"null","<div style=""color:white; font-size:60px;"">+</div>","null","html-keyboard-response","251","1756823","0.0-10.0-0.19","fixation","","","","",""
"1996.4449999970384","Stimuli/Hangul_M65.bmp","188","image-keyboard-response","252","1758820","0.0-10.0-1.19","test",",","",",","",""
"null","<div style=""color:white; font-size:60px;"">+</div>","null","html-keyboard-response","253","1759832","0.0-10.0-0.20","fixation","","","","",""
"2091.91000000271","Stimuli/Hangul_F57.bmp","190","image-keyboard-response","254","1761925","0.0-10.0-1.20","test",".","",".","",""
"null","<div style=""color:white; font-size:60px;"">+</div>","null","html-keyboard-response","255","1762931","0.0-10.0-0.21","fixation","","","","",""
"1657.3849999988452","Stimuli/Hangul_M73.bmp","188","image-keyboard-response","256","1764589","0.0-10.0-1.21","test",",","",",","",""
"null","<div style=""color:white; font-size:60px;"">+</div>","null","html-keyboard-response","257","1765597","0.0-10.0-0.22","fixation","","","","",""
"2078.77999999607","Stimuli/Hangul_M69.bmp","190","image-keyboard-response","258","1767677","0.0-10.0-1.22","test",",","",".","",""
"null","<div style=""color:white; font-size:60px;"">+</div>","null","html-keyboard-response","259","1768679","0.0-10.0-0.23","fixation","","","","",""
"1348.729999997886","Stimuli/Hangul_F62.bmp","188","image-keyboard-response","260","1770029","0.0-10.0-1.23","test",".","",",","",""
"null","<div style=""color:white; font-size:60px;"">+</div>","null","html-keyboard-response","261","1771030","0.0-10.0-0.24","fixation","","","","",""
"2061.3000000012107","Stimuli/Hangul_M51.bmp","190","image-keyboard-response","262","1773092","0.0-10.0-1.24","test",",","",".","",""
"null","<div style=""color:white; font-size:60px;"">+</div>","null","html-keyboard-response","263","1774103","0.0-10.0-0.25","fixation","","","","",""
"1780.745000010822","Stimuli/Hangul_F54.bmp","188","image-keyboard-response","264","1775885","0.0-10.0-1.25","test",".","",",","",""
"null","<div style=""color:white; font-size:60px;"">+</div>","null","html-keyboard-response","265","1776893","0.0-10.0-0.26","fixation","","","","",""
"2021.5249999891967","Stimuli/Hangul_F70.bmp","190","image-keyboard-response","266","1778916","0.0-10.0-1.26","test",".","",".","",""
"null","<div style=""color:white; font-size:60px;"">+</div>","null","html-keyboard-response","267","1779918","0.0-10.0-0.27","fixation","","","","",""
"2245.389999996405","Stimuli/Hangul_M56.bmp","188","image-keyboard-response","268","1782164","0.0-10.0-1.27","test",",","",",","",""
"null","<div style=""color:white; font-size:60px;"">+</div>","null","html-keyboard-response","269","1783168","0.0-10.0-0.28","fixation","","","","",""
"2507.6399999961723","Stimuli/Hangul_F72.bmp","190","image-keyboard-response","270","1785676","0.0-10.0-1.28","test",".","",".","",""
"null","<div style=""color:white; font-size:60px;"">+</div>","null","html-keyboard-response","271","1786679","0.0-10.0-0.29","fixation","","","","",""
"1283.7500000023283","Stimuli/Hangul_F65.bmp","190","image-keyboard-response","272","1787964","0.0-10.0-1.29","test",".","",".","",""
"null","<div style=""color:white; font-size:60px;"">+</div>","null","html-keyboard-response","273","1788976","0.0-10.0-0.30","fixation","","","","",""
"2003.1900000032037","Stimuli/Hangul_M64.bmp","188","image-keyboard-response","274","1790980","0.0-10.0-1.30","test",",","",",","",""
"null","<div style=""color:white; font-size:60px;"">+</div>","null","html-keyboard-response","275","1791983","0.0-10.0-0.31","fixation","","","","",""
"2059.085000000894","Stimuli/Hangul_F67.bmp","190","image-keyboard-response","276","1794044","0.0-10.0-1.31","test",".","",".","",""
"null","<div style=""color:white; font-size:60px;"">+</div>","null","html-keyboard-response","277","1795046","0.0-10.0-0.32","fixation","","","","",""
"1692.8449999978766","Stimuli/Hangul_F53.bmp","190","image-keyboard-response","278","1796740","0.0-10.0-1.32","test",".","",".","",""
"null","<div style=""color:white; font-size:60px;"">+</div>","null","html-keyboard-response","279","1797745","0.0-10.0-0.33","fixation","","","","",""
"1618.3999999919906","Stimuli/Hangul_M55.bmp","188","image-keyboard-response","280","1799364","0.0-10.0-1.33","test",",","",",","",""
"null","<div style=""color:white; font-size:60px;"">+</div>","null","html-keyboard-response","281","1800375","0.0-10.0-0.34","fixation","","","","",""
"1964.114999995334","Stimuli/Hangul_M60.bmp","190","image-keyboard-response","282","1802340","0.0-10.0-1.34","test",",","",".","",""
"null","<div style=""color:white; font-size:60px;"">+</div>","null","html-keyboard-response","283","1803342","0.0-10.0-0.35","fixation","","","","",""
"2149.234999989858","Stimuli/Hangul_M72.bmp","190","image-keyboard-response","284","1805492","0.0-10.0-1.35","test",",","",".","",""
"null","<div style=""color:white; font-size:60px;"">+</div>","null","html-keyboard-response","285","1806493","0.0-10.0-0.36","fixation","","","","",""
"2181.2750000096858","Stimuli/Hangul_M70.bmp","190","image-keyboard-response","286","1808676","0.0-10.0-1.36","test",",","",".","",""
"null","<div style=""color:white; font-size:60px;"">+</div>","null","html-keyboard-response","287","1809680","0.0-10.0-0.37","fixation","","","","",""
"1875.3249999864493","Stimuli/Hangul_M52.bmp","188","image-keyboard-response","288","1811556","0.0-10.0-1.37","test",",","",",","",""
"null","<div style=""color:white; font-size:60px;"">+</div>","null","html-keyboard-response","289","1812564","0.0-10.0-0.38","fixation","","","","",""
"1983.1899999990128","Stimuli/Hangul_M74.bmp","190","image-keyboard-response","290","1814548","0.0-10.0-1.38","test",",","",".","",""
"null","<div style=""color:white; font-size:60px;"">+</div>","null","html-keyboard-response","291","1815555","0.0-10.0-0.39","fixation","","","","",""
"2320.110000000568","Stimuli/Hangul_F63.bmp","188","image-keyboard-response","292","1817876","0.0-10.0-1.39","test",".","",",","",""
"null","<div style=""color:white; font-size:60px;"">+</div>","null","html-keyboard-response","293","1818885","0.0-10.0-0.40","fixation","","","","",""
"1917.090000002645","Stimuli/Hangul_F64.bmp","190","image-keyboard-response","294","1820804","0.0-10.0-1.40","test",".","",".","",""
"null","<div style=""color:white; font-size:60px;"">+</div>","null","html-keyboard-response","295","1821807","0.0-10.0-0.41","fixation","","","","",""
"1492.2749999966472","Stimuli/Hangul_F73.bmp","188","image-keyboard-response","296","1823300","0.0-10.0-1.41","test",".","",",","",""
"null","<div style=""color:white; font-size:60px;"">+</div>","null","html-keyboard-response","297","1824303","0.0-10.0-0.42","fixation","","","","",""
"1628.2549999887124","Stimuli/Hangul_F68.bmp","190","image-keyboard-response","298","1825932","0.0-10.0-1.42","test",".","",".","",""
"null","<div style=""color:white; font-size:60px;"">+</div>","null","html-keyboard-response","299","1826942","0.0-10.0-0.43","fixation","","","","",""
"1860.9050000086427","Stimuli/Hangul_F71.bmp","190","image-keyboard-response","300","1828803","0.0-10.0-1.43","test",".","",".","",""
"null","<div style=""color:white; font-size:60px;"">+</div>","null","html-keyboard-response","301","1829809","0.0-10.0-0.44","fixation","","","","",""
"1897.6499999989755","Stimuli/Hangul_F58.bmp","188","image-keyboard-response","302","1831708","0.0-10.0-1.44","test",".","",",","",""
"null","<div style=""color:white; font-size:60px;"">+</div>","null","html-keyboard-response","303","1832718","0.0-10.0-0.45","fixation","","","","",""
"1789.4099999975879","Stimuli/Hangul_M71.bmp","190","image-keyboard-response","304","1834508","0.0-10.0-1.45","test",",","",".","",""
"null","<div style=""color:white; font-size:60px;"">+</div>","null","html-keyboard-response","305","1835516","0.0-10.0-0.46","fixation","","","","",""
"2150.559999994468","Stimuli/Hangul_M68.bmp","190","image-keyboard-response","306","1837667","0.0-10.0-1.46","test",",","",".","",""
"null","<div style=""color:white; font-size:60px;"">+</div>","null","html-keyboard-response","307","1838678","0.0-10.0-0.47","fixation","","","","",""
"2124.260000011418","Stimuli/Hangul_M59.bmp","190","image-keyboard-response","308","1840803","0.0-10.0-1.47","test",",","",".","",""
"null","<div style=""color:white; font-size:60px;"">+</div>","null","html-keyboard-response","309","1841814","0.0-10.0-0.48","fixation","","","","",""
"2116.314999992028","Stimuli/Hangul_F59.bmp","188","image-keyboard-response","310","1843932","0.0-10.0-1.48","test",".","",",","",""
"null","<div style=""color:white; font-size:60px;"">+</div>","null","html-keyboard-response","311","1844936","0.0-10.0-0.49","fixation","","","","",""
"2376.619999995455","Stimuli/Hangul_F52.bmp","190","image-keyboard-response","312","1847316","0.0-10.0-1.49","test",".","",".","",""
"72814.25999999931","<p style=""color:white;"">One more block to go! Please take a moment to rest.</p> <p style=""color:white;"">When you are ready to continue with block 4 of 4, press the space bar.</p> ","32","html-keyboard-response","313","1920131","0.0-11.0","","","","","",""
"null","<div style=""color:white; font-size:60px;"">+</div>","null","html-keyboard-response","314","1923143","0.0-12.0-0.0","fixation","","","","",""
"1491.2600000097882","Stimuli/Hangul_M98.bmp","190","image-keyboard-response","315","1924635","0.0-12.0-1.0","test",",","",".","",""
"null","<div style=""color:white; font-size:60px;"">+</div>","null","html-keyboard-response","316","1925645","0.0-12.0-0.1","fixation","","","","",""
"2837.650000001304","Stimuli/Hangul_F96.bmp","190","image-keyboard-response","317","1928484","0.0-12.0-1.1","test",".","",".","",""
"null","<div style=""color:white; font-size:60px;"">+</div>","null","html-keyboard-response","318","1929491","0.0-12.0-0.2","fixation","","","","",""
"2174.895000003744","Stimuli/Hangul_F94.bmp","190","image-keyboard-response","319","1931667","0.0-12.0-1.2","test",".","",".","",""
"null","<div style=""color:white; font-size:60px;"">+</div>","null","html-keyboard-response","320","1932670","0.0-12.0-0.3","fixation","","","","",""
"1940.3450000099838","Stimuli/Hangul_F79.bmp","190","image-keyboard-response","321","1934611","0.0-12.0-1.3","test",".","",".","",""
"null","<div style=""color:white; font-size:60px;"">+</div>","null","html-keyboard-response","322","1935616","0.0-12.0-0.4","fixation","","","","",""
"1369.9150000028312","Stimuli/Hangul_M84.bmp","190","image-keyboard-response","323","1936987","0.0-12.0-1.4","test",",","",".","",""
"null","<div style=""color:white; font-size:60px;"">+</div>","null","html-keyboard-response","324","1937996","0.0-12.0-0.5","fixation","","","","",""
"2001.4099999971222","Stimuli/Hangul_F83.bmp","190","image-keyboard-response","325","1939998","0.0-12.0-1.5","test",".","",".","",""
"null","<div style=""color:white; font-size:60px;"">+</div>","null","html-keyboard-response","326","1941000","0.0-12.0-0.6","fixation","","","","",""
"1786.5800000000745","Stimuli/Hangul_M94.bmp","188","image-keyboard-response","327","1942787","0.0-12.0-1.6","test",",","",",","",""
"null","<div style=""color:white; font-size:60px;"">+</div>","null","html-keyboard-response","328","1943796","0.0-12.0-0.7","fixation","","","","",""
"1805.6599999980535","Stimuli/Hangul_F99.bmp","188","image-keyboard-response","329","1945603","0.0-12.0-1.7","test",".","",",","",""
"null","<div style=""color:white; font-size:60px;"">+</div>","null","html-keyboard-response","330","1946612","0.0-12.0-0.8","fixation","","","","",""
"1805.6649999925867","Stimuli/Hangul_F84.bmp","190","image-keyboard-response","331","1948419","0.0-12.0-1.8","test",".","",".","",""
"null","<div style=""color:white; font-size:60px;"">+</div>","null","html-keyboard-response","332","1949421","0.0-12.0-0.9","fixation","","","","",""
"2148.469999999972","Stimuli/Hangul_F89.bmp","190","image-keyboard-response","333","1951571","0.0-12.0-1.9","test",".","",".","",""
"null","<div style=""color:white; font-size:60px;"">+</div>","null","html-keyboard-response","334","1952577","0.0-12.0-0.10","fixation","","","","",""
"1305.059999998659","Stimuli/Hangul_F95.bmp","190","image-keyboard-response","335","1953883","0.0-12.0-1.10","test",".","",".","",""
"null","<div style=""color:white; font-size:60px;"">+</div>","null","html-keyboard-response","336","1954893","0.0-12.0-0.11","fixation","","","","",""
"2084.9900000030175","Stimuli/Hangul_M80.bmp","188","image-keyboard-response","337","1956979","0.0-12.0-1.11","test",",","",",","",""
"null","<div style=""color:white; font-size:60px;"">+</div>","null","html-keyboard-response","338","1957988","0.0-12.0-0.12","fixation","","","","",""
"1941.6449999988545","Stimuli/Hangul_F78.bmp","190","image-keyboard-response","339","1959931","0.0-12.0-1.12","test",".","",".","",""
"null","<div style=""color:white; font-size:60px;"">+</div>","null","html-keyboard-response","340","1960934","0.0-12.0-0.13","fixation","","","","",""
"1516.975000005681","Stimuli/Hangul_M87.bmp","190","image-keyboard-response","341","1962451","0.0-12.0-1.13","test",",","",".","",""
"null","<div style=""color:white; font-size:60px;"">+</div>","null","html-keyboard-response","342","1963456","0.0-12.0-0.14","fixation","","","","",""
"2889.6500000117812","Stimuli/Hangul_M89.bmp","188","image-keyboard-response","343","1966347","0.0-12.0-1.14","test",",","",",","",""
"null","<div style=""color:white; font-size:60px;"">+</div>","null","html-keyboard-response","344","1967355","0.0-12.0-0.15","fixation","","","","",""
"2007.019999989774","Stimuli/Hangul_F93.bmp","190","image-keyboard-response","345","1969363","0.0-12.0-1.15","test",".","",".","",""
"null","<div style=""color:white; font-size:60px;"">+</div>","null","html-keyboard-response","346","1970371","0.0-12.0-0.16","fixation","","","","",""
"1239.1349999960512","Stimuli/Hangul_F88.bmp","190","image-keyboard-response","347","1971611","0.0-12.0-1.16","test",".","",".","",""
"null","<div style=""color:white; font-size:60px;"">+</div>","null","html-keyboard-response","348","1972621","0.0-12.0-0.17","fixation","","","","",""
"2253.434999991441","Stimuli/Hangul_M81.bmp","188","image-keyboard-response","349","1974875","0.0-12.0-1.17","test",",","",",","",""
"null","<div style=""color:white; font-size:60px;"">+</div>","null","html-keyboard-response","350","1975883","0.0-12.0-0.18","fixation","","","","",""
"2127.1600000038743","Stimuli/Hangul_M85.bmp","190","image-keyboard-response","351","1978011","0.0-12.0-1.18","test",",","",".","",""
"null","<div style=""color:white; font-size:60px;"">+</div>","null","html-keyboard-response","352","1979013","0.0-12.0-0.19","fixation","","","","",""
"2261.129999998957","Stimuli/Hangul_M77.bmp","188","image-keyboard-response","353","1981275","0.0-12.0-1.19","test",",","",",","",""
"null","<div style=""color:white; font-size:60px;"">+</div>","null","html-keyboard-response","354","1982280","0.0-12.0-0.20","fixation","","","","",""
"2058.0400000035297","Stimuli/Hangul_F80.bmp","190","image-keyboard-response","355","1984339","0.0-12.0-1.20","test",".","",".","",""
"null","<div style=""color:white; font-size:60px;"">+</div>","null","html-keyboard-response","356","1985348","0.0-12.0-0.21","fixation","","","","",""
"2061.329999996815","Stimuli/Hangul_M96.bmp","188","image-keyboard-response","357","1987411","0.0-12.0-1.21","test",",","",",","",""
"null","<div style=""color:white; font-size:60px;"">+</div>","null","html-keyboard-response","358","1988415","0.0-12.0-0.22","fixation","","","","",""
"2298.609999998007","Stimuli/Hangul_M83.bmp","190","image-keyboard-response","359","1990714","0.0-12.0-1.22","test",",","",".","",""
"null","<div style=""color:white; font-size:60px;"">+</div>","null","html-keyboard-response","360","1991717","0.0-12.0-0.23","fixation","","","","",""
"1484.8000000056345","Stimuli/Hangul_F76.bmp","190","image-keyboard-response","361","1993203","0.0-12.0-1.23","test",".","",".","",""
"null","<div style=""color:white; font-size:60px;"">+</div>","null","html-keyboard-response","362","1994203","0.0-12.0-0.24","fixation","","","","",""
"2238.2550000038464","Stimuli/Hangul_F92.bmp","190","image-keyboard-response","363","1996442","0.0-12.0-1.24","test",".","",".","",""
"null","<div style=""color:white; font-size:60px;"">+</div>","null","html-keyboard-response","364","1997445","0.0-12.0-0.25","fixation","","","","",""
"1916.640000010375","Stimuli/Hangul_M93.bmp","190","image-keyboard-response","365","1999363","0.0-12.0-1.25","test",",","",".","",""
"null","<div style=""color:white; font-size:60px;"">+</div>","null","html-keyboard-response","366","2000371","0.0-12.0-0.26","fixation","","","","",""
"2047.2999999909662","Stimuli/Hangul_M88.bmp","190","image-keyboard-response","367","2002419","0.0-12.0-1.26","test",",","",".","",""
"null","<div style=""color:white; font-size:60px;"">+</div>","null","html-keyboard-response","368","2003426","0.0-12.0-0.27","fixation","","","","",""
"2446.979999993462","Stimuli/Hangul_M91.bmp","190","image-keyboard-response","369","2005874","0.0-12.0-1.27","test",",","",".","",""
"null","<div style=""color:white; font-size:60px;"">+</div>","null","html-keyboard-response","370","2006878","0.0-12.0-0.28","fixation","","","","",""
"2035.4700000025332","Stimuli/Hangul_F77.bmp","188","image-keyboard-response","371","2008914","0.0-12.0-1.28","test",".","",",","",""
"null","<div style=""color:white; font-size:60px;"">+</div>","null","html-keyboard-response","372","2009925","0.0-12.0-0.29","fixation","","","","",""
"2125.0249999868684","Stimuli/Hangul_M75.bmp","188","image-keyboard-response","373","2012051","0.0-12.0-1.29","test",",","",",","",""
"null","<div style=""color:white; font-size:60px;"">+</div>","null","html-keyboard-response","374","2013052","0.0-12.0-0.30","fixation","","","","",""
"1925.3999999926891","Stimuli/Hangul_F86.bmp","190","image-keyboard-response","375","2014978","0.0-12.0-1.30","test",".","",".","",""
"null","<div style=""color:white; font-size:60px;"">+</div>","null","html-keyboard-response","376","2015983","0.0-12.0-0.31","fixation","","","","",""
"1962.1999999945983","Stimuli/Hangul_F97.bmp","190","image-keyboard-response","377","2017946","0.0-12.0-1.31","test",".","",".","",""
"null","<div style=""color:white; font-size:60px;"">+</div>","null","html-keyboard-response","378","2018957","0.0-12.0-0.32","fixation","","","","",""
"1836.035000000149","Stimuli/Hangul_M78.bmp","188","image-keyboard-response","379","2020794","0.0-12.0-1.32","test",",","",",","",""
"null","<div style=""color:white; font-size:60px;"">+</div>","null","html-keyboard-response","380","2021800","0.0-12.0-0.33","fixation","","","","",""
"2137.3199999944773","Stimuli/Hangul_M82.bmp","188","image-keyboard-response","381","2023939","0.0-12.0-1.33","test",",","",",","",""
"null","<div style=""color:white; font-size:60px;"">+</div>","null","html-keyboard-response","382","2024945","0.0-12.0-0.34","fixation","","","","",""
"2175.9949999977835","Stimuli/Hangul_F87.bmp","190","image-keyboard-response","383","2027122","0.0-12.0-1.34","test",".","",".","",""
"null","<div style=""color:white; font-size:60px;"">+</div>","null","html-keyboard-response","384","2028131","0.0-12.0-0.35","fixation","","","","",""
"2422.3849999981467","Stimuli/Hangul_M79.bmp","190","image-keyboard-response","385","2030554","0.0-12.0-1.35","test",",","",".","",""
"null","<div style=""color:white; font-size:60px;"">+</div>","null","html-keyboard-response","386","2031557","0.0-12.0-0.36","fixation","","","","",""
"2171.994999997085","Stimuli/Hangul_F98.bmp","188","image-keyboard-response","387","2033730","0.0-12.0-1.36","test",".","",",","",""
"null","<div style=""color:white; font-size:60px;"">+</div>","null","html-keyboard-response","388","2034733","0.0-12.0-0.37","fixation","","","","",""
"2051.2299999971874","Stimuli/Hangul_F85.bmp","190","image-keyboard-response","389","2036787","0.0-12.0-1.37","test",".","",".","",""
"null","<div style=""color:white; font-size:60px;"">+</div>","null","html-keyboard-response","390","2037794","0.0-12.0-0.38","fixation","","","","",""
"1823.1999999987893","Stimuli/Hangul_F90.bmp","188","image-keyboard-response","391","2039618","0.0-12.0-1.38","test",".","",",","",""
"null","<div style=""color:white; font-size:60px;"">+</div>","null","html-keyboard-response","392","2040626","0.0-12.0-0.39","fixation","","","","",""
"2030.5450000013225","Stimuli/Hangul_F91.bmp","188","image-keyboard-response","393","2042657","0.0-12.0-1.39","test",".","",",","",""
"null","<div style=""color:white; font-size:60px;"">+</div>","null","html-keyboard-response","394","2043663","0.0-12.0-0.40","fixation","","","","",""
"1377.3300000028685","Stimuli/Hangul_M92.bmp","190","image-keyboard-response","395","2045041","0.0-12.0-1.40","test",",","",".","",""
"null","<div style=""color:white; font-size:60px;"">+</div>","null","html-keyboard-response","396","2046045","0.0-12.0-0.41","fixation","","","","",""
"1452.3349999943748","Stimuli/Hangul_F81.bmp","190","image-keyboard-response","397","2047498","0.0-12.0-1.41","test",".","",".","",""
"null","<div style=""color:white; font-size:60px;"">+</div>","null","html-keyboard-response","398","2048504","0.0-12.0-0.42","fixation","","","","",""
"1512.984999993816","Stimuli/Hangul_F82.bmp","190","image-keyboard-response","399","2050017","0.0-12.0-1.42","test",".","",".","",""
"null","<div style=""color:white; font-size:60px;"">+</div>","null","html-keyboard-response","400","2051018","0.0-12.0-0.43","fixation","","","","",""
"2454.5799999907613","Stimuli/Hangul_M76.bmp","188","image-keyboard-response","401","2053473","0.0-12.0-1.43","test",",","",",","",""
"null","<div style=""color:white; font-size:60px;"">+</div>","null","html-keyboard-response","402","2054479","0.0-12.0-0.44","fixation","","","","",""
"2112.7700000070035","Stimuli/Hangul_F75.bmp","190","image-keyboard-response","403","2056593","0.0-12.0-1.44","test",".","",".","",""
"null","<div style=""color:white; font-size:60px;"">+</div>","null","html-keyboard-response","404","2057604","0.0-12.0-0.45","fixation","","","","",""
"5356.175000008196","Stimuli/Hangul_M90.bmp","188","image-keyboard-response","405","2062961","0.0-12.0-1.45","test",",","",",","",""
"null","<div style=""color:white; font-size:60px;"">+</div>","null","html-keyboard-response","406","2063965","0.0-12.0-0.46","fixation","","","","",""
"1514.9850000014994","Stimuli/Hangul_M95.bmp","190","image-keyboard-response","407","2065481","0.0-12.0-1.46","test",",","",".","",""
"null","<div style=""color:white; font-size:60px;"">+</div>","null","html-keyboard-response","408","2066484","0.0-12.0-0.47","fixation","","","","",""
"1828.3150000062305","Stimuli/Hangul_M99.bmp","188","image-keyboard-response","409","2068313","0.0-12.0-1.47","test",",","",",","",""
"null","<div style=""color:white; font-size:60px;"">+</div>","null","html-keyboard-response","410","2069324","0.0-12.0-0.48","fixation","","","","",""
"7116.835000007879","Stimuli/Hangul_M97.bmp","188","image-keyboard-response","411","2076441","0.0-12.0-1.48","test",",","",",","",""
"null","<div style=""color:white; font-size:60px;"">+</div>","null","html-keyboard-response","412","2077450","0.0-12.0-0.49","fixation","","","","",""
"5621.580000006361","Stimuli/Hangul_M86.bmp","188","image-keyboard-response","413","2083073","0.0-12.0-1.49","test",",","",",","",""
"1862.9800000053365","<p style=""color:white;"">Phase I of the experiment is complete.</p> <p style=""color:white;"">Press the space bar to proceed to Phase II of the experiment.</p> ","32","html-keyboard-response","414","2084937","0.0-13.0","","","","","",""
"23292.340000000084","<p style=""color:white;"">Now we are interested in how well you can predict patterns in the series of figures. You will be asked to predict whether the next figure in the series is more male-like or female-like. When you see the <q>Next Figure</q> prompt, press the corresponding response keys to indicate your prediction: </p><p style=""color:white;""> Male &#8594 <q>,</q> (comma)</p><p style=""color:white;""> Female &#8594 <q>.</q> (period)</p><p style=""color:white;"">The actual figure will then appear on the screen. After you see the figure, please guess the assigned gender with response keys. </p><p style=""color:white;"">As before, you will receive 2 cents for correctly classifying each figure.</p><p style=""color:white;"">Press either response keys to continue.</p>","190","html-keyboard-response","415","2110242","0.0-14.0","","","","","",""
"17503.71499999892","<p style=""color:white;"">PREDICTION BONUS</p> <p style=""color:white;"">Your prediction accuracy is the total number of correct predictions you make over the 200 trials.</p> <p style=""color:white;"">In addition to the 2 cents per correct figure classification, you have the chance to receive a bonus of 40 dollars IF your accuracy is above average relative to previous participants.</p><p style=""color:white;"">If your accuracy is below average relative to previous participants, then you will not receive the 40 dollar bonus.</p><p style=""color:white;"">Press the space bar to continue.</p>","32","html-keyboard-response","416","2127746","0.0-15.0","","","","","",""
"12446.515000002924","<p style=""color:white;"">Here are some examples.</p> <p style=""color:white;"">For each, predict whether the next figure looks more male-like or female-like. Then, when the figure appears, guess whether it looks more male-like or female-like and indicate your choice.</p> <p style=""color:white;"">Press the space bar to continue.</p>","32","html-keyboard-response","417","2140194","0.0-16.0","","","","","",""
"3167.2850000034086","<p style=""color:white;""> Next Figure: Male or Female? </p>","188","html-keyboard-response","418","2145369","0.0-17.0-0.0","prediction_train","","","",",",""
"null","<div style=""color:white; font-size:60px;"">+</div>","null","html-keyboard-response","419","2146375","0.0-17.0-1.0","fixation","","","","",""
"1113.7149999993853","Stimuli/Hangul_E2.bmp","190","image-keyboard-response","420","2147489","0.0-17.0-2.0","c2_train",".","","","","."
"1087.0250000008382","<p style=""color:white;""> Next Figure: Male or Female? </p>","190","html-keyboard-response","421","2148577","0.0-17.0-0.1","prediction_train","","","",".",""
"null","<div style=""color:white; font-size:60px;"">+</div>","null","html-keyboard-response","422","2149587","0.0-17.0-1.1","fixation","","","","",""
"1669.9200000003912","Stimuli/Hangul_E1.bmp","190","image-keyboard-response","423","2151258","0.0-17.0-2.1","c2_train",",","","","","."
"902.7449999991804","<p style=""color:white;""> Next Figure: Male or Female? </p>","190","html-keyboard-response","424","2152161","0.0-17.0-0.2","prediction_train","","","",".",""
"null","<div style=""color:white; font-size:60px;"">+</div>","null","html-keyboard-response","425","2153169","0.0-17.0-1.2","fixation","","","","",""
"1414.7649999940768","Stimuli/Hangul_E0.bmp","188","image-keyboard-response","426","2154585","0.0-17.0-2.2","c2_train",",","","","",","
"2286.8549999985844","<p style=""color:white;"">Let us begin! Press the space bar when you are ready to start block 1 of 4.</p> ","32","html-keyboard-response","427","2156873","0.0-18.0","","","","","",""
"1183.309999993071","<p style=""color:white;""> Next Figure: Male or Female? </p>","188","html-keyboard-response","428","2160065","0.0-19.0-0.0","prediction","","","",",",""
"null","<div style=""color:white; font-size:60px;"">+</div>","null","html-keyboard-response","429","2161072","0.0-19.0-1.0","fixation","","","","",""
"3287.2999999960884","Stimuli/Hangul_F2.bmp","188","image-keyboard-response","430","2164361","0.0-19.0-2.0","c2_test",".","","","",","
"999.1750000044703","<p style=""color:white;""> Next Figure: Male or Female? </p>","188","html-keyboard-response","431","2165361","0.0-19.0-0.1","prediction","","","",",",""
"null","<div style=""color:white; font-size:60px;"">+</div>","null","html-keyboard-response","432","2166367","0.0-19.0-1.1","fixation","","","","",""
"1008.8200000026263","Stimuli/Hangul_M4.bmp","190","image-keyboard-response","433","2167377","0.0-19.0-2.1","c2_test",",","","","","."
"830.8499999986961","<p style=""color:white;""> Next Figure: Male or Female? </p>","190","html-keyboard-response","434","2168209","0.0-19.0-0.2","prediction","","","",".",""
"null","<div style=""color:white; font-size:60px;"">+</div>","null","html-keyboard-response","435","2169221","0.0-19.0-1.2","fixation","","","","",""
"722.8600000091828","Stimuli/Hangul_M1.bmp","188","image-keyboard-response","436","2169945","0.0-19.0-2.2","c2_test",",","","","",","
"631.1850000051782","<p style=""color:white;""> Next Figure: Male or Female? </p>","188","html-keyboard-response","437","2170567","0.0-19.0-0.3","prediction","","","",",",""
"null","<div style=""color:white; font-size:60px;"">+</div>","null","html-keyboard-response","438","2171573","0.0-19.0-1.3","fixation","","","","",""
"1449.7450000056997","Stimuli/Hangul_F24.bmp","190","image-keyboard-response","439","2173024","0.0-19.0-2.3","c2_test",".","","","","."
"623.0349999968894","<p style=""color:white;""> Next Figure: Male or Female? </p>","190","html-keyboard-response","440","2173648","0.0-19.0-0.4","prediction","","","",".",""
"null","<div style=""color:white; font-size:60px;"">+</div>","null","html-keyboard-response","441","2174652","0.0-19.0-1.4","fixation","","","","",""
"938.4750000024214","Stimuli/Hangul_F9.bmp","188","image-keyboard-response","442","2175591","0.0-19.0-2.4","c2_test",".","","","",","
"695.3550000037067","<p style=""color:white;""> Next Figure: Male or Female? </p>","188","html-keyboard-response","443","2176288","0.0-19.0-0.5","prediction","","","",",",""
"null","<div style=""color:white; font-size:60px;"">+</div>","null","html-keyboard-response","444","2177293","0.0-19.0-1.5","fixation","","","","",""
"1233.6649999925867","Stimuli/Hangul_F14.bmp","190","image-keyboard-response","445","2178527","0.0-19.0-2.5","c2_test",".","","","","."
"639.1200000070967","<p style=""color:white;""> Next Figure: Male or Female? </p>","190","html-keyboard-response","446","2179168","0.0-19.0-0.6","prediction","","","",".",""
"null","<div style=""color:white; font-size:60px;"">+</div>","null","html-keyboard-response","447","2180171","0.0-19.0-1.6","fixation","","","","",""
"779.9250000100583","Stimuli/Hangul_M0.bmp","188","image-keyboard-response","448","2180951","0.0-19.0-2.6","c2_test",",","","","",","
"895.2350000031292","<p style=""color:white;""> Next Figure: Male or Female? </p>","188","html-keyboard-response","449","2181847","0.0-19.0-0.7","prediction","","","",",",""
"null","<div style=""color:white; font-size:60px;"">+</div>","null","html-keyboard-response","450","2182855","0.0-19.0-1.7","fixation","","","","",""
"1335.680000003893","Stimuli/Hangul_M3.bmp","190","image-keyboard-response","451","2184192","0.0-19.0-2.7","c2_test",",","","","","."
"1406.894999992568","<p style=""color:white;""> Next Figure: Male or Female? </p>","190","html-keyboard-response","452","2185599","0.0-19.0-0.8","prediction","","","",".",""
"null","<div style=""color:white; font-size:60px;"">+</div>","null","html-keyboard-response","453","2186608","0.0-19.0-1.8","fixation","","","","",""
"749.9200000022538","Stimuli/Hangul_M6.bmp","188","image-keyboard-response","454","2187359","0.0-19.0-2.8","c2_test",",","","","",","
"927.2249999921769","<p style=""color:white;""> Next Figure: Male or Female? </p>","188","html-keyboard-response","455","2188287","0.0-19.0-0.9","prediction","","","",",",""
"null","<div style=""color:white; font-size:60px;"">+</div>","null","html-keyboard-response","456","2189295","0.0-19.0-1.9","fixation","","","","",""
"799.8450000011362","Stimuli/Hangul_F1.bmp","190","image-keyboard-response","457","2190095","0.0-19.0-2.9","c2_test",".","","","","."
"686.905000009574","<p style=""color:white;""> Next Figure: Male or Female? </p>","190","html-keyboard-response","458","2190783","0.0-19.0-0.10","prediction","","","",".",""
"null","<div style=""color:white; font-size:60px;"">+</div>","null","html-keyboard-response","459","2191786","0.0-19.0-1.10","fixation","","","","",""
"1372.635000007227","Stimuli/Hangul_F13.bmp","188","image-keyboard-response","460","2193159","0.0-19.0-2.10","c2_test",".","","","",","
"823.2100000027567","<p style=""color:white;""> Next Figure: Male or Female? </p>","190","html-keyboard-response","461","2193983","0.0-19.0-0.11","prediction","","","",".",""
"null","<div style=""color:white; font-size:60px;"">+</div>","null","html-keyboard-response","462","2194985","0.0-19.0-1.11","fixation","","","","",""
"1645.6699999980628","Stimuli/Hangul_M2.bmp","190","image-keyboard-response","463","2196631","0.0-19.0-2.11","c2_test",",","","","","."
"1743.3400000007823","<p style=""color:white;""> Next Figure: Male or Female? </p>","190","html-keyboard-response","464","2198375","0.0-19.0-0.12","prediction","","","",".",""
"null","<div style=""color:white; font-size:60px;"">+</div>","null","html-keyboard-response","465","2199383","0.0-19.0-1.12","fixation","","","","",""
"630.8050000076182","Stimuli/Hangul_F21.bmp","190","image-keyboard-response","466","2200015","0.0-19.0-2.12","c2_test",".","","","","."
"1095.2800000086427","<p style=""color:white;""> Next Figure: Male or Female? </p>","190","html-keyboard-response","467","2201111","0.0-19.0-0.13","prediction","","","",".",""
"null","<div style=""color:white; font-size:60px;"">+</div>","null","html-keyboard-response","468","2202114","0.0-19.0-1.13","fixation","","","","",""
"644.2550000064075","Stimuli/Hangul_F10.bmp","190","image-keyboard-response","469","2202759","0.0-19.0-2.13","c2_test",".","","","","."
"734.125000002794","<p style=""color:white;""> Next Figure: Male or Female? </p>","190","html-keyboard-response","470","2203495","0.0-19.0-0.14","prediction","","","",".",""
"null","<div style=""color:white; font-size:60px;"">+</div>","null","html-keyboard-response","471","2204502","0.0-19.0-1.14","fixation","","","","",""
"968.9349999972619","Stimuli/Hangul_F20.bmp","190","image-keyboard-response","472","2205472","0.0-19.0-2.14","c2_test",".","","","","."
"1110.7950000008568","<p style=""color:white;""> Next Figure: Male or Female? </p>","190","html-keyboard-response","473","2206583","0.0-19.0-0.15","prediction","","","",".",""
"null","<div style=""color:white; font-size:60px;"">+</div>","null","html-keyboard-response","474","2207591","0.0-19.0-1.15","fixation","","","","",""
"855.1599999917671","Stimuli/Hangul_F11.bmp","188","image-keyboard-response","475","2208447","0.0-19.0-2.15","c2_test",".","","","",","
"543.1850000023842","<p style=""color:white;""> Next Figure: Male or Female? </p>","188","html-keyboard-response","476","2208991","0.0-19.0-0.16","prediction","","","",",",""
"null","<div style=""color:white; font-size:60px;"">+</div>","null","html-keyboard-response","477","2209994","0.0-19.0-1.16","fixation","","","","",""
"956.7449999884702","Stimuli/Hangul_F22.bmp","190","image-keyboard-response","478","2210951","0.0-19.0-2.16","c2_test",".","","","","."
"535.1899999952875","<p style=""color:white;""> Next Figure: Male or Female? </p>","190","html-keyboard-response","479","2211487","0.0-19.0-0.17","prediction","","","",".",""
"null","<div style=""color:white; font-size:60px;"">+</div>","null","html-keyboard-response","480","2212496","0.0-19.0-1.17","fixation","","","","",""
"326.27000000467524","Stimuli/Hangul_M23.bmp","188","image-keyboard-response","481","2212823","0.0-19.0-2.17","c2_test",",","","","",","
"846.7450000029057","<p style=""color:white;""> Next Figure: Male or Female? </p>","188","html-keyboard-response","482","2213671","0.0-19.0-0.18","prediction","","","",",",""
"null","<div style=""color:white; font-size:60px;"">+</div>","null","html-keyboard-response","483","2214678","0.0-19.0-1.18","fixation","","","","",""
"688.5849999962375","Stimuli/Hangul_M13.bmp","190","image-keyboard-response","484","2215367","0.0-19.0-2.18","c2_test",",","","","","."
"599.3699999959208","<p style=""color:white;""> Next Figure: Male or Female? </p>","190","html-keyboard-response","485","2215968","0.0-19.0-0.19","prediction","","","",".",""
"null","<div style=""color:white; font-size:60px;"">+</div>","null","html-keyboard-response","486","2216974","0.0-19.0-1.19","fixation","","","","",""
"712.3600000049919","Stimuli/Hangul_M18.bmp","190","image-keyboard-response","487","2217687","0.0-19.0-2.19","c2_test",",","","","","."
"535.0900000045076","<p style=""color:white;""> Next Figure: Male or Female? </p>","190","html-keyboard-response","488","2218223","0.0-19.0-0.20","prediction","","","",".",""
"null","<div style=""color:white; font-size:60px;"">+</div>","null","html-keyboard-response","489","2219225","0.0-19.0-1.20","fixation","","","","",""
"508.93499999074265","Stimuli/Hangul_F0.bmp","188","image-keyboard-response","490","2219735","0.0-19.0-2.20","c2_test",".","","","",","
"951.1649999911897","<p style=""color:white;""> Next Figure: Male or Female? </p>","188","html-keyboard-response","491","2220687","0.0-19.0-0.21","prediction","","","",",",""
"null","<div style=""color:white; font-size:60px;"">+</div>","null","html-keyboard-response","492","2221691","0.0-19.0-1.21","fixation","","","","",""
"515.4449999970384","Stimuli/Hangul_F23.bmp","190","image-keyboard-response","493","2222207","0.0-19.0-2.21","c2_test",".","","","","."
"726.8150000018068","<p style=""color:white;""> Next Figure: Male or Female? </p>","190","html-keyboard-response","494","2222935","0.0-19.0-0.22","prediction","","","",".",""
"null","<div style=""color:white; font-size:60px;"">+</div>","null","html-keyboard-response","495","2223943","0.0-19.0-1.22","fixation","","","","",""
"287.5099999946542","Stimuli/Hangul_M22.bmp","188","image-keyboard-response","496","2224231","0.0-19.0-2.22","c2_test",",","","","",","
"526.7949999980628","<p style=""color:white;""> Next Figure: Male or Female? </p>","188","html-keyboard-response","497","2224759","0.0-19.0-0.23","prediction","","","",",",""
"null","<div style=""color:white; font-size:60px;"">+</div>","null","html-keyboard-response","498","2225770","0.0-19.0-1.23","fixation","","","","",""
"428.37000000849366","Stimuli/Hangul_M9.bmp","190","image-keyboard-response","499","2226199","0.0-19.0-2.23","c2_test",",","","","","."
"1062.9150000019","<p style=""color:white;""> Next Figure: Male or Female? </p>","190","html-keyboard-response","500","2227263","0.0-19.0-0.24","prediction","","","",".",""
"null","<div style=""color:white; font-size:60px;"">+</div>","null","html-keyboard-response","501","2228266","0.0-19.0-1.24","fixation","","","","",""
"516.6150000002235","Stimuli/Hangul_F18.bmp","188","image-keyboard-response","502","2228783","0.0-19.0-2.24","c2_test",".","","","",","
"2199.2800000007264","<p style=""color:white;""> Next Figure: Male or Female? </p>","188","html-keyboard-response","503","2230992","0.0-19.0-0.25","prediction","","","",",",""
"null","<div style=""color:white; font-size:60px;"">+</div>","null","html-keyboard-response","504","2231995","0.0-19.0-1.25","fixation","","","","",""
"868.2399999964982","Stimuli/Hangul_M17.bmp","188","image-keyboard-response","505","2232864","0.0-19.0-2.25","c2_test",",","","","",","
"151.3199999895878","<p style=""color:white;""> Next Figure: Male or Female? </p>","190","html-keyboard-response","506","2233016","0.0-19.0-0.26","prediction","","","",".",""
"null","<div style=""color:white; font-size:60px;"">+</div>","null","html-keyboard-response","507","2234018","0.0-19.0-1.26","fixation","","","","",""
"197.70999999297783","Stimuli/Hangul_F16.bmp","190","image-keyboard-response","508","2234216","0.0-19.0-2.26","c2_test",".","","","","."
"831.2849999931641","<p style=""color:white;""> Next Figure: Male or Female? </p>","190","html-keyboard-response","509","2235048","0.0-19.0-0.27","prediction","","","",".",""
"null","<div style=""color:white; font-size:60px;"">+</div>","null","html-keyboard-response","510","2236057","0.0-19.0-1.27","fixation","","","","",""
"406.6549999988638","Stimuli/Hangul_F12.bmp","188","image-keyboard-response","511","2236465","0.0-19.0-2.27","c2_test",".","","","",","
"710.6500000078231","<p style=""color:white;""> Next Figure: Male or Female? </p>","188","html-keyboard-response","512","2237176","0.0-19.0-0.28","prediction","","","",",",""
"null","<div style=""color:white; font-size:60px;"">+</div>","null","html-keyboard-response","513","2238186","0.0-19.0-1.28","fixation","","","","",""
"517.2850000089966","Stimuli/Hangul_F4.bmp","190","image-keyboard-response","514","2238704","0.0-19.0-2.28","c2_test",".","","","","."
"527.2299999925308","<p style=""color:white;""> Next Figure: Male or Female? </p>","190","html-keyboard-response","515","2239232","0.0-19.0-0.29","prediction","","","",".",""
"null","<div style=""color:white; font-size:60px;"">+</div>","null","html-keyboard-response","516","2240235","0.0-19.0-1.29","fixation","","","","",""
"1516.0900000045076","Stimuli/Hangul_M5.bmp","188","image-keyboard-response","517","2241752","0.0-19.0-2.29","c2_test",",","","","",","
"511.32000000495464","<p style=""color:white;""> Next Figure: Male or Female? </p>","188","html-keyboard-response","518","2242264","0.0-19.0-0.30","prediction","","","",",",""
"null","<div style=""color:white; font-size:60px;"">+</div>","null","html-keyboard-response","519","2243265","0.0-19.0-1.30","fixation","","","","",""
"621.3649999988265","Stimuli/Hangul_F19.bmp","190","image-keyboard-response","520","2243888","0.0-19.0-2.30","c2_test",".","","","","."
"751.3100000070408","<p style=""color:white;""> Next Figure: Male or Female? </p>","190","html-keyboard-response","521","2244640","0.0-19.0-0.31","prediction","","","",".",""
"null","<div style=""color:white; font-size:60px;"">+</div>","null","html-keyboard-response","522","2245644","0.0-19.0-1.31","fixation","","","","",""
"795.1800000006333","Stimuli/Hangul_F17.bmp","188","image-keyboard-response","523","2246440","0.0-19.0-2.31","c2_test",".","","","",","
"703.5550000001676","<p style=""color:white;""> Next Figure: Male or Female? </p>","188","html-keyboard-response","524","2247145","0.0-19.0-0.32","prediction","","","",",",""
"null","<div style=""color:white; font-size:60px;"">+</div>","null","html-keyboard-response","525","2248153","0.0-19.0-1.32","fixation","","","","",""
"886.0050000073388","Stimuli/Hangul_M15.bmp","188","image-keyboard-response","526","2249040","0.0-19.0-2.32","c2_test",",","","","",","
"775.1200000056997","<p style=""color:white;""> Next Figure: Male or Female? </p>","188","html-keyboard-response","527","2249816","0.0-19.0-0.33","prediction","","","",",",""
"null","<div style=""color:white; font-size:60px;"">+</div>","null","html-keyboard-response","528","2250822","0.0-19.0-1.33","fixation","","","","",""
"809.4050000077114","Stimuli/Hangul_M16.bmp","188","image-keyboard-response","529","2251632","0.0-19.0-2.33","c2_test",",","","","",","
"607.2649999987334","<p style=""color:white;""> Next Figure: Male or Female? </p>","188","html-keyboard-response","530","2252240","0.0-19.0-0.34","prediction","","","",",",""
"null","<div style=""color:white; font-size:60px;"">+</div>","null","html-keyboard-response","531","2253242","0.0-19.0-1.34","fixation","","","","",""
"693.4349999935366","Stimuli/Hangul_F15.bmp","190","image-keyboard-response","532","2253936","0.0-19.0-2.34","c2_test",".","","","","."
"687.1900000115857","<p style=""color:white;""> Next Figure: Male or Female? </p>","190","html-keyboard-response","533","2254624","0.0-19.0-0.35","prediction","","","",".",""
"null","<div style=""color:white; font-size:60px;"">+</div>","null","html-keyboard-response","534","2255635","0.0-19.0-1.35","fixation","","","","",""
"908.6050000041723","Stimuli/Hangul_M11.bmp","188","image-keyboard-response","535","2256544","0.0-19.0-2.35","c2_test",",","","","",","
"575.4049999956042","<p style=""color:white;""> Next Figure: Male or Female? </p>","188","html-keyboard-response","536","2257120","0.0-19.0-0.36","prediction","","","",",",""
"null","<div style=""color:white; font-size:60px;"">+</div>","null","html-keyboard-response","537","2258125","0.0-19.0-1.36","fixation","","","","",""
"594.6200000033714","Stimuli/Hangul_M19.bmp","190","image-keyboard-response","538","2258720","0.0-19.0-2.36","c2_test",",","","","","."
"670.9449999905191","<p style=""color:white;""> Next Figure: Male or Female? </p>","190","html-keyboard-response","539","2259392","0.0-19.0-0.37","prediction","","","",".",""
"null","<div style=""color:white; font-size:60px;"">+</div>","null","html-keyboard-response","540","2260400","0.0-19.0-1.37","fixation","","","","",""
"663.5850000018254","Stimuli/Hangul_F7.bmp","190","image-keyboard-response","541","2261064","0.0-19.0-2.37","c2_test",".","","","","."
"687.1899999966845","<p style=""color:white;""> Next Figure: Male or Female? </p>","188","html-keyboard-response","542","2261752","0.0-19.0-0.38","prediction","","","",",",""
"null","<div style=""color:white; font-size:60px;"">+</div>","null","html-keyboard-response","543","2262762","0.0-19.0-1.38","fixation","","","","",""
"453.15999998990446","Stimuli/Hangul_F6.bmp","190","image-keyboard-response","544","2263216","0.0-19.0-2.38","c2_test",".","","","","."
"1007.0399999967776","<p style=""color:white;""> Next Figure: Male or Female? </p>","188","html-keyboard-response","545","2264224","0.0-19.0-0.39","prediction","","","",",",""
"null","<div style=""color:white; font-size:60px;"">+</div>","null","html-keyboard-response","546","2265225","0.0-19.0-1.39","fixation","","","","",""
"702.2350000040606","Stimuli/Hangul_F3.bmp","190","image-keyboard-response","547","2265928","0.0-19.0-2.39","c2_test",".","","","","."
"511.0649999990128","<p style=""color:white;""> Next Figure: Male or Female? </p>","188","html-keyboard-response","548","2266440","0.0-19.0-0.40","prediction","","","",",",""
"null","<div style=""color:white; font-size:60px;"">+</div>","null","html-keyboard-response","549","2267443","0.0-19.0-1.40","fixation","","","","",""
"1251.974999992177","Stimuli/Hangul_M7.bmp","190","image-keyboard-response","550","2268696","0.0-19.0-2.40","c2_test",",","","","","."
"719.6899999980815","<p style=""color:white;""> Next Figure: Male or Female? </p>","190","html-keyboard-response","551","2269417","0.0-19.0-0.41","prediction","","","",".",""
"null","<div style=""color:white; font-size:60px;"">+</div>","null","html-keyboard-response","552","2270421","0.0-19.0-1.41","fixation","","","","",""
"882.2199999997392","Stimuli/Hangul_M21.bmp","188","image-keyboard-response","553","2271304","0.0-19.0-2.41","c2_test",",","","","",","
"759.1099999989383","<p style=""color:white;""> Next Figure: Male or Female? </p>","190","html-keyboard-response","554","2272064","0.0-19.0-0.42","prediction","","","",".",""
"null","<div style=""color:white; font-size:60px;"">+</div>","null","html-keyboard-response","555","2273073","0.0-19.0-1.42","fixation","","","","",""
"973.7650000024587","Stimuli/Hangul_M20.bmp","188","image-keyboard-response","556","2274048","0.0-19.0-2.42","c2_test",",","","","",","
"471.1400000085123","<p style=""color:white;""> Next Figure: Male or Female? </p>","188","html-keyboard-response","557","2274520","0.0-19.0-0.43","prediction","","","",",",""
"null","<div style=""color:white; font-size:60px;"">+</div>","null","html-keyboard-response","558","2275525","0.0-19.0-1.43","fixation","","","","",""
"1146.0899999947287","Stimuli/Hangul_F8.bmp","190","image-keyboard-response","559","2276672","0.0-19.0-2.43","c2_test",".","","","","."
"607.2200000053272","<p style=""color:white;""> Next Figure: Male or Female? </p>","190","html-keyboard-response","560","2277280","0.0-19.0-0.44","prediction","","","",".",""
"null","<div style=""color:white; font-size:60px;"">+</div>","null","html-keyboard-response","561","2278289","0.0-19.0-1.44","fixation","","","","",""
"1045.6750000012107","Stimuli/Hangul_F5.bmp","188","image-keyboard-response","562","2279336","0.0-19.0-2.44","c2_test",".","","","",","
"519.5499999970198","<p style=""color:white;""> Next Figure: Male or Female? </p>","188","html-keyboard-response","563","2279856","0.0-19.0-0.45","prediction","","","",",",""
"null","<div style=""color:white; font-size:60px;"">+</div>","null","html-keyboard-response","564","2280859","0.0-19.0-1.45","fixation","","","","",""
"724.4700000011362","Stimuli/Hangul_M24.bmp","190","image-keyboard-response","565","2281584","0.0-19.0-2.45","c2_test",",","","","","."
"551.1499999994412","<p style=""color:white;""> Next Figure: Male or Female? </p>","190","html-keyboard-response","566","2282136","0.0-19.0-0.46","prediction","","","",".",""
"null","<div style=""color:white; font-size:60px;"">+</div>","null","html-keyboard-response","567","2283138","0.0-19.0-1.46","fixation","","","","",""
"581.2299999962561","Stimuli/Hangul_M10.bmp","190","image-keyboard-response","568","2283720","0.0-19.0-2.46","c2_test",",","","","","."
"519.090000001248","<p style=""color:white;""> Next Figure: Male or Female? </p>","190","html-keyboard-response","569","2284240","0.0-19.0-0.47","prediction","","","",".",""
"null","<div style=""color:white; font-size:60px;"">+</div>","null","html-keyboard-response","570","2285247","0.0-19.0-1.47","fixation","","","","",""
"928.1699999989942","Stimuli/Hangul_M8.bmp","188","image-keyboard-response","571","2286176","0.0-19.0-2.47","c2_test",",","","","",","
"679.2300000088289","<p style=""color:white;""> Next Figure: Male or Female? </p>","188","html-keyboard-response","572","2286856","0.0-19.0-0.48","prediction","","","",",",""
"null","<div style=""color:white; font-size:60px;"">+</div>","null","html-keyboard-response","573","2287861","0.0-19.0-1.48","fixation","","","","",""
"986.1450000023469","Stimuli/Hangul_M14.bmp","190","image-keyboard-response","574","2288848","0.0-19.0-2.48","c2_test",",","","","","."
"870.8750000074506","<p style=""color:white;""> Next Figure: Male or Female? </p>","190","html-keyboard-response","575","2289720","0.0-19.0-0.49","prediction","","","",".",""
"null","<div style=""color:white; font-size:60px;"">+</div>","null","html-keyboard-response","576","2290727","0.0-19.0-1.49","fixation","","","","",""
"544.5800000014715","Stimuli/Hangul_M12.bmp","188","image-keyboard-response","577","2291266","0.0-19.0-2.49","c2_test",",","","","",","
"1974.6149999992922","<p style=""color:white;"">Good job, block 1 complete! Please take a moment to rest.</p> <p style=""color:white;"">When you are ready to continue with block 2 of 4, press the space bar.</p> ","32","html-keyboard-response","578","2293241","0.0-20.0","","","","","",""
"321.0700000054203","<p style=""color:white;""> Next Figure: Male or Female? </p>","188","html-keyboard-response","579","2295569","0.0-21.0-0.0","prediction","","","",",",""
"null","<div style=""color:white; font-size:60px;"">+</div>","null","html-keyboard-response","580","2296581","0.0-21.0-1.0","fixation","","","","",""
"851.5749999932013","Stimuli/Hangul_F28.bmp","188","image-keyboard-response","581","2297433","0.0-21.0-2.0","c2_test",".","","","",","
"543.0849999976344","<p style=""color:white;""> Next Figure: Male or Female? </p>","188","html-keyboard-response","582","2297977","0.0-21.0-0.1","prediction","","","",",",""
"null","<div style=""color:white; font-size:60px;"">+</div>","null","html-keyboard-response","583","2298983","0.0-21.0-1.1","fixation","","","","",""
"1113.1949999979697","Stimuli/Hangul_M25.bmp","190","image-keyboard-response","584","2300097","0.0-21.0-2.1","c2_test",",","","","","."
"487.24500001128763","<p style=""color:white;""> Next Figure: Male or Female? </p>","190","html-keyboard-response","585","2300585","0.0-21.0-0.2","prediction","","","",".",""
"null","<div style=""color:white; font-size:60px;"">+</div>","null","html-keyboard-response","586","2301594","0.0-21.0-1.2","fixation","","","","",""
"854.6300000017509","Stimuli/Hangul_F41.bmp","190","image-keyboard-response","587","2302450","0.0-21.0-2.2","c2_test",".","","","","."
"2158.860000010114","<p style=""color:white;""> Next Figure: Male or Female? </p>","188","html-keyboard-response","588","2304609","0.0-21.0-0.3","prediction","","","",",",""
"null","<div style=""color:white; font-size:60px;"">+</div>","null","html-keyboard-response","589","2305618","0.0-21.0-1.3","fixation","","","","",""
"2014.1849999926053","Stimuli/Hangul_F38.bmp","188","image-keyboard-response","590","2307633","0.0-21.0-2.3","c2_test",".","","","",","
"4959.575000001118","<p style=""color:white;""> Next Figure: Male or Female? </p>","190","html-keyboard-response","591","2312594","0.0-21.0-0.4","prediction","","","",".",""
"null","<div style=""color:white; font-size:60px;"">+</div>","null","html-keyboard-response","592","2313602","0.0-21.0-1.4","fixation","","","","",""
"902.3749999906868","Stimuli/Hangul_M34.bmp","188","image-keyboard-response","593","2314505","0.0-21.0-2.4","c2_test",",","","","",","
"487.2050000121817","<p style=""color:white;""> Next Figure: Male or Female? </p>","188","html-keyboard-response","594","2314993","0.0-21.0-0.5","prediction","","","",",",""
"null","<div style=""color:white; font-size:60px;"">+</div>","null","html-keyboard-response","595","2315995","0.0-21.0-1.5","fixation","","","","",""
"373.91999999806285","Stimuli/Hangul_F35.bmp","188","image-keyboard-response","596","2316369","0.0-21.0-2.5","c2_test",".","","","",","
"470.9749999893829","<p style=""color:white;""> Next Figure: Male or Female? </p>","188","html-keyboard-response","597","2316841","0.0-21.0-0.6","prediction","","","",",",""
"null","<div style=""color:white; font-size:60px;"">+</div>","null","html-keyboard-response","598","2317847","0.0-21.0-1.6","fixation","","","","",""
"457.83499999390915","Stimuli/Hangul_M31.bmp","188","image-keyboard-response","599","2318305","0.0-21.0-2.6","c2_test",",","","","",","
"391.0599999940023","<p style=""color:white;""> Next Figure: Male or Female? </p>","188","html-keyboard-response","600","2318697","0.0-21.0-0.7","prediction","","","",",",""
"null","<div style=""color:white; font-size:60px;"">+</div>","null","html-keyboard-response","601","2319703","0.0-21.0-1.7","fixation","","","","",""
"841.2050000042655","Stimuli/Hangul_M46.bmp","188","image-keyboard-response","602","2320545","0.0-21.0-2.7","c2_test",",","","","",","
"623.214999999851","<p style=""color:white;""> Next Figure: Male or Female? </p>","190","html-keyboard-response","603","2321169","0.0-21.0-0.8","prediction","","","",".",""
"null","<div style=""color:white; font-size:60px;"">+</div>","null","html-keyboard-response","604","2322175","0.0-21.0-1.8","fixation","","","","",""
"689.4900000044145","Stimuli/Hangul_F26.bmp","190","image-keyboard-response","605","2322865","0.0-21.0-2.8","c2_test",".","","","","."
"503.38500000396743","<p style=""color:white;""> Next Figure: Male or Female? </p>","188","html-keyboard-response","606","2323370","0.0-21.0-0.9","prediction","","","",",",""
"null","<div style=""color:white; font-size:60px;"">+</div>","null","html-keyboard-response","607","2324375","0.0-21.0-1.9","fixation","","","","",""
"729.3700000010431","Stimuli/Hangul_F49.bmp","190","image-keyboard-response","608","2325105","0.0-21.0-2.9","c2_test",".","","","","."
"663.1550000021234","<p style=""color:white;""> Next Figure: Male or Female? </p>","188","html-keyboard-response","609","2325769","0.0-21.0-0.10","prediction","","","",",",""
"null","<div style=""color:white; font-size:60px;"">+</div>","null","html-keyboard-response","610","2326777","0.0-21.0-1.10","fixation","","","","",""
"607.2399999974295","Stimuli/Hangul_F32.bmp","190","image-keyboard-response","611","2327385","0.0-21.0-2.10","c2_test",".","","","","."
"678.7850000108592","<p style=""color:white;""> Next Figure: Male or Female? </p>","190","html-keyboard-response","612","2328065","0.0-21.0-0.11","prediction","","","",".",""
"null","<div style=""color:white; font-size:60px;"">+</div>","null","html-keyboard-response","613","2329073","0.0-21.0-1.11","fixation","","","","",""
"599.0650000022724","Stimuli/Hangul_F46.bmp","188","image-keyboard-response","614","2329673","0.0-21.0-2.11","c2_test",".","","","",","
"813.6149999918416","<p style=""color:white;""> Next Figure: Male or Female? </p>","190","html-keyboard-response","615","2330489","0.0-21.0-0.12","prediction","","","",".",""
"null","<div style=""color:white; font-size:60px;"">+</div>","null","html-keyboard-response","616","2331490","0.0-21.0-1.12","fixation","","","","",""
"814.175000006333","Stimuli/Hangul_F42.bmp","188","image-keyboard-response","617","2332305","0.0-21.0-2.12","c2_test",".","","","",","
"527.0500000040047","<p style=""color:white;""> Next Figure: Male or Female? </p>","190","html-keyboard-response","618","2332833","0.0-21.0-0.13","prediction","","","",".",""
"null","<div style=""color:white; font-size:60px;"">+</div>","null","html-keyboard-response","619","2333839","0.0-21.0-1.13","fixation","","","","",""
"1009.6550000016578","Stimuli/Hangul_F37.bmp","188","image-keyboard-response","620","2334849","0.0-21.0-2.13","c2_test",".","","","",","
"414.8799999966286","<p style=""color:white;""> Next Figure: Male or Female? </p>","190","html-keyboard-response","621","2335265","0.0-21.0-0.14","prediction","","","",".",""
"null","<div style=""color:white; font-size:60px;"">+</div>","null","html-keyboard-response","622","2336275","0.0-21.0-1.14","fixation","","","","",""
"685.3499999996275","Stimuli/Hangul_M42.bmp","188","image-keyboard-response","623","2336961","0.0-21.0-2.14","c2_test",",","","","",","
"687.2750000036322","<p style=""color:white;""> Next Figure: Male or Female? </p>","188","html-keyboard-response","624","2337649","0.0-21.0-0.15","prediction","","","",",",""
"null","<div style=""color:white; font-size:60px;"">+</div>","null","html-keyboard-response","625","2338656","0.0-21.0-1.15","fixation","","","","",""
"415.6849999995902","Stimuli/Hangul_M32.bmp","190","image-keyboard-response","626","2339073","0.0-21.0-2.15","c2_test",",","","","","."
"463.26000000396743","<p style=""color:white;""> Next Figure: Male or Female? </p>","188","html-keyboard-response","627","2339537","0.0-21.0-0.16","prediction","","","",",",""
"null","<div style=""color:white; font-size:60px;"">+</div>","null","html-keyboard-response","628","2340547","0.0-21.0-1.16","fixation","","","","",""
"380.9200000106357","Stimuli/Hangul_F43.bmp","190","image-keyboard-response","629","2340929","0.0-21.0-2.16","c2_test",".","","","","."
"391.17499999701977","<p style=""color:white;""> Next Figure: Male or Female? </p>","188","html-keyboard-response","630","2341321","0.0-21.0-0.17","prediction","","","",",",""
"null","<div style=""color:white; font-size:60px;"">+</div>","null","html-keyboard-response","631","2342328","0.0-21.0-1.17","fixation","","","","",""
"927.7950000106357","Stimuli/Hangul_M30.bmp","190","image-keyboard-response","632","2343257","0.0-21.0-2.17","c2_test",",","","","","."
"358.55999999307096","<p style=""color:white;""> Next Figure: Male or Female? </p>","188","html-keyboard-response","633","2343617","0.0-21.0-0.18","prediction","","","",",",""
"null","<div style=""color:white; font-size:60px;"">+</div>","null","html-keyboard-response","634","2344621","0.0-21.0-1.18","fixation","","","","",""
"803.8349999990314","Stimuli/Hangul_M48.bmp","190","image-keyboard-response","635","2345425","0.0-21.0-2.18","c2_test",",","","","","."
"534.789999990724","<p style=""color:white;""> Next Figure: Male or Female? </p>","188","html-keyboard-response","636","2345961","0.0-21.0-0.19","prediction","","","",",",""
"null","<div style=""color:white; font-size:60px;"">+</div>","null","html-keyboard-response","637","2346965","0.0-21.0-1.19","fixation","","","","",""
"1778.5900000017136","Stimuli/Hangul_F47.bmp","188","image-keyboard-response","638","2348745","0.0-21.0-2.19","c2_test",".","","","",","
"351.2550000012852","<p style=""color:white;""> Next Figure: Male or Female? </p>","190","html-keyboard-response","639","2349097","0.0-21.0-0.20","prediction","","","",".",""
"null","<div style=""color:white; font-size:60px;"">+</div>","null","html-keyboard-response","640","2350106","0.0-21.0-1.20","fixation","","","","",""
"958.0050000078045","Stimuli/Hangul_F27.bmp","188","image-keyboard-response","641","2351065","0.0-21.0-2.20","c2_test",".","","","",","
"1015.1599999950267","<p style=""color:white;""> Next Figure: Male or Female? </p>","188","html-keyboard-response","642","2352083","0.0-21.0-0.21","prediction","","","",",",""
"null","<div style=""color:white; font-size:60px;"">+</div>","null","html-keyboard-response","643","2353089","0.0-21.0-1.21","fixation","","","","",""
"681.125000002794","Stimuli/Hangul_F30.bmp","190","image-keyboard-response","644","2353771","0.0-21.0-2.21","c2_test",".","","","","."
"543.2699999948964","<p style=""color:white;""> Next Figure: Male or Female? </p>","190","html-keyboard-response","645","2354315","0.0-21.0-0.22","prediction","","","",".",""
"null","<div style=""color:white; font-size:60px;"">+</div>","null","html-keyboard-response","646","2355326","0.0-21.0-1.22","fixation","","","","",""
"748.5849999939092","Stimuli/Hangul_F25.bmp","190","image-keyboard-response","647","2356076","0.0-21.0-2.22","c2_test",".","","","","."
"590.7200000076555","<p style=""color:white;""> Next Figure: Male or Female? </p>","190","html-keyboard-response","648","2356667","0.0-21.0-0.23","prediction","","","",".",""
"null","<div style=""color:white; font-size:60px;"">+</div>","null","html-keyboard-response","649","2357670","0.0-21.0-1.23","fixation","","","","",""
"741.1550000105053","Stimuli/Hangul_M41.bmp","188","image-keyboard-response","650","2358411","0.0-21.0-2.23","c2_test",",","","","",","
"559.034999998752","<p style=""color:white;""> Next Figure: Male or Female? </p>","190","html-keyboard-response","651","2358971","0.0-21.0-0.24","prediction","","","",".",""
"null","<div style=""color:white; font-size:60px;"">+</div>","null","html-keyboard-response","652","2359975","0.0-21.0-1.24","fixation","","","","",""
