"rt","stimulus","key_press","trial_type","trial_index","time_elapsed","internal_node_id","test_part","correct_response","C1_train","C1","A","C2"
"4871.000000000087","<p style=""color:white;"">Welcome to the experiment! Press any key to begin.</p>","13","html-keyboard-response","0","4887","0.0-0.0","","","","","",""
"21768.00000000003","<p style=""color:white;"">You will see a series of abstract figures. They are adaptations of signs in the Korean alphabet, but that is not important for this study. </p><p style=""color:white;"">Abstract figures sometimes have a more masculine or feminine shape. Here, each figure has already been assigned a gender as <q>Male</q> or <q>Female</q> by a panel of respondents in a pilot study. The respondents were not given specific instructions on how to do this, but were only told to use their intuition and to take into account the entire configuration of the stimulus. </p><p style=""color:white;"">Your task now is to guess the assigned gender of each figure. Please press the corresponding response keys to indicate your choice: </p><p style=""color:white;""> Male &#8594 <q>,</q> (comma)</p><p style=""color:white;""> Female &#8594 <q>.</q> (period)</p><p style=""color:white;"">Press either response keys to continue.</p>","190","html-keyboard-response","1","26664","0.0-1.0","","","","","",""
"75627.0000000004","<p style=""color:white;"">Your choice is correct if it matches the gender assigned by the majority of respondents in the pilot study.</p> <p style=""color:white;"">For each correct choice you will receive 2 cents. There will be 200 trials divided into 4 blocks of 50 trials. You will be able to take a break after every 50 trials.</p> <p style=""color:white;"">Press the space bar to continue.</p>","32","html-keyboard-response","2","102294","0.0-2.0","","","","","",""
"5648.0000000001455","<p style=""color:white;"">Here are some examples.</p> <p style=""color:white;"">For each, guess whether the assigned figure is male-like or female-like and indicate your choice by pressing either response keys.</p> <p style=""color:white;"">Press the space bar to continue.</p>","32","html-keyboard-response","3","107951","0.0-3.0","","","","","",""
"null","<div style=""color:white; font-size:60px;"">+</div>","null","html-keyboard-response","4","110963","0.0-4.0-0.0","fixation","","","","",""
"22351.000000000087","Stimuli/Hangul_E1.bmp","188","image-keyboard-response","5","133327","0.0-4.0-1.0","c1_train",",",",","","",""
"null","<div style=""color:white; font-size:60px;"">+</div>","null","html-keyboard-response","6","134329","0.0-4.0-0.1","fixation","","","","",""
"32344.00000000006","Stimuli/Hangul_E0.bmp","190","image-keyboard-response","7","166687","0.0-4.0-1.1","c1_train",",",".","","",""
"null","<div style=""color:white; font-size:60px;"">+</div>","null","html-keyboard-response","8","167695","0.0-4.0-0.2","fixation","","","","",""
"8901.999999999593","Stimuli/Hangul_E2.bmp","188","image-keyboard-response","9","176599","0.0-4.0-1.2","c1_train",".",",","","",""
"3208.0000000000873","<p style=""color:white;"">Let us begin! Press the space bar when you are ready to start block 1 of 4.</p> ","32","html-keyboard-response","10","179815","0.0-5.0","","","","","",""
"null","<div style=""color:white; font-size:60px;"">+</div>","null","html-keyboard-response","11","182824","0.0-6.0-0.0","fixation","","","","",""
"14567.999999999738","Stimuli/Hangul_M9.bmp","188","image-keyboard-response","12","197399","0.0-6.0-1.0","test",",","",",","",""
"null","<div style=""color:white; font-size:60px;"">+</div>","null","html-keyboard-response","13","198405","0.0-6.0-0.1","fixation","","","","",""
"11900.000000000116","Stimuli/Hangul_M12.bmp","188","image-keyboard-response","14","210318","0.0-6.0-1.1","test",",","",",","",""
"null","<div style=""color:white; font-size:60px;"">+</div>","null","html-keyboard-response","15","211319","0.0-6.0-0.2","fixation","","","","",""
"5909.000000000058","Stimuli/Hangul_M19.bmp","190","image-keyboard-response","16","217228","0.0-6.0-1.2","test",",","",".","",""
"null","<div style=""color:white; font-size:60px;"">+</div>","null","html-keyboard-response","17","218234","0.0-6.0-0.3","fixation","","","","",""
"9030.999999999942","Stimuli/Hangul_M15.bmp","190","image-keyboard-response","18","227265","0.0-6.0-1.3","test",",","",".","",""
"null","<div style=""color:white; font-size:60px;"">+</div>","null","html-keyboard-response","19","228293","0.0-6.0-0.4","fixation","","","","",""
"7405.999999999942","Stimuli/Hangul_F7.bmp","190","image-keyboard-response","20","235701","0.0-6.0-1.4","test",".","",".","",""
"null","<div style=""color:white; font-size:60px;"">+</div>","null","html-keyboard-response","21","236718","0.0-6.0-0.5","fixation","","","","",""
"4003.999999999942","Stimuli/Hangul_F3.bmp","188","image-keyboard-response","22","240726","0.0-6.0-1.5","test",".","",",","",""
"null","<div style=""color:white; font-size:60px;"">+</div>","null","html-keyboard-response","23","241746","0.0-6.0-0.6","fixation","","","","",""
"2615.999999999942","Stimuli/Hangul_F21.bmp","190","image-keyboard-response","24","244368","0.0-6.0-1.6","test",".","",".","",""
"null","<div style=""color:white; font-size:60px;"">+</div>","null","html-keyboard-response","25","245376","0.0-6.0-0.7","fixation","","","","",""
"3136.999999999709","Stimuli/Hangul_M13.bmp","188","image-keyboard-response","26","248525","0.0-6.0-1.7","test",",","",",","",""
"null","<div style=""color:white; font-size:60px;"">+</div>","null","html-keyboard-response","27","249534","0.0-6.0-0.8","fixation","","","","",""
"4894.000000000233","Stimuli/Hangul_F22.bmp","188","image-keyboard-response","28","254429","0.0-6.0-1.8","test",".","",",","",""
"null","<div style=""color:white; font-size:60px;"">+</div>","null","html-keyboard-response","29","255431","0.0-6.0-0.9","fixation","","","","",""
"2366","Stimuli/Hangul_M20.bmp","188","image-keyboard-response","30","257797","0.0-6.0-1.9","test",",","",",","",""
"null","<div style=""color:white; font-size:60px;"">+</div>","null","html-keyboard-response","31","258805","0.0-6.0-0.10","fixation","","","","",""
"1985.0000000001164","Stimuli/Hangul_M3.bmp","190","image-keyboard-response","32","260790","0.0-6.0-1.10","test",",","",".","",""
"null","<div style=""color:white; font-size:60px;"">+</div>","null","html-keyboard-response","33","261806","0.0-6.0-0.11","fixation","","","","",""
"4592.000000000116","Stimuli/Hangul_F11.bmp","188","image-keyboard-response","34","266407","0.0-6.0-1.11","test",".","",",","",""
"null","<div style=""color:white; font-size:60px;"">+</div>","null","html-keyboard-response","35","267418","0.0-6.0-0.12","fixation","","","","",""
"5701","Stimuli/Hangul_F10.bmp","188","image-keyboard-response","36","273122","0.0-6.0-1.12","test",".","",",","",""
"null","<div style=""color:white; font-size:60px;"">+</div>","null","html-keyboard-response","37","274127","0.0-6.0-0.13","fixation","","","","",""
"5167.000000000349","Stimuli/Hangul_M11.bmp","190","image-keyboard-response","38","279294","0.0-6.0-1.13","test",",","",".","",""
"null","<div style=""color:white; font-size:60px;"">+</div>","null","html-keyboard-response","39","280314","0.0-6.0-0.14","fixation","","","","",""
"3507.000000000058","Stimuli/Hangul_M17.bmp","188","image-keyboard-response","40","283824","0.0-6.0-1.14","test",",","",",","",""
"null","<div style=""color:white; font-size:60px;"">+</div>","null","html-keyboard-response","41","284826","0.0-6.0-0.15","fixation","","","","",""
"2603.000000000058","Stimuli/Hangul_F13.bmp","188","image-keyboard-response","42","287432","0.0-6.0-1.15","test",".","",",","",""
"null","<div style=""color:white; font-size:60px;"">+</div>","null","html-keyboard-response","43","288434","0.0-6.0-0.16","fixation","","","","",""
"2306.000000000058","Stimuli/Hangul_M4.bmp","188","image-keyboard-response","44","290743","0.0-6.0-1.16","test",",","",",","",""
"null","<div style=""color:white; font-size:60px;"">+</div>","null","html-keyboard-response","45","291743","0.0-6.0-0.17","fixation","","","","",""
"2965.9999999998836","Stimuli/Hangul_F20.bmp","188","image-keyboard-response","46","294710","0.0-6.0-1.17","test",".","",",","",""
"null","<div style=""color:white; font-size:60px;"">+</div>","null","html-keyboard-response","47","295723","0.0-6.0-0.18","fixation","","","","",""
"4222.000000000175","Stimuli/Hangul_F12.bmp","188","image-keyboard-response","48","299958","0.0-6.0-1.18","test",".","",",","",""
"null","<div style=""color:white; font-size:60px;"">+</div>","null","html-keyboard-response","49","300974","0.0-6.0-0.19","fixation","","","","",""
"1763.9999999996508","Stimuli/Hangul_M6.bmp","190","image-keyboard-response","50","302743","0.0-6.0-1.19","test",",","",".","",""
"null","<div style=""color:white; font-size:60px;"">+</div>","null","html-keyboard-response","51","303752","0.0-6.0-0.20","fixation","","","","",""
"2973.0000000004075","Stimuli/Hangul_M1.bmp","190","image-keyboard-response","52","306726","0.0-6.0-1.20","test",",","",".","",""
"null","<div style=""color:white; font-size:60px;"">+</div>","null","html-keyboard-response","53","307732","0.0-6.0-0.21","fixation","","","","",""
"3780.999999999942","Stimuli/Hangul_F0.bmp","188","image-keyboard-response","54","311518","0.0-6.0-1.21","test",".","",",","",""
"null","<div style=""color:white; font-size:60px;"">+</div>","null","html-keyboard-response","55","312526","0.0-6.0-0.22","fixation","","","","",""
"3559.0000000001746","Stimuli/Hangul_F2.bmp","190","image-keyboard-response","56","316087","0.0-6.0-1.22","test",".","",".","",""
"null","<div style=""color:white; font-size:60px;"">+</div>","null","html-keyboard-response","57","317088","0.0-6.0-0.23","fixation","","","","",""
"2641.9999999998254","Stimuli/Hangul_F5.bmp","188","image-keyboard-response","58","319734","0.0-6.0-1.23","test",".","",",","",""
"null","<div style=""color:white; font-size:60px;"">+</div>","null","html-keyboard-response","59","320746","0.0-6.0-0.24","fixation","","","","",""
"2325.000000000291","Stimuli/Hangul_M18.bmp","188","image-keyboard-response","60","323071","0.0-6.0-1.24","test",",","",",","",""
"null","<div style=""color:white; font-size:60px;"">+</div>","null","html-keyboard-response","61","324088","0.0-6.0-0.25","fixation","","","","",""
"2481.999999999942","Stimuli/Hangul_M23.bmp","188","image-keyboard-response","62","326570","0.0-6.0-1.25","test",",","",",","",""
"null","<div style=""color:white; font-size:60px;"">+</div>","null","html-keyboard-response","63","327598","0.0-6.0-0.26","fixation","","","","",""
"3326.999999999767","Stimuli/Hangul_M16.bmp","190","image-keyboard-response","64","330926","0.0-6.0-1.26","test",",","",".","",""
"null","<div style=""color:white; font-size:60px;"">+</div>","null","html-keyboard-response","65","331950","0.0-6.0-0.27","fixation","","","","",""
"9829.000000000175","Stimuli/Hangul_M5.bmp","188","image-keyboard-response","66","341782","0.0-6.0-1.27","test",",","",",","",""
"null","<div style=""color:white; font-size:60px;"">+</div>","null","html-keyboard-response","67","342782","0.0-6.0-0.28","fixation","","","","",""
"6426.999999999651","Stimuli/Hangul_F17.bmp","188","image-keyboard-response","68","349209","0.0-6.0-1.28","test",".","",",","",""
"null","<div style=""color:white; font-size:60px;"">+</div>","null","html-keyboard-response","69","350239","0.0-6.0-0.29","fixation","","","","",""
"5341.000000000349","Stimuli/Hangul_F24.bmp","190","image-keyboard-response","70","355582","0.0-6.0-1.29","test",".","",".","",""
"null","<div style=""color:white; font-size:60px;"">+</div>","null","html-keyboard-response","71","356584","0.0-6.0-0.30","fixation","","","","",""
"4663.000000000058","Stimuli/Hangul_F18.bmp","190","image-keyboard-response","72","361253","0.0-6.0-1.30","test",".","",".","",""
"null","<div style=""color:white; font-size:60px;"">+</div>","null","html-keyboard-response","73","362260","0.0-6.0-0.31","fixation","","","","",""
"2149.0000000003492","Stimuli/Hangul_M8.bmp","188","image-keyboard-response","74","364421","0.0-6.0-1.31","test",",","",",","",""
"null","<div style=""color:white; font-size:60px;"">+</div>","null","html-keyboard-response","75","365437","0.0-6.0-0.32","fixation","","","","",""
"1913.9999999997672","Stimuli/Hangul_M0.bmp","188","image-keyboard-response","76","367358","0.0-6.0-1.32","test",",","",",","",""
"null","<div style=""color:white; font-size:60px;"">+</div>","null","html-keyboard-response","77","368362","0.0-6.0-0.33","fixation","","","","",""
"3761.999999999709","Stimuli/Hangul_M2.bmp","188","image-keyboard-response","78","372125","0.0-6.0-1.33","test",",","",",","",""
"null","<div style=""color:white; font-size:60px;"">+</div>","null","html-keyboard-response","79","373132","0.0-6.0-0.34","fixation","","","","",""
"2448.0000000003492","Stimuli/Hangul_F19.bmp","188","image-keyboard-response","80","375589","0.0-6.0-1.34","test",".","",",","",""
"null","<div style=""color:white; font-size:60px;"">+</div>","null","html-keyboard-response","81","376598","0.0-6.0-0.35","fixation","","","","",""
"2069.999999999709","Stimuli/Hangul_F23.bmp","190","image-keyboard-response","82","378670","0.0-6.0-1.35","test",".","",".","",""
"null","<div style=""color:white; font-size:60px;"">+</div>","null","html-keyboard-response","83","379679","0.0-6.0-0.36","fixation","","","","",""
"3751.999999999942","Stimuli/Hangul_M14.bmp","188","image-keyboard-response","84","383437","0.0-6.0-1.36","test",",","",",","",""
"null","<div style=""color:white; font-size:60px;"">+</div>","null","html-keyboard-response","85","384441","0.0-6.0-0.37","fixation","","","","",""
"2792.0000000004075","Stimuli/Hangul_F15.bmp","188","image-keyboard-response","86","387238","0.0-6.0-1.37","test",".","",",","",""
"null","<div style=""color:white; font-size:60px;"">+</div>","null","html-keyboard-response","87","388243","0.0-6.0-0.38","fixation","","","","",""
"1716.0000000003492","Stimuli/Hangul_F1.bmp","188","image-keyboard-response","88","389962","0.0-6.0-1.38","test",".","",",","",""
"null","<div style=""color:white; font-size:60px;"">+</div>","null","html-keyboard-response","89","390988","0.0-6.0-0.39","fixation","","","","",""
"3514.0000000001164","Stimuli/Hangul_M10.bmp","190","image-keyboard-response","90","394502","0.0-6.0-1.39","test",",","",".","",""
"null","<div style=""color:white; font-size:60px;"">+</div>","null","html-keyboard-response","91","395510","0.0-6.0-0.40","fixation","","","","",""
"2738.9999999995343","Stimuli/Hangul_M21.bmp","188","image-keyboard-response","92","398251","0.0-6.0-1.40","test",",","",",","",""
"null","<div style=""color:white; font-size:60px;"">+</div>","null","html-keyboard-response","93","399264","0.0-6.0-0.41","fixation","","","","",""
"6927.999999999884","Stimuli/Hangul_F4.bmp","188","image-keyboard-response","94","406192","0.0-6.0-1.41","test",".","",",","",""
"null","<div style=""color:white; font-size:60px;"">+</div>","null","html-keyboard-response","95","407203","0.0-6.0-0.42","fixation","","","","",""
"12369.000000000582","Stimuli/Hangul_M7.bmp","188","image-keyboard-response","96","419575","0.0-6.0-1.42","test",",","",",","",""
"null","<div style=""color:white; font-size:60px;"">+</div>","null","html-keyboard-response","97","420608","0.0-6.0-0.43","fixation","","","","",""
"12221.000000000466","Stimuli/Hangul_F9.bmp","190","image-keyboard-response","98","432839","0.0-6.0-1.43","test",".","",".","",""
"null","<div style=""color:white; font-size:60px;"">+</div>","null","html-keyboard-response","99","433843","0.0-6.0-0.44","fixation","","","","",""
"21060.000000000407","Stimuli/Hangul_M24.bmp","190","image-keyboard-response","100","454910","0.0-6.0-1.44","test",",","",".","",""
"null","<div style=""color:white; font-size:60px;"">+</div>","null","html-keyboard-response","101","455922","0.0-6.0-0.45","fixation","","","","",""
"3201","Stimuli/Hangul_M22.bmp","188","image-keyboard-response","102","459125","0.0-6.0-1.45","test",",","",",","",""
"null","<div style=""color:white; font-size:60px;"">+</div>","null","html-keyboard-response","103","460138","0.0-6.0-0.46","fixation","","","","",""
"3752.9999999996508","Stimuli/Hangul_F8.bmp","190","image-keyboard-response","104","463893","0.0-6.0-1.46","test",".","",".","",""
"null","<div style=""color:white; font-size:60px;"">+</div>","null","html-keyboard-response","105","464894","0.0-6.0-0.47","fixation","","","","",""
"3518","Stimuli/Hangul_F6.bmp","188","image-keyboard-response","106","468422","0.0-6.0-1.47","test",".","",",","",""
"null","<div style=""color:white; font-size:60px;"">+</div>","null","html-keyboard-response","107","469435","0.0-6.0-0.48","fixation","","","","",""
"4121.000000000116","Stimuli/Hangul_F16.bmp","190","image-keyboard-response","108","473558","0.0-6.0-1.48","test",".","",".","",""
"null","<div style=""color:white; font-size:60px;"">+</div>","null","html-keyboard-response","109","474584","0.0-6.0-0.49","fixation","","","","",""
"4049","Stimuli/Hangul_F14.bmp","190","image-keyboard-response","110","478634","0.0-6.0-1.49","test",".","",".","",""
"106676.99999999965","<p style=""color:white;"">Good job, block 1 complete! Please take a moment to rest.</p> <p style=""color:white;"">When you are ready to continue with block 2 of 4, press the space bar.</p> ","32","html-keyboard-response","111","585317","0.0-7.0","","","","","",""
"null","<div style=""color:white; font-size:60px;"">+</div>","null","html-keyboard-response","112","588325","0.0-8.0-0.0","fixation","","","","",""
"3141.999999999767","Stimuli/Hangul_M26.bmp","188","image-keyboard-response","113","591472","0.0-8.0-1.0","test",",","",",","",""
"null","<div style=""color:white; font-size:60px;"">+</div>","null","html-keyboard-response","114","592492","0.0-8.0-0.1","fixation","","","","",""
"6451","Stimuli/Hangul_F26.bmp","190","image-keyboard-response","115","598950","0.0-8.0-1.1","test",".","",".","",""
"null","<div style=""color:white; font-size:60px;"">+</div>","null","html-keyboard-response","116","599954","0.0-8.0-0.2","fixation","","","","",""
"2394.000000000233","Stimuli/Hangul_M43.bmp","190","image-keyboard-response","117","602351","0.0-8.0-1.2","test",",","",".","",""
"null","<div style=""color:white; font-size:60px;"">+</div>","null","html-keyboard-response","118","603351","0.0-8.0-0.3","fixation","","","","",""
"4197.999999999418","Stimuli/Hangul_F49.bmp","188","image-keyboard-response","119","607558","0.0-8.0-1.3","test",".","",",","",""
"null","<div style=""color:white; font-size:60px;"">+</div>","null","html-keyboard-response","120","608569","0.0-8.0-0.4","fixation","","","","",""
"2079.9999999998836","Stimuli/Hangul_M27.bmp","188","image-keyboard-response","121","610654","0.0-8.0-1.4","test",",","",",","",""
"null","<div style=""color:white; font-size:60px;"">+</div>","null","html-keyboard-response","122","611662","0.0-8.0-0.5","fixation","","","","",""
"10137.999999999884","Stimuli/Hangul_F46.bmp","190","image-keyboard-response","123","621807","0.0-8.0-1.5","test",".","",".","",""
"null","<div style=""color:white; font-size:60px;"">+</div>","null","html-keyboard-response","124","622811","0.0-8.0-0.6","fixation","","","","",""
"3485.000000000582","Stimuli/Hangul_M28.bmp","188","image-keyboard-response","125","626310","0.0-8.0-1.6","test",",","",",","",""
"null","<div style=""color:white; font-size:60px;"">+</div>","null","html-keyboard-response","126","627315","0.0-8.0-0.7","fixation","","","","",""
"2163.0000000004657","Stimuli/Hangul_F42.bmp","188","image-keyboard-response","127","629479","0.0-8.0-1.7","test",".","",",","",""
"null","<div style=""color:white; font-size:60px;"">+</div>","null","html-keyboard-response","128","630496","0.0-8.0-0.8","fixation","","","","",""
"8167.999999999651","Stimuli/Hangul_M32.bmp","190","image-keyboard-response","129","638671","0.0-8.0-1.8","test",",","",".","",""
"null","<div style=""color:white; font-size:60px;"">+</div>","null","html-keyboard-response","130","639683","0.0-8.0-0.9","fixation","","","","",""
"2434.999999999418","Stimuli/Hangul_F32.bmp","188","image-keyboard-response","131","642126","0.0-8.0-1.9","test",".","",",","",""
"null","<div style=""color:white; font-size:60px;"">+</div>","null","html-keyboard-response","132","643140","0.0-8.0-0.10","fixation","","","","",""
"3063.0000000001164","Stimuli/Hangul_F27.bmp","190","image-keyboard-response","133","646206","0.0-8.0-1.10","test",".","",".","",""
"null","<div style=""color:white; font-size:60px;"">+</div>","null","html-keyboard-response","134","647219","0.0-8.0-0.11","fixation","","","","",""
"11324.999999999767","Stimuli/Hangul_F36.bmp","188","image-keyboard-response","135","658551","0.0-8.0-1.11","test",".","",",","",""
"null","<div style=""color:white; font-size:60px;"">+</div>","null","html-keyboard-response","136","659564","0.0-8.0-0.12","fixation","","","","",""
"6470.999999999534","Stimuli/Hangul_M30.bmp","190","image-keyboard-response","137","666046","0.0-8.0-1.12","test",",","",".","",""
"null","<div style=""color:white; font-size:60px;"">+</div>","null","html-keyboard-response","138","667047","0.0-8.0-0.13","fixation","","","","",""
"921.9999999995343","Stimuli/Hangul_F30.bmp","188","image-keyboard-response","139","667982","0.0-8.0-1.13","test",".","",",","",""
"null","<div style=""color:white; font-size:60px;"">+</div>","null","html-keyboard-response","140","668983","0.0-8.0-0.14","fixation","","","","",""
"2622.000000000233","Stimuli/Hangul_F25.bmp","190","image-keyboard-response","141","671607","0.0-8.0-1.14","test",".","",".","",""
"null","<div style=""color:white; font-size:60px;"">+</div>","null","html-keyboard-response","142","672617","0.0-8.0-0.15","fixation","","","","",""
"266.99999999976717","Stimuli/Hangul_F39.bmp","190","image-keyboard-response","143","672885","0.0-8.0-1.15","test",".","",".","",""
"null","<div style=""color:white; font-size:60px;"">+</div>","null","html-keyboard-response","144","673895","0.0-8.0-0.16","fixation","","","","",""
"3072.999999999418","Stimuli/Hangul_M49.bmp","190","image-keyboard-response","145","676974","0.0-8.0-1.16","test",",","",".","",""
"null","<div style=""color:white; font-size:60px;"">+</div>","null","html-keyboard-response","146","677976","0.0-8.0-0.17","fixation","","","","",""
"3848.9999999993015","Stimuli/Hangul_F29.bmp","188","image-keyboard-response","147","681839","0.0-8.0-1.17","test",".","",",","",""
"null","<div style=""color:white; font-size:60px;"">+</div>","null","html-keyboard-response","148","682855","0.0-8.0-0.18","fixation","","","","",""
"9021.000000000698","Stimuli/Hangul_M45.bmp","188","image-keyboard-response","149","691887","0.0-8.0-1.18","test",",","",",","",""
"null","<div style=""color:white; font-size:60px;"">+</div>","null","html-keyboard-response","150","692894","0.0-8.0-0.19","fixation","","","","",""
"5943.999999999534","Stimuli/Hangul_M44.bmp","188","image-keyboard-response","151","698847","0.0-8.0-1.19","test",",","",",","",""
"null","<div style=""color:white; font-size:60px;"">+</div>","null","html-keyboard-response","152","699859","0.0-8.0-0.20","fixation","","","","",""
"6257.999999999884","Stimuli/Hangul_M38.bmp","188","image-keyboard-response","153","706119","0.0-8.0-1.20","test",",","",",","",""
"null","<div style=""color:white; font-size:60px;"">+</div>","null","html-keyboard-response","154","707131","0.0-8.0-0.21","fixation","","","","",""
"2679.999999999418","Stimuli/Hangul_M42.bmp","190","image-keyboard-response","155","709812","0.0-8.0-1.21","test",",","",".","",""
"null","<div style=""color:white; font-size:60px;"">+</div>","null","html-keyboard-response","156","710822","0.0-8.0-0.22","fixation","","","","",""
"5752.999999999767","Stimuli/Hangul_M33.bmp","188","image-keyboard-response","157","716583","0.0-8.0-1.22","test",",","",",","",""
"null","<div style=""color:white; font-size:60px;"">+</div>","null","html-keyboard-response","158","717584","0.0-8.0-0.23","fixation","","","","",""
"4171.000000000233","Stimuli/Hangul_M40.bmp","188","image-keyboard-response","159","721758","0.0-8.0-1.23","test",",","",",","",""
"null","<div style=""color:white; font-size:60px;"">+</div>","null","html-keyboard-response","160","722776","0.0-8.0-0.24","fixation","","","","",""
"2435.0000000003492","Stimuli/Hangul_F35.bmp","190","image-keyboard-response","161","725212","0.0-8.0-1.24","test",".","",".","",""
"null","<div style=""color:white; font-size:60px;"">+</div>","null","html-keyboard-response","162","726222","0.0-8.0-0.25","fixation","","","","",""
"8472.999999999884","Stimuli/Hangul_M29.bmp","188","image-keyboard-response","163","734711","0.0-8.0-1.25","test",",","",",","",""
"null","<div style=""color:white; font-size:60px;"">+</div>","null","html-keyboard-response","164","735726","0.0-8.0-0.26","fixation","","","","",""
"4366","Stimuli/Hangul_F38.bmp","190","image-keyboard-response","165","740093","0.0-8.0-1.26","test",".","",".","",""
"null","<div style=""color:white; font-size:60px;"">+</div>","null","html-keyboard-response","166","741101","0.0-8.0-0.27","fixation","","","","",""
"3811.000000000582","Stimuli/Hangul_F44.bmp","188","image-keyboard-response","167","744927","0.0-8.0-1.27","test",".","",",","",""
"null","<div style=""color:white; font-size:60px;"">+</div>","null","html-keyboard-response","168","745940","0.0-8.0-0.28","fixation","","","","",""
"3612","Stimuli/Hangul_F48.bmp","190","image-keyboard-response","169","749566","0.0-8.0-1.28","test",".","",".","",""
"null","<div style=""color:white; font-size:60px;"">+</div>","null","html-keyboard-response","170","750572","0.0-8.0-0.29","fixation","","","","",""
"3591.9999999996508","Stimuli/Hangul_M25.bmp","188","image-keyboard-response","171","754166","0.0-8.0-1.29","test",",","",",","",""
"null","<div style=""color:white; font-size:60px;"">+</div>","null","html-keyboard-response","172","755172","0.0-8.0-0.30","fixation","","","","",""
"8238.000000000233","Stimuli/Hangul_M48.bmp","188","image-keyboard-response","173","763423","0.0-8.0-1.30","test",",","",",","",""
"null","<div style=""color:white; font-size:60px;"">+</div>","null","html-keyboard-response","174","764436","0.0-8.0-0.31","fixation","","","","",""
"1643","Stimuli/Hangul_M31.bmp","190","image-keyboard-response","175","766086","0.0-8.0-1.31","test",",","",".","",""
"null","<div style=""color:white; font-size:60px;"">+</div>","null","html-keyboard-response","176","767099","0.0-8.0-0.32","fixation","","","","",""
"5439.000000000233","Stimuli/Hangul_M46.bmp","190","image-keyboard-response","177","772538","0.0-8.0-1.32","test",",","",".","",""
"null","<div style=""color:white; font-size:60px;"">+</div>","null","html-keyboard-response","178","773546","0.0-8.0-0.33","fixation","","","","",""
"3429","Stimuli/Hangul_F47.bmp","188","image-keyboard-response","179","776976","0.0-8.0-1.33","test",".","",",","",""
"null","<div style=""color:white; font-size:60px;"">+</div>","null","html-keyboard-response","180","777987","0.0-8.0-0.34","fixation","","","","",""
"5938.000000000116","Stimuli/Hangul_M41.bmp","190","image-keyboard-response","181","783926","0.0-8.0-1.34","test",",","",".","",""
"null","<div style=""color:white; font-size:60px;"">+</div>","null","html-keyboard-response","182","784936","0.0-8.0-0.35","fixation","","","","",""
"3300.000000000233","Stimuli/Hangul_F28.bmp","188","image-keyboard-response","183","788238","0.0-8.0-1.35","test",".","",",","",""
"null","<div style=""color:white; font-size:60px;"">+</div>","null","html-keyboard-response","184","789255","0.0-8.0-0.36","fixation","","","","",""
"6980.000000000466","Stimuli/Hangul_F41.bmp","190","image-keyboard-response","185","796235","0.0-8.0-1.36","test",".","",".","",""
"null","<div style=""color:white; font-size:60px;"">+</div>","null","html-keyboard-response","186","797252","0.0-8.0-0.37","fixation","","","","",""
"7592.999999999767","Stimuli/Hangul_F34.bmp","188","image-keyboard-response","187","804855","0.0-8.0-1.37","test",".","",",","",""
"null","<div style=""color:white; font-size:60px;"">+</div>","null","html-keyboard-response","188","805864","0.0-8.0-0.38","fixation","","","","",""
"2391.0000000004657","Stimuli/Hangul_M37.bmp","188","image-keyboard-response","189","808256","0.0-8.0-1.38","test",",","",",","",""
"null","<div style=""color:white; font-size:60px;"">+</div>","null","html-keyboard-response","190","809271","0.0-8.0-0.39","fixation","","","","",""
"1993.0000000003492","Stimuli/Hangul_F43.bmp","188","image-keyboard-response","191","811265","0.0-8.0-1.39","test",".","",",","",""
"null","<div style=""color:white; font-size:60px;"">+</div>","null","html-keyboard-response","192","812289","0.0-8.0-0.40","fixation","","","","",""
"2168.000000000582","Stimuli/Hangul_M39.bmp","190","image-keyboard-response","193","814459","0.0-8.0-1.40","test",",","",".","",""
"null","<div style=""color:white; font-size:60px;"">+</div>","null","html-keyboard-response","194","815463","0.0-8.0-0.41","fixation","","","","",""
"5233.000000000116","Stimuli/Hangul_F40.bmp","188","image-keyboard-response","195","820711","0.0-8.0-1.41","test",".","",",","",""
"null","<div style=""color:white; font-size:60px;"">+</div>","null","html-keyboard-response","196","821717","0.0-8.0-0.42","fixation","","","","",""
"8012.000000000582","Stimuli/Hangul_M34.bmp","188","image-keyboard-response","197","829742","0.0-8.0-1.42","test",",","",",","",""
"null","<div style=""color:white; font-size:60px;"">+</div>","null","html-keyboard-response","198","830750","0.0-8.0-0.43","fixation","","","","",""
"6697.000000000116","Stimuli/Hangul_M36.bmp","190","image-keyboard-response","199","837455","0.0-8.0-1.43","test",",","",".","",""
"null","<div style=""color:white; font-size:60px;"">+</div>","null","html-keyboard-response","200","838464","0.0-8.0-0.44","fixation","","","","",""
"2912.000000000233","Stimuli/Hangul_F37.bmp","188","image-keyboard-response","201","841377","0.0-8.0-1.44","test",".","",",","",""
"null","<div style=""color:white; font-size:60px;"">+</div>","null","html-keyboard-response","202","842391","0.0-8.0-0.45","fixation","","","","",""
"2670.0000000001164","Stimuli/Hangul_F33.bmp","190","image-keyboard-response","203","845061","0.0-8.0-1.45","test",".","",".","",""
"null","<div style=""color:white; font-size:60px;"">+</div>","null","html-keyboard-response","204","846078","0.0-8.0-0.46","fixation","","","","",""
"2114.999999999767","Stimuli/Hangul_M35.bmp","190","image-keyboard-response","205","848207","0.0-8.0-1.46","test",",","",".","",""
"null","<div style=""color:white; font-size:60px;"">+</div>","null","html-keyboard-response","206","849213","0.0-8.0-0.47","fixation","","","","",""
"5309.000000000233","Stimuli/Hangul_F45.bmp","190","image-keyboard-response","207","854526","0.0-8.0-1.47","test",".","",".","",""
"null","<div style=""color:white; font-size:60px;"">+</div>","null","html-keyboard-response","208","855542","0.0-8.0-0.48","fixation","","","","",""
"2029.9999999997672","Stimuli/Hangul_M47.bmp","188","image-keyboard-response","209","857582","0.0-8.0-1.48","test",",","",",","",""
"null","<div style=""color:white; font-size:60px;"">+</div>","null","html-keyboard-response","210","858592","0.0-8.0-0.49","fixation","","","","",""
"5784.999999999884","Stimuli/Hangul_F31.bmp","190","image-keyboard-response","211","864377","0.0-8.0-1.49","test",".","",".","",""
"1148.999999999418","<p style=""color:white;"">Half way there! Please take a moment to rest.</p> <p style=""color:white;"">When you are ready to continue with block 3 of 4, press the space bar.</p> ","32","html-keyboard-response","212","865550","0.0-9.0","","","","","",""
"null","<div style=""color:white; font-size:60px;"">+</div>","null","html-keyboard-response","213","868559","0.0-10.0-0.0","fixation","","","","",""
"721.9999999996508","Stimuli/Hangul_M53.bmp","190","image-keyboard-response","214","869294","0.0-10.0-1.0","test",",","",".","",""
"null","<div style=""color:white; font-size:60px;"">+</div>","null","html-keyboard-response","215","870304","0.0-10.0-0.1","fixation","","","","",""
"12078.000000000466","Stimuli/Hangul_F51.bmp","188","image-keyboard-response","216","882382","0.0-10.0-1.1","test",".","",",","",""
"null","<div style=""color:white; font-size:60px;"">+</div>","null","html-keyboard-response","217","883406","0.0-10.0-0.2","fixation","","","","",""
"8095.999999999534","Stimuli/Hangul_F63.bmp","188","image-keyboard-response","218","891518","0.0-10.0-1.2","test",".","",",","",""
"null","<div style=""color:white; font-size:60px;"">+</div>","null","html-keyboard-response","219","892534","0.0-10.0-0.3","fixation","","","","",""
"2265.0000000003492","Stimuli/Hangul_F53.bmp","190","image-keyboard-response","220","894800","0.0-10.0-1.3","test",".","",".","",""
"null","<div style=""color:white; font-size:60px;"">+</div>","null","html-keyboard-response","221","895810","0.0-10.0-0.4","fixation","","","","",""
"9894.999999999534","Stimuli/Hangul_F74.bmp","190","image-keyboard-response","222","905705","0.0-10.0-1.4","test",".","",".","",""
"null","<div style=""color:white; font-size:60px;"">+</div>","null","html-keyboard-response","223","906731","0.0-10.0-0.5","fixation","","","","",""
"3833.9999999998836","Stimuli/Hangul_F50.bmp","188","image-keyboard-response","224","910566","0.0-10.0-1.5","test",".","",",","",""
"null","<div style=""color:white; font-size:60px;"">+</div>","null","html-keyboard-response","225","911582","0.0-10.0-0.6","fixation","","","","",""
"1244.9999999998836","Stimuli/Hangul_M72.bmp","188","image-keyboard-response","226","912830","0.0-10.0-1.6","test",",","",",","",""
"null","<div style=""color:white; font-size:60px;"">+</div>","null","html-keyboard-response","227","913833","0.0-10.0-0.7","fixation","","","","",""
"2698.9999999996508","Stimuli/Hangul_M58.bmp","190","image-keyboard-response","228","916535","0.0-10.0-1.7","test",",","",".","",""
"null","<div style=""color:white; font-size:60px;"">+</div>","null","html-keyboard-response","229","917535","0.0-10.0-0.8","fixation","","","","",""
"3666.000000000233","Stimuli/Hangul_M62.bmp","190","image-keyboard-response","230","921201","0.0-10.0-1.8","test",",","",".","",""
"null","<div style=""color:white; font-size:60px;"">+</div>","null","html-keyboard-response","231","922232","0.0-10.0-0.9","fixation","","","","",""
"3371.0000000001164","Stimuli/Hangul_M55.bmp","190","image-keyboard-response","232","925614","0.0-10.0-1.9","test",",","",".","",""
"null","<div style=""color:white; font-size:60px;"">+</div>","null","html-keyboard-response","233","926623","0.0-10.0-0.10","fixation","","","","",""
"6395.000000000349","Stimuli/Hangul_M60.bmp","188","image-keyboard-response","234","933019","0.0-10.0-1.10","test",",","",",","",""
"null","<div style=""color:white; font-size:60px;"">+</div>","null","html-keyboard-response","235","934044","0.0-10.0-0.11","fixation","","","","",""
"4156","Stimuli/Hangul_M66.bmp","188","image-keyboard-response","236","938206","0.0-10.0-1.11","test",",","",",","",""
"null","<div style=""color:white; font-size:60px;"">+</div>","null","html-keyboard-response","237","939220","0.0-10.0-0.12","fixation","","","","",""
"3070.9999999998836","Stimuli/Hangul_M64.bmp","190","image-keyboard-response","238","942294","0.0-10.0-1.12","test",",","",".","",""
"null","<div style=""color:white; font-size:60px;"">+</div>","null","html-keyboard-response","239","943301","0.0-10.0-0.13","fixation","","","","",""
"2921.9999999996508","Stimuli/Hangul_F64.bmp","188","image-keyboard-response","240","946231","0.0-10.0-1.13","test",".","",",","",""
"null","<div style=""color:white; font-size:60px;"">+</div>","null","html-keyboard-response","241","947237","0.0-10.0-0.14","fixation","","","","",""
"3421.9999999995343","Stimuli/Hangul_F67.bmp","190","image-keyboard-response","242","950661","0.0-10.0-1.14","test",".","",".","",""
"null","<div style=""color:white; font-size:60px;"">+</div>","null","html-keyboard-response","243","951676","0.0-10.0-0.15","fixation","","","","",""
"5302.999999999884","Stimuli/Hangul_F73.bmp","190","image-keyboard-response","244","956989","0.0-10.0-1.15","test",".","",".","",""
"null","<div style=""color:white; font-size:60px;"">+</div>","null","html-keyboard-response","245","958010","0.0-10.0-0.16","fixation","","","","",""
"1827.9999999995343","Stimuli/Hangul_M69.bmp","190","image-keyboard-response","246","959839","0.0-10.0-1.16","test",",","",".","",""
"null","<div style=""color:white; font-size:60px;"">+</div>","null","html-keyboard-response","247","960859","0.0-10.0-0.17","fixation","","","","",""
"11815.999999999884","Stimuli/Hangul_M50.bmp","190","image-keyboard-response","248","972679","0.0-10.0-1.17","test",",","",".","",""
"null","<div style=""color:white; font-size:60px;"">+</div>","null","html-keyboard-response","249","973690","0.0-10.0-0.18","fixation","","","","",""
"9354.000000000233","Stimuli/Hangul_F57.bmp","188","image-keyboard-response","250","983045","0.0-10.0-1.18","test",".","",",","",""
"null","<div style=""color:white; font-size:60px;"">+</div>","null","html-keyboard-response","251","984061","0.0-10.0-0.19","fixation","","","","",""
"7575.0000000006985","Stimuli/Hangul_F58.bmp","188","image-keyboard-response","252","991646","0.0-10.0-1.19","test",".","",",","",""
"null","<div style=""color:white; font-size:60px;"">+</div>","null","html-keyboard-response","253","992662","0.0-10.0-0.20","fixation","","","","",""
"10054","Stimuli/Hangul_M56.bmp","190","image-keyboard-response","254","1002719","0.0-10.0-1.20","test",",","",".","",""
"null","<div style=""color:white; font-size:60px;"">+</div>","null","html-keyboard-response","255","1003736","0.0-10.0-0.21","fixation","","","","",""
"2921.000000000233","Stimuli/Hangul_F71.bmp","188","image-keyboard-response","256","1006662","0.0-10.0-1.21","test",".","",",","",""
"null","<div style=""color:white; font-size:60px;"">+</div>","null","html-keyboard-response","257","1007672","0.0-10.0-0.22","fixation","","","","",""
"993.9999999995343","Stimuli/Hangul_M73.bmp","190","image-keyboard-response","258","1008666","0.0-10.0-1.22","test",",","",".","",""
"null","<div style=""color:white; font-size:60px;"">+</div>","null","html-keyboard-response","259","1009682","0.0-10.0-0.23","fixation","","","","",""
"4411","Stimuli/Hangul_F62.bmp","190","image-keyboard-response","260","1014093","0.0-10.0-1.23","test",".","",".","",""
"null","<div style=""color:white; font-size:60px;"">+</div>","null","html-keyboard-response","261","1015120","0.0-10.0-0.24","fixation","","","","",""
"3796.000000000233","Stimuli/Hangul_F66.bmp","188","image-keyboard-response","262","1018917","0.0-10.0-1.24","test",".","",",","",""
"null","<div style=""color:white; font-size:60px;"">+</div>","null","html-keyboard-response","263","1019934","0.0-10.0-0.25","fixation","","","","",""
"12317.999999999302","Stimuli/Hangul_F70.bmp","190","image-keyboard-response","264","1032256","0.0-10.0-1.25","test",".","",".","",""
"null","<div style=""color:white; font-size:60px;"">+</div>","null","html-keyboard-response","265","1033269","0.0-10.0-0.26","fixation","","","","",""
"9911.999999999302","Stimuli/Hangul_F61.bmp","190","image-keyboard-response","266","1043183","0.0-10.0-1.26","test",".","",".","",""
"null","<div style=""color:white; font-size:60px;"">+</div>","null","html-keyboard-response","267","1044198","0.0-10.0-0.27","fixation","","","","",""
"8604.999999999534","Stimuli/Hangul_F54.bmp","188","image-keyboard-response","268","1052814","0.0-10.0-1.27","test",".","",",","",""
"null","<div style=""color:white; font-size:60px;"">+</div>","null","html-keyboard-response","269","1053824","0.0-10.0-0.28","fixation","","","","",""
"11192","Stimuli/Hangul_M74.bmp","190","image-keyboard-response","270","1065017","0.0-10.0-1.28","test",",","",".","",""
"null","<div style=""color:white; font-size:60px;"">+</div>","null","html-keyboard-response","271","1066035","0.0-10.0-0.29","fixation","","","","",""
"13047.000000000466","Stimuli/Hangul_F69.bmp","190","image-keyboard-response","272","1079087","0.0-10.0-1.29","test",".","",".","",""
"null","<div style=""color:white; font-size:60px;"">+</div>","null","html-keyboard-response","273","1080088","0.0-10.0-0.30","fixation","","","","",""
"7949.0000000006985","Stimuli/Hangul_M57.bmp","188","image-keyboard-response","274","1088038","0.0-10.0-1.30","test",",","",",","",""
"null","<div style=""color:white; font-size:60px;"">+</div>","null","html-keyboard-response","275","1089047","0.0-10.0-0.31","fixation","","","","",""
"8465.999999999302","Stimuli/Hangul_F56.bmp","190","image-keyboard-response","276","1097514","0.0-10.0-1.31","test",".","",".","",""
"null","<div style=""color:white; font-size:60px;"">+</div>","null","html-keyboard-response","277","1098532","0.0-10.0-0.32","fixation","","","","",""
"6437","Stimuli/Hangul_F55.bmp","190","image-keyboard-response","278","1104970","0.0-10.0-1.32","test",".","",".","",""
"null","<div style=""color:white; font-size:60px;"">+</div>","null","html-keyboard-response","279","1105989","0.0-10.0-0.33","fixation","","","","",""
"3811.0000000004657","Stimuli/Hangul_F60.bmp","188","image-keyboard-response","280","1109801","0.0-10.0-1.33","test",".","",",","",""
"null","<div style=""color:white; font-size:60px;"">+</div>","null","html-keyboard-response","281","1110827","0.0-10.0-0.34","fixation","","","","",""
"11044.999999999302","Stimuli/Hangul_M67.bmp","190","image-keyboard-response","282","1121887","0.0-10.0-1.34","test",",","",".","",""
"null","<div style=""color:white; font-size:60px;"">+</div>","null","html-keyboard-response","283","1122904","0.0-10.0-0.35","fixation","","","","",""
"3694.0000000004657","Stimuli/Hangul_M65.bmp","190","image-keyboard-response","284","1126614","0.0-10.0-1.35","test",",","",".","",""
"null","<div style=""color:white; font-size:60px;"">+</div>","null","html-keyboard-response","285","1127629","0.0-10.0-0.36","fixation","","","","",""
"5815.000000000466","Stimuli/Hangul_M70.bmp","188","image-keyboard-response","286","1133447","0.0-10.0-1.36","test",",","",",","",""
"null","<div style=""color:white; font-size:60px;"">+</div>","null","html-keyboard-response","287","1134461","0.0-10.0-0.37","fixation","","","","",""
"4604.999999999534","Stimuli/Hangul_M52.bmp","188","image-keyboard-response","288","1139078","0.0-10.0-1.37","test",",","",",","",""
"null","<div style=""color:white; font-size:60px;"">+</div>","null","html-keyboard-response","289","1140078","0.0-10.0-0.38","fixation","","","","",""
"3460.000000000233","Stimuli/Hangul_M63.bmp","190","image-keyboard-response","290","1143543","0.0-10.0-1.38","test",",","",".","",""
"null","<div style=""color:white; font-size:60px;"">+</div>","null","html-keyboard-response","291","1144556","0.0-10.0-0.39","fixation","","","","",""
"2591.000000000233","Stimuli/Hangul_M51.bmp","188","image-keyboard-response","292","1147151","0.0-10.0-1.39","test",",","",",","",""
"null","<div style=""color:white; font-size:60px;"">+</div>","null","html-keyboard-response","293","1148151","0.0-10.0-0.40","fixation","","","","",""
"1471.0000000004657","Stimuli/Hangul_F59.bmp","188","image-keyboard-response","294","1149630","0.0-10.0-1.40","test",".","",",","",""
"null","<div style=""color:white; font-size:60px;"">+</div>","null","html-keyboard-response","295","1150642","0.0-10.0-0.41","fixation","","","","",""
"7348","Stimuli/Hangul_M71.bmp","190","image-keyboard-response","296","1157991","0.0-10.0-1.41","test",",","",".","",""
"null","<div style=""color:white; font-size:60px;"">+</div>","null","html-keyboard-response","297","1159007","0.0-10.0-0.42","fixation","","","","",""
"3112.9999999993015","Stimuli/Hangul_M59.bmp","190","image-keyboard-response","298","1162127","0.0-10.0-1.42","test",",","",".","",""
"null","<div style=""color:white; font-size:60px;"">+</div>","null","html-keyboard-response","299","1163143","0.0-10.0-0.43","fixation","","","","",""
"5072.9999999993015","Stimuli/Hangul_M54.bmp","188","image-keyboard-response","300","1168218","0.0-10.0-1.43","test",",","",",","",""
"null","<div style=""color:white; font-size:60px;"">+</div>","null","html-keyboard-response","301","1169231","0.0-10.0-0.44","fixation","","","","",""
"9335","Stimuli/Hangul_M68.bmp","188","image-keyboard-response","302","1178569","0.0-10.0-1.44","test",",","",",","",""
"null","<div style=""color:white; font-size:60px;"">+</div>","null","html-keyboard-response","303","1179594","0.0-10.0-0.45","fixation","","","","",""
"2229.000000000233","Stimuli/Hangul_F72.bmp","190","image-keyboard-response","304","1181830","0.0-10.0-1.45","test",".","",".","",""
"null","<div style=""color:white; font-size:60px;"">+</div>","null","html-keyboard-response","305","1182839","0.0-10.0-0.46","fixation","","","","",""
"3176.999999999767","Stimuli/Hangul_F68.bmp","190","image-keyboard-response","306","1186017","0.0-10.0-1.46","test",".","",".","",""
"null","<div style=""color:white; font-size:60px;"">+</div>","null","html-keyboard-response","307","1187019","0.0-10.0-0.47","fixation","","","","",""
"1405.9999999997672","Stimuli/Hangul_M61.bmp","190","image-keyboard-response","308","1188426","0.0-10.0-1.47","test",",","",".","",""
"null","<div style=""color:white; font-size:60px;"">+</div>","null","html-keyboard-response","309","1189445","0.0-10.0-0.48","fixation","","","","",""
"11929.999999999534","Stimuli/Hangul_F52.bmp","188","image-keyboard-response","310","1201376","0.0-10.0-1.48","test",".","",",","",""
"null","<div style=""color:white; font-size:60px;"">+</div>","null","html-keyboard-response","311","1202380","0.0-10.0-0.49","fixation","","","","",""
"14924.999999999302","Stimuli/Hangul_F65.bmp","190","image-keyboard-response","312","1217319","0.0-10.0-1.49","test",".","",".","",""
"141906.9999999993","<p style=""color:white;"">One more block to go! Please take a moment to rest.</p> <p style=""color:white;"">When you are ready to continue with block 4 of 4, press the space bar.</p> ","32","html-keyboard-response","313","1359238","0.0-11.0","","","","","",""
"null","<div style=""color:white; font-size:60px;"">+</div>","null","html-keyboard-response","314","1362260","0.0-12.0-0.0","fixation","","","","",""
"1483.0000000002328","Stimuli/Hangul_F90.bmp","190","image-keyboard-response","315","1363747","0.0-12.0-1.0","test",".","",".","",""
"null","<div style=""color:white; font-size:60px;"">+</div>","null","html-keyboard-response","316","1364762","0.0-12.0-0.1","fixation","","","","",""
"13259","Stimuli/Hangul_M83.bmp","188","image-keyboard-response","317","1378023","0.0-12.0-1.1","test",",","",",","",""
"null","<div style=""color:white; font-size:60px;"">+</div>","null","html-keyboard-response","318","1379037","0.0-12.0-0.2","fixation","","","","",""
"2203.999999999767","Stimuli/Hangul_M85.bmp","190","image-keyboard-response","319","1381254","0.0-12.0-1.2","test",",","",".","",""
"null","<div style=""color:white; font-size:60px;"">+</div>","null","html-keyboard-response","320","1382276","0.0-12.0-0.3","fixation","","","","",""
"6940.000000000466","Stimuli/Hangul_M91.bmp","188","image-keyboard-response","321","1389217","0.0-12.0-1.3","test",",","",",","",""
"null","<div style=""color:white; font-size:60px;"">+</div>","null","html-keyboard-response","322","1390237","0.0-12.0-0.4","fixation","","","","",""
"2591.9999999995343","Stimuli/Hangul_M84.bmp","188","image-keyboard-response","323","1392839","0.0-12.0-1.4","test",",","",",","",""
"null","<div style=""color:white; font-size:60px;"">+</div>","null","html-keyboard-response","324","1393852","0.0-12.0-0.5","fixation","","","","",""
"2032","Stimuli/Hangul_M98.bmp","190","image-keyboard-response","325","1395887","0.0-12.0-1.5","test",",","",".","",""
"null","<div style=""color:white; font-size:60px;"">+</div>","null","html-keyboard-response","326","1396902","0.0-12.0-0.6","fixation","","","","",""
"3273","Stimuli/Hangul_M79.bmp","190","image-keyboard-response","327","1400183","0.0-12.0-1.6","test",",","",".","",""
"null","<div style=""color:white; font-size:60px;"">+</div>","null","html-keyboard-response","328","1401183","0.0-12.0-0.7","fixation","","","","",""
"1271.9999999997672","Stimuli/Hangul_F80.bmp","190","image-keyboard-response","329","1402470","0.0-12.0-1.7","test",".","",".","",""
"null","<div style=""color:white; font-size:60px;"">+</div>","null","html-keyboard-response","330","1403488","0.0-12.0-0.8","fixation","","","","",""
"3234.9999999995343","Stimuli/Hangul_F92.bmp","188","image-keyboard-response","331","1406734","0.0-12.0-1.8","test",".","",",","",""
"null","<div style=""color:white; font-size:60px;"">+</div>","null","html-keyboard-response","332","1407745","0.0-12.0-0.9","fixation","","","","",""
"2398.9999999993015","Stimuli/Hangul_M89.bmp","188","image-keyboard-response","333","1410150","0.0-12.0-1.9","test",",","",",","",""
"null","<div style=""color:white; font-size:60px;"">+</div>","null","html-keyboard-response","334","1411151","0.0-12.0-0.10","fixation","","","","",""
"2057.999999999767","Stimuli/Hangul_F88.bmp","188","image-keyboard-response","335","1413214","0.0-12.0-1.10","test",".","",",","",""
"null","<div style=""color:white; font-size:60px;"">+</div>","null","html-keyboard-response","336","1414222","0.0-12.0-0.11","fixation","","","","",""
"2203.000000000233","Stimuli/Hangul_M82.bmp","188","image-keyboard-response","337","1416437","0.0-12.0-1.11","test",",","",",","",""
"null","<div style=""color:white; font-size:60px;"">+</div>","null","html-keyboard-response","338","1417447","0.0-12.0-0.12","fixation","","","","",""
"3467.999999999767","Stimuli/Hangul_M97.bmp","190","image-keyboard-response","339","1420918","0.0-12.0-1.12","test",",","",".","",""
"null","<div style=""color:white; font-size:60px;"">+</div>","null","html-keyboard-response","340","1421926","0.0-12.0-0.13","fixation","","","","",""
"1688.0000000002328","Stimuli/Hangul_F83.bmp","188","image-keyboard-response","341","1423630","0.0-12.0-1.13","test",".","",",","",""
"null","<div style=""color:white; font-size:60px;"">+</div>","null","html-keyboard-response","342","1424640","0.0-12.0-0.14","fixation","","","","",""
"14995.000000000698","Stimuli/Hangul_F79.bmp","188","image-keyboard-response","343","1439638","0.0-12.0-1.14","test",".","",",","",""
"null","<div style=""color:white; font-size:60px;"">+</div>","null","html-keyboard-response","344","1440652","0.0-12.0-0.15","fixation","","","","",""
"3542.0000000004657","Stimuli/Hangul_F89.bmp","190","image-keyboard-response","345","1444197","0.0-12.0-1.15","test",".","",".","",""
"null","<div style=""color:white; font-size:60px;"">+</div>","null","html-keyboard-response","346","1445205","0.0-12.0-0.16","fixation","","","","",""
"2404.0000000004657","Stimuli/Hangul_M87.bmp","188","image-keyboard-response","347","1447621","0.0-12.0-1.16","test",",","",",","",""
"null","<div style=""color:white; font-size:60px;"">+</div>","null","html-keyboard-response","348","1448628","0.0-12.0-0.17","fixation","","","","",""
"2339","Stimuli/Hangul_M86.bmp","188","image-keyboard-response","349","1450968","0.0-12.0-1.17","test",",","",",","",""
"null","<div style=""color:white; font-size:60px;"">+</div>","null","html-keyboard-response","350","1451983","0.0-12.0-0.18","fixation","","","","",""
"2935.999999999767","Stimuli/Hangul_F77.bmp","188","image-keyboard-response","351","1454920","0.0-12.0-1.18","test",".","",",","",""
"null","<div style=""color:white; font-size:60px;"">+</div>","null","html-keyboard-response","352","1455944","0.0-12.0-0.19","fixation","","","","",""
"1457.0000000004657","Stimuli/Hangul_M88.bmp","188","image-keyboard-response","353","1457405","0.0-12.0-1.19","test",",","",",","",""
"null","<div style=""color:white; font-size:60px;"">+</div>","null","html-keyboard-response","354","1458414","0.0-12.0-0.20","fixation","","","","",""
"2986","Stimuli/Hangul_M75.bmp","188","image-keyboard-response","355","1461401","0.0-12.0-1.20","test",",","",",","",""
"null","<div style=""color:white; font-size:60px;"">+</div>","null","html-keyboard-response","356","1462414","0.0-12.0-0.21","fixation","","","","",""
"3749","Stimuli/Hangul_M95.bmp","188","image-keyboard-response","357","1466164","0.0-12.0-1.21","test",",","",",","",""
"null","<div style=""color:white; font-size:60px;"">+</div>","null","html-keyboard-response","358","1467166","0.0-12.0-0.22","fixation","","","","",""
"1527","Stimuli/Hangul_F85.bmp","188","image-keyboard-response","359","1468695","0.0-12.0-1.22","test",".","",",","",""
"null","<div style=""color:white; font-size:60px;"">+</div>","null","html-keyboard-response","360","1469724","0.0-12.0-0.23","fixation","","","","",""
"2416.000000000233","Stimuli/Hangul_F82.bmp","190","image-keyboard-response","361","1472141","0.0-12.0-1.23","test",".","",".","",""
"null","<div style=""color:white; font-size:60px;"">+</div>","null","html-keyboard-response","362","1473143","0.0-12.0-0.24","fixation","","","","",""
"4081","Stimuli/Hangul_F93.bmp","188","image-keyboard-response","363","1477225","0.0-12.0-1.24","test",".","",",","",""
"null","<div style=""color:white; font-size:60px;"">+</div>","null","html-keyboard-response","364","1478245","0.0-12.0-0.25","fixation","","","","",""
"2180.9999999995343","Stimuli/Hangul_F96.bmp","188","image-keyboard-response","365","1480431","0.0-12.0-1.25","test",".","",",","",""
"null","<div style=""color:white; font-size:60px;"">+</div>","null","html-keyboard-response","366","1481446","0.0-12.0-0.26","fixation","","","","",""
"2623.0000000004657","Stimuli/Hangul_F91.bmp","190","image-keyboard-response","367","1484070","0.0-12.0-1.26","test",".","",".","",""
"null","<div style=""color:white; font-size:60px;"">+</div>","null","html-keyboard-response","368","1485073","0.0-12.0-0.27","fixation","","","","",""
"3300.9999999995343","Stimuli/Hangul_M99.bmp","190","image-keyboard-response","369","1488375","0.0-12.0-1.27","test",",","",".","",""
"null","<div style=""color:white; font-size:60px;"">+</div>","null","html-keyboard-response","370","1489385","0.0-12.0-0.28","fixation","","","","",""
"4188.9999999993015","Stimuli/Hangul_M93.bmp","188","image-keyboard-response","371","1493575","0.0-12.0-1.28","test",",","",",","",""
"null","<div style=""color:white; font-size:60px;"">+</div>","null","html-keyboard-response","372","1494586","0.0-12.0-0.29","fixation","","","","",""
"3028.000000000233","Stimuli/Hangul_M96.bmp","188","image-keyboard-response","373","1497615","0.0-12.0-1.29","test",",","",",","",""
"null","<div style=""color:white; font-size:60px;"">+</div>","null","html-keyboard-response","374","1498631","0.0-12.0-0.30","fixation","","","","",""
"3042.9999999995343","Stimuli/Hangul_M90.bmp","188","image-keyboard-response","375","1501686","0.0-12.0-1.30","test",",","",",","",""
"null","<div style=""color:white; font-size:60px;"">+</div>","null","html-keyboard-response","376","1502695","0.0-12.0-0.31","fixation","","","","",""
"2213.0000000006985","Stimuli/Hangul_M78.bmp","190","image-keyboard-response","377","1504909","0.0-12.0-1.31","test",",","",".","",""
"null","<div style=""color:white; font-size:60px;"">+</div>","null","html-keyboard-response","378","1505917","0.0-12.0-0.32","fixation","","","","",""
"774.9999999997672","Stimuli/Hangul_F81.bmp","188","image-keyboard-response","379","1506692","0.0-12.0-1.32","test",".","",",","",""
"null","<div style=""color:white; font-size:60px;"">+</div>","null","html-keyboard-response","380","1507710","0.0-12.0-0.33","fixation","","","","",""
"2003.0000000004657","Stimuli/Hangul_F95.bmp","188","image-keyboard-response","381","1509713","0.0-12.0-1.33","test",".","",",","",""
"null","<div style=""color:white; font-size:60px;"">+</div>","null","html-keyboard-response","382","1510742","0.0-12.0-0.34","fixation","","","","",""
"6334","Stimuli/Hangul_F75.bmp","188","image-keyboard-response","383","1517078","0.0-12.0-1.34","test",".","",",","",""
"null","<div style=""color:white; font-size:60px;"">+</div>","null","html-keyboard-response","384","1518087","0.0-12.0-0.35","fixation","","","","",""
"5566","Stimuli/Hangul_F76.bmp","190","image-keyboard-response","385","1523654","0.0-12.0-1.35","test",".","",".","",""
"null","<div style=""color:white; font-size:60px;"">+</div>","null","html-keyboard-response","386","1524675","0.0-12.0-0.36","fixation","","","","",""
"4961.000000000233","Stimuli/Hangul_F94.bmp","188","image-keyboard-response","387","1529637","0.0-12.0-1.36","test",".","",",","",""
"null","<div style=""color:white; font-size:60px;"">+</div>","null","html-keyboard-response","388","1530640","0.0-12.0-0.37","fixation","","","","",""
"11091.999999999767","Stimuli/Hangul_F86.bmp","188","image-keyboard-response","389","1541731","0.0-12.0-1.37","test",".","",",","",""
"null","<div style=""color:white; font-size:60px;"">+</div>","null","html-keyboard-response","390","1542744","0.0-12.0-0.38","fixation","","","","",""
"6926.999999999767","Stimuli/Hangul_M81.bmp","188","image-keyboard-response","391","1549677","0.0-12.0-1.38","test",",","",",","",""
"null","<div style=""color:white; font-size:60px;"">+</div>","null","html-keyboard-response","392","1550693","0.0-12.0-0.39","fixation","","","","",""
"6179.999999999534","Stimuli/Hangul_F87.bmp","190","image-keyboard-response","393","1556878","0.0-12.0-1.39","test",".","",".","",""
"null","<div style=""color:white; font-size:60px;"">+</div>","null","html-keyboard-response","394","1557883","0.0-12.0-0.40","fixation","","","","",""
"6225.999999999534","Stimuli/Hangul_F78.bmp","190","image-keyboard-response","395","1564125","0.0-12.0-1.40","test",".","",".","",""
"null","<div style=""color:white; font-size:60px;"">+</div>","null","html-keyboard-response","396","1565132","0.0-12.0-0.41","fixation","","","","",""
"4696.9999999993015","Stimuli/Hangul_M80.bmp","188","image-keyboard-response","397","1569838","0.0-12.0-1.41","test",",","",",","",""
"null","<div style=""color:white; font-size:60px;"">+</div>","null","html-keyboard-response","398","1570853","0.0-12.0-0.42","fixation","","","","",""
"10537.999999999534","Stimuli/Hangul_F98.bmp","188","image-keyboard-response","399","1581398","0.0-12.0-1.42","test",".","",",","",""
"null","<div style=""color:white; font-size:60px;"">+</div>","null","html-keyboard-response","400","1582404","0.0-12.0-0.43","fixation","","","","",""
"5136.000000000466","Stimuli/Hangul_F84.bmp","190","image-keyboard-response","401","1587549","0.0-12.0-1.43","test",".","",".","",""
"null","<div style=""color:white; font-size:60px;"">+</div>","null","html-keyboard-response","402","1588557","0.0-12.0-0.44","fixation","","","","",""
"3926.9999999995343","Stimuli/Hangul_F97.bmp","188","image-keyboard-response","403","1592485","0.0-12.0-1.44","test",".","",",","",""
"null","<div style=""color:white; font-size:60px;"">+</div>","null","html-keyboard-response","404","1593497","0.0-12.0-0.45","fixation","","","","",""
"4873.999999999767","Stimuli/Hangul_F99.bmp","188","image-keyboard-response","405","1598371","0.0-12.0-1.45","test",".","",",","",""
"null","<div style=""color:white; font-size:60px;"">+</div>","null","html-keyboard-response","406","1599383","0.0-12.0-0.46","fixation","","","","",""
"2961.000000000233","Stimuli/Hangul_M94.bmp","190","image-keyboard-response","407","1602345","0.0-12.0-1.46","test",",","",".","",""
"null","<div style=""color:white; font-size:60px;"">+</div>","null","html-keyboard-response","408","1603374","0.0-12.0-0.47","fixation","","","","",""
"730.0000000004657","Stimuli/Hangul_M77.bmp","188","image-keyboard-response","409","1604119","0.0-12.0-1.47","test",",","",",","",""
"null","<div style=""color:white; font-size:60px;"">+</div>","null","html-keyboard-response","410","1605121","0.0-12.0-0.48","fixation","","","","",""
"5752.999999999767","Stimuli/Hangul_M92.bmp","190","image-keyboard-response","411","1610878","0.0-12.0-1.48","test",",","",".","",""
"null","<div style=""color:white; font-size:60px;"">+</div>","null","html-keyboard-response","412","1611889","0.0-12.0-0.49","fixation","","","","",""
"7842.999999999767","Stimuli/Hangul_M76.bmp","190","image-keyboard-response","413","1619733","0.0-12.0-1.49","test",",","",".","",""
"3238.000000000233","<p style=""color:white;"">Phase I of the experiment is complete.</p> <p style=""color:white;"">Press the space bar to proceed to Phase II of the experiment.</p> ","32","html-keyboard-response","414","1622974","0.0-13.0","","","","","",""
"13822","<p style=""color:white;"">Now we are interested in how well you can predict patterns in the series of figures. You will be asked to predict whether the next figure in the series is more male-like or female-like. When you see the <q>Next Figure</q> prompt, press the corresponding response keys to indicate your prediction: </p><p style=""color:white;""> Male &#8594 <q>,</q> (comma)</p><p style=""color:white;""> Female &#8594 <q>.</q> (period)</p><p style=""color:white;"">The actual figure will then appear on the screen. After you see the figure, please guess the assigned gender with response keys. </p><p style=""color:white;"">As before, you will receive 2 cents for correctly classifying each figure.</p><p style=""color:white;"">Press either response keys to continue.</p>","188","html-keyboard-response","415","1638815","0.0-14.0","","","","","",""
"219102.99999999907","<p style=""color:white;"">PREDICTION BONUS</p> <p style=""color:white;"">Your prediction accuracy is the total number of correct predictions you make over the 200 trials.</p> <p style=""color:white;"">In addition to the 2 cents per correct figure classification, you have the chance to receive a bonus of 40 dollars IF your accuracy is above average relative to previous participants.</p><p style=""color:white;"">If your accuracy is below average relative to previous participants, then you will not receive the 40 dollar bonus.</p><p style=""color:white;"">Press the space bar to continue.</p>","32","html-keyboard-response","416","1857927","0.0-15.0","","","","","",""
"2589","<p style=""color:white;"">Here are some examples.</p> <p style=""color:white;"">For each, predict whether the next figure looks more male-like or female-like. Then, when the figure appears, guess whether it looks more male-like or female-like and indicate your choice.</p> <p style=""color:white;"">Press the space bar to continue.</p>","32","html-keyboard-response","417","1860526","0.0-16.0","","","","","",""
"998.9999999997672","<p style=""color:white;""> Next Figure: Male or Female? </p>","188","html-keyboard-response","418","1863532","0.0-17.0-0.0","prediction_train","","","",",",""
"null","<div style=""color:white; font-size:60px;"">+</div>","null","html-keyboard-response","419","1864535","0.0-17.0-1.0","fixation","","","","",""
"6613.000000000233","Stimuli/Hangul_E1.bmp","188","image-keyboard-response","420","1871150","0.0-17.0-2.0","c2_train",",","","","",","
"2082.9999999995343","<p style=""color:white;""> Next Figure: Male or Female? </p>","190","html-keyboard-response","421","1873238","0.0-17.0-0.1","prediction_train","","","",".",""
"null","<div style=""color:white; font-size:60px;"">+</div>","null","html-keyboard-response","422","1874244","0.0-17.0-1.1","fixation","","","","",""
"801.0000000004657","Stimuli/Hangul_E0.bmp","190","image-keyboard-response","423","1875047","0.0-17.0-2.1","c2_train",",","","","","."
"893","<p style=""color:white;""> Next Figure: Male or Female? </p>","190","html-keyboard-response","424","1875942","0.0-17.0-0.2","prediction_train","","","",".",""
"null","<div style=""color:white; font-size:60px;"">+</div>","null","html-keyboard-response","425","1876949","0.0-17.0-1.2","fixation","","","","",""
"1234.9999999995343","Stimuli/Hangul_E2.bmp","190","image-keyboard-response","426","1878190","0.0-17.0-2.2","c2_train",".","","","","."
"1729.9999999995343","<p style=""color:white;"">Let us begin! Press the space bar when you are ready to start block 1 of 4.</p> ","32","html-keyboard-response","427","1879926","0.0-18.0","","","","","",""
"820.0000000006985","<p style=""color:white;""> Next Figure: Male or Female? </p>","190","html-keyboard-response","428","1882750","0.0-19.0-0.0","prediction","","","",".",""
"null","<div style=""color:white; font-size:60px;"">+</div>","null","html-keyboard-response","429","1883761","0.0-19.0-1.0","fixation","","","","",""
"1374","Stimuli/Hangul_F17.bmp","190","image-keyboard-response","430","1885151","0.0-19.0-2.0","c2_test",".","","","","."
"1005","<p style=""color:white;""> Next Figure: Male or Female? </p>","190","html-keyboard-response","431","1886157","0.0-19.0-0.1","prediction","","","",".",""
"null","<div style=""color:white; font-size:60px;"">+</div>","null","html-keyboard-response","432","1887167","0.0-19.0-1.1","fixation","","","","",""
"1783.9999999997672","Stimuli/Hangul_M17.bmp","190","image-keyboard-response","433","1888958","0.0-19.0-2.1","c2_test",",","","","","."
"1211.9999999995343","<p style=""color:white;""> Next Figure: Male or Female? </p>","190","html-keyboard-response","434","1890182","0.0-19.0-0.2","prediction","","","",".",""
"null","<div style=""color:white; font-size:60px;"">+</div>","null","html-keyboard-response","435","1891182","0.0-19.0-1.2","fixation","","","","",""
"1436.0000000004657","Stimuli/Hangul_M10.bmp","188","image-keyboard-response","436","1892622","0.0-19.0-2.2","c2_test",",","","","",","
"1241","<p style=""color:white;""> Next Figure: Male or Female? </p>","188","html-keyboard-response","437","1893863","0.0-19.0-0.3","prediction","","","",",",""
"null","<div style=""color:white; font-size:60px;"">+</div>","null","html-keyboard-response","438","1894878","0.0-19.0-1.3","fixation","","","","",""
"1266.9999999997672","Stimuli/Hangul_M1.bmp","188","image-keyboard-response","439","1896159","0.0-19.0-2.3","c2_test",",","","","",","
"2861.0000000006985","<p style=""color:white;""> Next Figure: Male or Female? </p>","188","html-keyboard-response","440","1899022","0.0-19.0-0.4","prediction","","","",",",""
"null","<div style=""color:white; font-size:60px;"">+</div>","null","html-keyboard-response","441","1900031","0.0-19.0-1.4","fixation","","","","",""
"2197.000000000233","Stimuli/Hangul_F0.bmp","190","image-keyboard-response","442","1902231","0.0-19.0-2.4","c2_test",".","","","","."
"750","<p style=""color:white;""> Next Figure: Male or Female? </p>","190","html-keyboard-response","443","1902982","0.0-19.0-0.5","prediction","","","",".",""
"null","<div style=""color:white; font-size:60px;"">+</div>","null","html-keyboard-response","444","1903988","0.0-19.0-1.5","fixation","","","","",""
"1092.9999999997672","Stimuli/Hangul_F8.bmp","190","image-keyboard-response","445","1905086","0.0-19.0-2.5","c2_test",".","","","","."
"1368.0000000002328","<p style=""color:white;""> Next Figure: Male or Female? </p>","188","html-keyboard-response","446","1906455","0.0-19.0-0.6","prediction","","","",",",""
"null","<div style=""color:white; font-size:60px;"">+</div>","null","html-keyboard-response","447","1907460","0.0-19.0-1.6","fixation","","","","",""
"1001.9999999993015","Stimuli/Hangul_M13.bmp","188","image-keyboard-response","448","1908464","0.0-19.0-2.6","c2_test",",","","","",","
"1372.0000000004657","<p style=""color:white;""> Next Figure: Male or Female? </p>","190","html-keyboard-response","449","1909836","0.0-19.0-0.7","prediction","","","",".",""
"null","<div style=""color:white; font-size:60px;"">+</div>","null","html-keyboard-response","450","1910856","0.0-19.0-1.7","fixation","","","","",""
"1191","Stimuli/Hangul_F9.bmp","188","image-keyboard-response","451","1912049","0.0-19.0-2.7","c2_test",".","","","",","
"1284.0000000006985","<p style=""color:white;""> Next Figure: Male or Female? </p>","188","html-keyboard-response","452","1913334","0.0-19.0-0.8","prediction","","","",",",""
"null","<div style=""color:white; font-size:60px;"">+</div>","null","html-keyboard-response","453","1914349","0.0-19.0-1.8","fixation","","","","",""
"614.9999999997672","Stimuli/Hangul_F1.bmp","190","image-keyboard-response","454","1914974","0.0-19.0-2.8","c2_test",".","","","","."
"1032.0000000002328","<p style=""color:white;""> Next Figure: Male or Female? </p>","190","html-keyboard-response","455","1916014","0.0-19.0-0.9","prediction","","","",".",""
"null","<div style=""color:white; font-size:60px;"">+</div>","null","html-keyboard-response","456","1917025","0.0-19.0-1.9","fixation","","","","",""
"501.00000000023283","Stimuli/Hangul_M18.bmp","190","image-keyboard-response","457","1917526","0.0-19.0-2.9","c2_test",",","","","","."
"1304","<p style=""color:white;""> Next Figure: Male or Female? </p>","190","html-keyboard-response","458","1918846","0.0-19.0-0.10","prediction","","","",".",""
"null","<div style=""color:white; font-size:60px;"">+</div>","null","html-keyboard-response","459","1919860","0.0-19.0-1.10","fixation","","","","",""
"412.99999999953434","Stimuli/Hangul_F22.bmp","190","image-keyboard-response","460","1920279","0.0-19.0-2.10","c2_test",".","","","","."
"1179.0000000002328","<p style=""color:white;""> Next Figure: Male or Female? </p>","190","html-keyboard-response","461","1921470","0.0-19.0-0.11","prediction","","","",".",""
"null","<div style=""color:white; font-size:60px;"">+</div>","null","html-keyboard-response","462","1922474","0.0-19.0-1.11","fixation","","","","",""
"277","Stimuli/Hangul_M15.bmp","188","image-keyboard-response","463","1922759","0.0-19.0-2.11","c2_test",",","","","",","
"1047.0000000004657","<p style=""color:white;""> Next Figure: Male or Female? </p>","188","html-keyboard-response","464","1923808","0.0-19.0-0.12","prediction","","","",",",""
"null","<div style=""color:white; font-size:60px;"">+</div>","null","html-keyboard-response","465","1924808","0.0-19.0-1.12","fixation","","","","",""
"403.00000000023283","Stimuli/Hangul_M12.bmp","188","image-keyboard-response","466","1925213","0.0-19.0-2.12","c2_test",",","","","",","
"599.0000000002328","<p style=""color:white;""> Next Figure: Male or Female? </p>","188","html-keyboard-response","467","1925814","0.0-19.0-0.13","prediction","","","",",",""
"null","<div style=""color:white; font-size:60px;"">+</div>","null","html-keyboard-response","468","1926816","0.0-19.0-1.13","fixation","","","","",""
"1542.0000000002328","Stimuli/Hangul_F13.bmp","188","image-keyboard-response","469","1928359","0.0-19.0-2.13","c2_test",".","","","",","
"254","<p style=""color:white;""> Next Figure: Male or Female? </p>","188","html-keyboard-response","470","1928614","0.0-19.0-0.14","prediction","","","",",",""
"null","<div style=""color:white; font-size:60px;"">+</div>","null","html-keyboard-response","471","1929618","0.0-19.0-1.14","fixation","","","","",""
"844.0000000002328","Stimuli/Hangul_F7.bmp","190","image-keyboard-response","472","1930462","0.0-19.0-2.14","c2_test",".","","","","."
"306.99999999976717","<p style=""color:white;""> Next Figure: Male or Female? </p>","190","html-keyboard-response","473","1930783","0.0-19.0-0.15","prediction","","","",".",""
"null","<div style=""color:white; font-size:60px;"">+</div>","null","html-keyboard-response","474","1931796","0.0-19.0-1.15","fixation","","","","",""
"1078.0000000004657","Stimuli/Hangul_M9.bmp","190","image-keyboard-response","475","1932878","0.0-19.0-2.15","c2_test",",","","","","."
"774.9999999997672","<p style=""color:white;""> Next Figure: Male or Female? </p>","188","html-keyboard-response","476","1933654","0.0-19.0-0.16","prediction","","","",",",""
"null","<div style=""color:white; font-size:60px;"">+</div>","null","html-keyboard-response","477","1934655","0.0-19.0-1.16","fixation","","","","",""
"1105.9999999997672","Stimuli/Hangul_F14.bmp","190","image-keyboard-response","478","1935761","0.0-19.0-2.16","c2_test",".","","","","."
"416.99999999953434","<p style=""color:white;""> Next Figure: Male or Female? </p>","190","html-keyboard-response","479","1936198","0.0-19.0-0.17","prediction","","","",".",""
"null","<div style=""color:white; font-size:60px;"">+</div>","null","html-keyboard-response","480","1937202","0.0-19.0-1.17","fixation","","","","",""
"797.9999999997672","Stimuli/Hangul_F23.bmp","190","image-keyboard-response","481","1938006","0.0-19.0-2.17","c2_test",".","","","","."
"371","<p style=""color:white;""> Next Figure: Male or Female? </p>","190","html-keyboard-response","482","1938391","0.0-19.0-0.18","prediction","","","",".",""
"null","<div style=""color:white; font-size:60px;"">+</div>","null","html-keyboard-response","483","1939406","0.0-19.0-1.18","fixation","","","","",""
"967.0000000006985","Stimuli/Hangul_M24.bmp","190","image-keyboard-response","484","1940373","0.0-19.0-2.18","c2_test",",","","","","."
"489.99999999976717","<p style=""color:white;""> Next Figure: Male or Female? </p>","190","html-keyboard-response","485","1940878","0.0-19.0-0.19","prediction","","","",".",""
"null","<div style=""color:white; font-size:60px;"">+</div>","null","html-keyboard-response","486","1941891","0.0-19.0-1.19","fixation","","","","",""
"844","Stimuli/Hangul_M20.bmp","188","image-keyboard-response","487","1942750","0.0-19.0-2.19","c2_test",",","","","",","
"443.00000000023283","<p style=""color:white;""> Next Figure: Male or Female? </p>","188","html-keyboard-response","488","1943198","0.0-19.0-0.20","prediction","","","",",",""
"null","<div style=""color:white; font-size:60px;"">+</div>","null","html-keyboard-response","489","1944205","0.0-19.0-1.20","fixation","","","","",""
"794","Stimuli/Hangul_M21.bmp","190","image-keyboard-response","490","1945000","0.0-19.0-2.20","c2_test",",","","","","."
"519.0000000002328","<p style=""color:white;""> Next Figure: Male or Female? </p>","190","html-keyboard-response","491","1945534","0.0-19.0-0.21","prediction","","","",".",""
"null","<div style=""color:white; font-size:60px;"">+</div>","null","html-keyboard-response","492","1946548","0.0-19.0-1.21","fixation","","","","",""
"1223.9999999990687","Stimuli/Hangul_F15.bmp","188","image-keyboard-response","493","1947772","0.0-19.0-2.21","c2_test",".","","","",","
"337.00000000046566","<p style=""color:white;""> Next Figure: Male or Female? </p>","188","html-keyboard-response","494","1948126","0.0-19.0-0.22","prediction","","","",",",""
"null","<div style=""color:white; font-size:60px;"">+</div>","null","html-keyboard-response","495","1949137","0.0-19.0-1.22","fixation","","","","",""
"538.9999999997672","Stimuli/Hangul_F5.bmp","188","image-keyboard-response","496","1949679","0.0-19.0-2.22","c2_test",".","","","",","
"319.00000000046566","<p style=""color:white;""> Next Figure: Male or Female? </p>","188","html-keyboard-response","497","1949998","0.0-19.0-0.23","prediction","","","",",",""
"null","<div style=""color:white; font-size:60px;"">+</div>","null","html-keyboard-response","498","1951000","0.0-19.0-1.23","fixation","","","","",""
"1494.9999999997672","Stimuli/Hangul_M23.bmp","188","image-keyboard-response","499","1952496","0.0-19.0-2.23","c2_test",",","","","",","
"279.99999999976717","<p style=""color:white;""> Next Figure: Male or Female? </p>","188","html-keyboard-response","500","1952790","0.0-19.0-0.24","prediction","","","",",",""
"null","<div style=""color:white; font-size:60px;"">+</div>","null","html-keyboard-response","501","1953800","0.0-19.0-1.24","fixation","","","","",""
"932","Stimuli/Hangul_F11.bmp","188","image-keyboard-response","502","1954734","0.0-19.0-2.24","c2_test",".","","","",","
"283.99999999976717","<p style=""color:white;""> Next Figure: Male or Female? </p>","188","html-keyboard-response","503","1955022","0.0-19.0-0.25","prediction","","","",",",""
"null","<div style=""color:white; font-size:60px;"">+</div>","null","html-keyboard-response","504","1956036","0.0-19.0-1.25","fixation","","","","",""
"971.0000000004657","Stimuli/Hangul_M4.bmp","190","image-keyboard-response","505","1957022","0.0-19.0-2.25","c2_test",",","","","","."
"346.99999999976717","<p style=""color:white;""> Next Figure: Male or Female? </p>","190","html-keyboard-response","506","1957382","0.0-19.0-0.26","prediction","","","",".",""
"null","<div style=""color:white; font-size:60px;"">+</div>","null","html-keyboard-response","507","1958397","0.0-19.0-1.26","fixation","","","","",""
"873.9999999997672","Stimuli/Hangul_F19.bmp","188","image-keyboard-response","508","1959272","0.0-19.0-2.26","c2_test",".","","","",","
"261.00000000046566","<p style=""color:white;""> Next Figure: Male or Female? </p>","188","html-keyboard-response","509","1959558","0.0-19.0-0.27","prediction","","","",",",""
"null","<div style=""color:white; font-size:60px;"">+</div>","null","html-keyboard-response","510","1960567","0.0-19.0-1.27","fixation","","","","",""
"685.0000000002328","Stimuli/Hangul_M22.bmp","188","image-keyboard-response","511","1961263","0.0-19.0-2.27","c2_test",",","","","",","
"289.0000000006985","<p style=""color:white;""> Next Figure: Male or Female? </p>","188","html-keyboard-response","512","1961558","0.0-19.0-0.28","prediction","","","",",",""
"null","<div style=""color:white; font-size:60px;"">+</div>","null","html-keyboard-response","513","1962572","0.0-19.0-1.28","fixation","","","","",""
"893","Stimuli/Hangul_F10.bmp","190","image-keyboard-response","514","1963478","0.0-19.0-2.28","c2_test",".","","","","."
"543.9999999997672","<p style=""color:white;""> Next Figure: Male or Female? </p>","190","html-keyboard-response","515","1964030","0.0-19.0-0.29","prediction","","","",".",""
"null","<div style=""color:white; font-size:60px;"">+</div>","null","html-keyboard-response","516","1965042","0.0-19.0-1.29","fixation","","","","",""
"495","Stimuli/Hangul_M11.bmp","190","image-keyboard-response","517","1965550","0.0-19.0-2.29","c2_test",",","","","","."
"484.00000000046566","<p style=""color:white;""> Next Figure: Male or Female? </p>","190","html-keyboard-response","518","1966034","0.0-19.0-0.30","prediction","","","",".",""
"null","<div style=""color:white; font-size:60px;"">+</div>","null","html-keyboard-response","519","1967046","0.0-19.0-1.30","fixation","","","","",""
"1098","Stimuli/Hangul_F24.bmp","188","image-keyboard-response","520","1968158","0.0-19.0-2.30","c2_test",".","","","",","
"827.9999999995343","<p style=""color:white;""> Next Figure: Male or Female? </p>","188","html-keyboard-response","521","1968998","0.0-19.0-0.31","prediction","","","",",",""
"null","<div style=""color:white; font-size:60px;"">+</div>","null","html-keyboard-response","522","1969999","0.0-19.0-1.31","fixation","","","","",""
"3243.000000000233","Stimuli/Hangul_M14.bmp","190","image-keyboard-response","523","1973255","0.0-19.0-2.31","c2_test",",","","","","."
"604.0000000002328","<p style=""color:white;""> Next Figure: Male or Female? </p>","190","html-keyboard-response","524","1973862","0.0-19.0-0.32","prediction","","","",".",""
"null","<div style=""color:white; font-size:60px;"">+</div>","null","html-keyboard-response","525","1974879","0.0-19.0-1.32","fixation","","","","",""
"670","Stimuli/Hangul_F4.bmp","188","image-keyboard-response","526","1975551","0.0-19.0-2.32","c2_test",".","","","",","
"404.99999999976717","<p style=""color:white;""> Next Figure: Male or Female? </p>","188","html-keyboard-response","527","1975966","0.0-19.0-0.33","prediction","","","",",",""
"null","<div style=""color:white; font-size:60px;"">+</div>","null","html-keyboard-response","528","1976967","0.0-19.0-1.33","fixation","","","","",""
"773.0000000002328","Stimuli/Hangul_M8.bmp","188","image-keyboard-response","529","1977740","0.0-19.0-2.33","c2_test",",","","","",","
"337.99999999976717","<p style=""color:white;""> Next Figure: Male or Female? </p>","188","html-keyboard-response","530","1978086","0.0-19.0-0.34","prediction","","","",",",""
"null","<div style=""color:white; font-size:60px;"">+</div>","null","html-keyboard-response","531","1979086","0.0-19.0-1.34","fixation","","","","",""
"545","Stimuli/Hangul_F20.bmp","190","image-keyboard-response","532","1979632","0.0-19.0-2.34","c2_test",".","","","","."
"1501.9999999995343","<p style=""color:white;""> Next Figure: Male or Female? </p>","190","html-keyboard-response","533","1981158","0.0-19.0-0.35","prediction","","","",".",""
"null","<div style=""color:white; font-size:60px;"">+</div>","null","html-keyboard-response","534","1982160","0.0-19.0-1.35","fixation","","","","",""
"1262.0000000006985","Stimuli/Hangul_F18.bmp","188","image-keyboard-response","535","1983423","0.0-19.0-2.35","c2_test",".","","","",","
"287.00000000023283","<p style=""color:white;""> Next Figure: Male or Female? </p>","188","html-keyboard-response","536","1983718","0.0-19.0-0.36","prediction","","","",",",""
"null","<div style=""color:white; font-size:60px;"">+</div>","null","html-keyboard-response","537","1984727","0.0-19.0-1.36","fixation","","","","",""
"579.0000000006985","Stimuli/Hangul_F16.bmp","188","image-keyboard-response","538","1985310","0.0-19.0-2.36","c2_test",".","","","",","
"379","<p style=""color:white;""> Next Figure: Male or Female? </p>","188","html-keyboard-response","539","1985694","0.0-19.0-0.37","prediction","","","",",",""
"null","<div style=""color:white; font-size:60px;"">+</div>","null","html-keyboard-response","540","1986712","0.0-19.0-1.37","fixation","","","","",""
"654.0000000004657","Stimuli/Hangul_F21.bmp","190","image-keyboard-response","541","1987382","0.0-19.0-2.37","c2_test",".","","","","."
"328.99999999976717","<p style=""color:white;""> Next Figure: Male or Female? </p>","190","html-keyboard-response","542","1987718","0.0-19.0-0.38","prediction","","","",".",""
"null","<div style=""color:white; font-size:60px;"">+</div>","null","html-keyboard-response","543","1988731","0.0-19.0-1.38","fixation","","","","",""
"556.9999999997672","Stimuli/Hangul_F3.bmp","190","image-keyboard-response","544","1989294","0.0-19.0-2.38","c2_test",".","","","","."
"319.00000000046566","<p style=""color:white;""> Next Figure: Male or Female? </p>","190","html-keyboard-response","545","1989614","0.0-19.0-0.39","prediction","","","",".",""
"null","<div style=""color:white; font-size:60px;"">+</div>","null","html-keyboard-response","546","1990628","0.0-19.0-1.39","fixation","","","","",""
"1125","Stimuli/Hangul_M5.bmp","190","image-keyboard-response","547","1991753","0.0-19.0-2.39","c2_test",",","","","","."
"406","<p style=""color:white;""> Next Figure: Male or Female? </p>","190","html-keyboard-response","548","1992174","0.0-19.0-0.40","prediction","","","",".",""
"null","<div style=""color:white; font-size:60px;"">+</div>","null","html-keyboard-response","549","1993185","0.0-19.0-1.40","fixation","","","","",""
"935.9999999997672","Stimuli/Hangul_M2.bmp","190","image-keyboard-response","550","1994124","0.0-19.0-2.40","c2_test",",","","","","."
"415","<p style=""color:white;""> Next Figure: Male or Female? </p>","190","html-keyboard-response","551","1994550","0.0-19.0-0.41","prediction","","","",".",""
"null","<div style=""color:white; font-size:60px;"">+</div>","null","html-keyboard-response","552","1995557","0.0-19.0-1.41","fixation","","","","",""
"942.9999999993015","Stimuli/Hangul_M3.bmp","188","image-keyboard-response","553","1996510","0.0-19.0-2.41","c2_test",",","","","",","
"765.0000000002328","<p style=""color:white;""> Next Figure: Male or Female? </p>","188","html-keyboard-response","554","1997279","0.0-19.0-0.42","prediction","","","",",",""
"null","<div style=""color:white; font-size:60px;"">+</div>","null","html-keyboard-response","555","1998289","0.0-19.0-1.42","fixation","","","","",""
"648","Stimuli/Hangul_M0.bmp","188","image-keyboard-response","556","1998950","0.0-19.0-2.42","c2_test",",","","","",","
"294.9999999990687","<p style=""color:white;""> Next Figure: Male or Female? </p>","188","html-keyboard-response","557","1999254","0.0-19.0-0.43","prediction","","","",",",""
"null","<div style=""color:white; font-size:60px;"">+</div>","null","html-keyboard-response","558","2000268","0.0-19.0-1.43","fixation","","","","",""
"500","Stimuli/Hangul_F6.bmp","188","image-keyboard-response","559","2000782","0.0-19.0-2.43","c2_test",".","","","",","
"399.00000000046566","<p style=""color:white;""> Next Figure: Male or Female? </p>","188","html-keyboard-response","560","2001181","0.0-19.0-0.44","prediction","","","",",",""
"null","<div style=""color:white; font-size:60px;"">+</div>","null","html-keyboard-response","561","2002188","0.0-19.0-1.44","fixation","","","","",""
"477","Stimuli/Hangul_F12.bmp","188","image-keyboard-response","562","2002678","0.0-19.0-2.44","c2_test",".","","","",","
"633.0000000006985","<p style=""color:white;""> Next Figure: Male or Female? </p>","188","html-keyboard-response","563","2003318","0.0-19.0-0.45","prediction","","","",",",""
"null","<div style=""color:white; font-size:60px;"">+</div>","null","html-keyboard-response","564","2004331","0.0-19.0-1.45","fixation","","","","",""
"439.00000000023283","Stimuli/Hangul_M19.bmp","190","image-keyboard-response","565","2004771","0.0-19.0-2.45","c2_test",",","","","","."
"513","<p style=""color:white;""> Next Figure: Male or Female? </p>","190","html-keyboard-response","566","2005310","0.0-19.0-0.46","prediction","","","",".",""
"null","<div style=""color:white; font-size:60px;"">+</div>","null","html-keyboard-response","567","2006323","0.0-19.0-1.46","fixation","","","","",""
"465.00000000023283","Stimuli/Hangul_M6.bmp","190","image-keyboard-response","568","2006788","0.0-19.0-2.46","c2_test",",","","","","."
"348","<p style=""color:white;""> Next Figure: Male or Female? </p>","190","html-keyboard-response","569","2007150","0.0-19.0-0.47","prediction","","","",".",""
"null","<div style=""color:white; font-size:60px;"">+</div>","null","html-keyboard-response","570","2008164","0.0-19.0-1.47","fixation","","","","",""
"564.9999999995343","Stimuli/Hangul_M16.bmp","190","image-keyboard-response","571","2008734","0.0-19.0-2.47","c2_test",",","","","","."
"505.00000000023283","<p style=""color:white;""> Next Figure: Male or Female? </p>","190","html-keyboard-response","572","2009254","0.0-19.0-0.48","prediction","","","",".",""
"null","<div style=""color:white; font-size:60px;"">+</div>","null","html-keyboard-response","573","2010264","0.0-19.0-1.48","fixation","","","","",""
"899.0000000004657","Stimuli/Hangul_M7.bmp","188","image-keyboard-response","574","2011166","0.0-19.0-2.48","c2_test",",","","","",","
"1169","<p style=""color:white;""> Next Figure: Male or Female? </p>","188","html-keyboard-response","575","2012342","0.0-19.0-0.49","prediction","","","",",",""
"null","<div style=""color:white; font-size:60px;"">+</div>","null","html-keyboard-response","576","2013346","0.0-19.0-1.49","fixation","","","","",""
"556.9999999997672","Stimuli/Hangul_F2.bmp","188","image-keyboard-response","577","2013910","0.0-19.0-2.49","c2_test",".","","","",","
"47807.000000000466","<p style=""color:white;"">Good job, block 1 complete! Please take a moment to rest.</p> <p style=""color:white;"">When you are ready to continue with block 2 of 4, press the space bar.</p> ","32","html-keyboard-response","578","2061719","0.0-20.0","","","","","",""
"476","<p style=""color:white;""> Next Figure: Male or Female? </p>","190","html-keyboard-response","579","2064214","0.0-21.0-0.0","prediction","","","",".",""
"null","<div style=""color:white; font-size:60px;"">+</div>","null","html-keyboard-response","580","2065216","0.0-21.0-1.0","fixation","","","","",""
"1469.9999999995343","Stimuli/Hangul_M40.bmp","190","image-keyboard-response","581","2066690","0.0-21.0-2.0","c2_test",",","","","","."
"587.9999999995343","<p style=""color:white;""> Next Figure: Male or Female? </p>","190","html-keyboard-response","582","2067280","0.0-21.0-0.1","prediction","","","",".",""
"null","<div style=""color:white; font-size:60px;"">+</div>","null","html-keyboard-response","583","2068289","0.0-21.0-1.1","fixation","","","","",""
"1331","Stimuli/Hangul_M27.bmp","190","image-keyboard-response","584","2069622","0.0-21.0-2.1","c2_test",",","","","","."
"503","<p style=""color:white;""> Next Figure: Male or Female? </p>","190","html-keyboard-response","585","2070126","0.0-21.0-0.2","prediction","","","",".",""
"null","<div style=""color:white; font-size:60px;"">+</div>","null","html-keyboard-response","586","2071135","0.0-21.0-1.2","fixation","","","","",""
"1879","Stimuli/Hangul_M38.bmp","188","image-keyboard-response","587","2073014","0.0-21.0-2.2","c2_test",",","","","",","
"376.00000000046566","<p style=""color:white;""> Next Figure: Male or Female? </p>","188","html-keyboard-response","588","2073414","0.0-21.0-0.3","prediction","","","",",",""
"null","<div style=""color:white; font-size:60px;"">+</div>","null","html-keyboard-response","589","2074422","0.0-21.0-1.3","fixation","","","","",""
"1996.9999999995343","Stimuli/Hangul_F37.bmp","188","image-keyboard-response","590","2076420","0.0-21.0-2.3","c2_test",".","","","",","
"407.99999999953434","<p style=""color:white;""> Next Figure: Male or Female? </p>","188","html-keyboard-response","591","2076830","0.0-21.0-0.4","prediction","","","",",",""
"null","<div style=""color:white; font-size:60px;"">+</div>","null","html-keyboard-response","592","2077850","0.0-21.0-1.4","fixation","","","","",""
"906","Stimuli/Hangul_M26.bmp","188","image-keyboard-response","593","2078758","0.0-21.0-2.4","c2_test",",","","","",","
"375.99999999953434","<p style=""color:white;""> Next Figure: Male or Female? </p>","188","html-keyboard-response","594","2079134","0.0-21.0-0.5","prediction","","","",",",""
"null","<div style=""color:white; font-size:60px;"">+</div>","null","html-keyboard-response","595","2080137","0.0-21.0-1.5","fixation","","","","",""
"1207","Stimuli/Hangul_F31.bmp","190","image-keyboard-response","596","2081345","0.0-21.0-2.5","c2_test",".","","","","."
"768","<p style=""color:white;""> Next Figure: Male or Female? </p>","190","html-keyboard-response","597","2082126","0.0-21.0-0.6","prediction","","","",".",""
"null","<div style=""color:white; font-size:60px;"">+</div>","null","html-keyboard-response","598","2083136","0.0-21.0-1.6","fixation","","","","",""
"1129","Stimuli/Hangul_M31.bmp","190","image-keyboard-response","599","2084271","0.0-21.0-2.6","c2_test",",","","","","."
"434.99999999953434","<p style=""color:white;""> Next Figure: Male or Female? </p>","190","html-keyboard-response","600","2084718","0.0-21.0-0.7","prediction","","","",".",""
"null","<div style=""color:white; font-size:60px;"">+</div>","null","html-keyboard-response","601","2085728","0.0-21.0-1.7","fixation","","","","",""
"590","Stimuli/Hangul_M28.bmp","190","image-keyboard-response","602","2086318","0.0-21.0-2.7","c2_test",",","","","","."
"461.99999999953434","<p style=""color:white;""> Next Figure: Male or Female? </p>","190","html-keyboard-response","603","2086782","0.0-21.0-0.8","prediction","","","",".",""
"null","<div style=""color:white; font-size:60px;"">+</div>","null","html-keyboard-response","604","2087793","0.0-21.0-1.8","fixation","","","","",""
"2127.9999999995343","Stimuli/Hangul_M35.bmp","188","image-keyboard-response","605","2089927","0.0-21.0-2.8","c2_test",",","","","",","
"316.00000000046566","<p style=""color:white;""> Next Figure: Male or Female? </p>","188","html-keyboard-response","606","2090254","0.0-21.0-0.9","prediction","","","",",",""
"null","<div style=""color:white; font-size:60px;"">+</div>","null","html-keyboard-response","607","2091260","0.0-21.0-1.9","fixation","","","","",""
"617.9999999995343","Stimuli/Hangul_M37.bmp","188","image-keyboard-response","608","2091880","0.0-21.0-2.9","c2_test",",","","","",","
"341.99999999953434","<p style=""color:white;""> Next Figure: Male or Female? </p>","188","html-keyboard-response","609","2092228","0.0-21.0-0.10","prediction","","","",",",""
"null","<div style=""color:white; font-size:60px;"">+</div>","null","html-keyboard-response","610","2093231","0.0-21.0-1.10","fixation","","","","",""
"1406","Stimuli/Hangul_F41.bmp","190","image-keyboard-response","611","2094638","0.0-21.0-2.10","c2_test",".","","","","."
"317","<p style=""color:white;""> Next Figure: Male or Female? </p>","190","html-keyboard-response","612","2094958","0.0-21.0-0.11","prediction","","","",".",""
"null","<div style=""color:white; font-size:60px;"">+</div>","null","html-keyboard-response","613","2095960","0.0-21.0-1.11","fixation","","","","",""
"1099.9999999995343","Stimuli/Hangul_F29.bmp","190","image-keyboard-response","614","2097062","0.0-21.0-2.11","c2_test",".","","","","."
"405.00000000046566","<p style=""color:white;""> Next Figure: Male or Female? </p>","190","html-keyboard-response","615","2097471","0.0-21.0-0.12","prediction","","","",".",""
"null","<div style=""color:white; font-size:60px;"">+</div>","null","html-keyboard-response","616","2098484","0.0-21.0-1.12","fixation","","","","",""
"1162","Stimuli/Hangul_F49.bmp","190","image-keyboard-response","617","2099646","0.0-21.0-2.12","c2_test",".","","","","."
"491","<p style=""color:white;""> Next Figure: Male or Female? </p>","190","html-keyboard-response","618","2100142","0.0-21.0-0.13","prediction","","","",".",""
"null","<div style=""color:white; font-size:60px;"">+</div>","null","html-keyboard-response","619","2101153","0.0-21.0-1.13","fixation","","","","",""
"789","Stimuli/Hangul_F46.bmp","190","image-keyboard-response","620","2101943","0.0-21.0-2.13","c2_test",".","","","","."
"366","<p style=""color:white;""> Next Figure: Male or Female? </p>","190","html-keyboard-response","621","2102310","0.0-21.0-0.14","prediction","","","",".",""
"null","<div style=""color:white; font-size:60px;"">+</div>","null","html-keyboard-response","622","2103314","0.0-21.0-1.14","fixation","","","","",""
"1259","Stimuli/Hangul_M45.bmp","188","image-keyboard-response","623","2104574","0.0-21.0-2.14","c2_test",",","","","",","
"316.00000000046566","<p style=""color:white;""> Next Figure: Male or Female? </p>","188","html-keyboard-response","624","2104903","0.0-21.0-0.15","prediction","","","",",",""
"null","<div style=""color:white; font-size:60px;"">+</div>","null","html-keyboard-response","625","2105916","0.0-21.0-1.15","fixation","","","","",""
"925.9999999995343","Stimuli/Hangul_F32.bmp","188","image-keyboard-response","626","2106846","0.0-21.0-2.15","c2_test",".","","","",","
"322.99999999953434","<p style=""color:white;""> Next Figure: Male or Female? </p>","188","html-keyboard-response","627","2107182","0.0-21.0-0.16","prediction","","","",",",""
"null","<div style=""color:white; font-size:60px;"">+</div>","null","html-keyboard-response","628","2108182","0.0-21.0-1.16","fixation","","","","",""
"941","Stimuli/Hangul_M34.bmp","188","image-keyboard-response","629","2109126","0.0-21.0-2.16","c2_test",",","","","",","
"264.00000000046566","<p style=""color:white;""> Next Figure: Male or Female? </p>","188","html-keyboard-response","630","2109390","0.0-21.0-0.17","prediction","","","",",",""
"null","<div style=""color:white; font-size:60px;"">+</div>","null","html-keyboard-response","631","2110398","0.0-21.0-1.17","fixation","","","","",""
"1237","Stimuli/Hangul_F36.bmp","190","image-keyboard-response","632","2111646","0.0-21.0-2.17","c2_test",".","","","","."
"624","<p style=""color:white;""> Next Figure: Male or Female? </p>","190","html-keyboard-response","633","2112278","0.0-21.0-0.18","prediction","","","",".",""
"null","<div style=""color:white; font-size:60px;"">+</div>","null","html-keyboard-response","634","2113294","0.0-21.0-1.18","fixation","","","","",""
"742","Stimuli/Hangul_M25.bmp","190","image-keyboard-response","635","2114038","0.0-21.0-2.18","c2_test",",","","","","."
"368.99999999953434","<p style=""color:white;""> Next Figure: Male or Female? </p>","190","html-keyboard-response","636","2114422","0.0-21.0-0.19","prediction","","","",".",""
"null","<div style=""color:white; font-size:60px;"">+</div>","null","html-keyboard-response","637","2115423","0.0-21.0-1.19","fixation","","","","",""
"750.9999999995343","Stimuli/Hangul_M47.bmp","190","image-keyboard-response","638","2116175","0.0-21.0-2.19","c2_test",",","","","","."
"410","<p style=""color:white;""> Next Figure: Male or Female? </p>","190","html-keyboard-response","639","2116598","0.0-21.0-0.20","prediction","","","",".",""
"null","<div style=""color:white; font-size:60px;"">+</div>","null","html-keyboard-response","640","2117611","0.0-21.0-1.20","fixation","","","","",""
"1166","Stimuli/Hangul_F30.bmp","188","image-keyboard-response","641","2118790","0.0-21.0-2.20","c2_test",".","","","",","
"336","<p style=""color:white;""> Next Figure: Male or Female? </p>","188","html-keyboard-response","642","2119126","0.0-21.0-0.21","prediction","","","",",",""
"null","<div style=""color:white; font-size:60px;"">+</div>","null","html-keyboard-response","643","2120146","0.0-21.0-1.21","fixation","","","","",""
"566.0000000004657","Stimuli/Hangul_M43.bmp","188","image-keyboard-response","644","2120726","0.0-21.0-2.21","c2_test",",","","","",","
"406.9999999990687","<p style=""color:white;""> Next Figure: Male or Female? </p>","188","html-keyboard-response","645","2121134","0.0-21.0-0.22","prediction","","","",",",""
"null","<div style=""color:white; font-size:60px;"">+</div>","null","html-keyboard-response","646","2122145","0.0-21.0-1.22","fixation","","","","",""
"1105.9999999995343","Stimuli/Hangul_M41.bmp","188","image-keyboard-response","647","2123254","0.0-21.0-2.22","c2_test",",","","","",","
"400.00000000046566","<p style=""color:white;""> Next Figure: Male or Female? </p>","188","html-keyboard-response","648","2123662","0.0-21.0-0.23","prediction","","","",",",""
"null","<div style=""color:white; font-size:60px;"">+</div>","null","html-keyboard-response","649","2124670","0.0-21.0-1.23","fixation","","","","",""
"1455","Stimuli/Hangul_F33.bmp","190","image-keyboard-response","650","2126126","0.0-21.0-2.23","c2_test",".","","","","."
"363.99999999953434","<p style=""color:white;""> Next Figure: Male or Female? </p>","190","html-keyboard-response","651","2126503","0.0-21.0-0.24","prediction","","","",".",""
"null","<div style=""color:white; font-size:60px;"">+</div>","null","html-keyboard-response","652","2127510","0.0-21.0-1.24","fixation","","","","",""
"1230.0000000004657","Stimuli/Hangul_M30.bmp","190","image-keyboard-response","653","2128750","0.0-21.0-2.24","c2_test",",","","","","."
"455","<p style=""color:white;""> Next Figure: Male or Female? </p>","190","html-keyboard-response","654","2129206","0.0-21.0-0.25","prediction","","","",".",""
"null","<div style=""color:white; font-size:60px;"">+</div>","null","html-keyboard-response","655","2130210","0.0-21.0-1.25","fixation","","","","",""
"989.0000000004657","Stimuli/Hangul_M42.bmp","190","image-keyboard-response","656","2131214","0.0-21.0-2.25","c2_test",",","","","","."
"360.00000000046566","<p style=""color:white;""> Next Figure: Male or Female? </p>","190","html-keyboard-response","657","2131591","0.0-21.0-0.26","prediction","","","",".",""
"null","<div style=""color:white; font-size:60px;"">+</div>","null","html-keyboard-response","658","2132618","0.0-21.0-1.26","fixation","","","","",""
"880","Stimuli/Hangul_F39.bmp","188","image-keyboard-response","659","2133510","0.0-21.0-2.26","c2_test",".","","","",","
"333.00000000046566","<p style=""color:white;""> Next Figure: Male or Female? </p>","188","html-keyboard-response","660","2133854","0.0-21.0-0.27","prediction","","","",",",""
"null","<div style=""color:white; font-size:60px;"">+</div>","null","html-keyboard-response","661","2134858","0.0-21.0-1.27","fixation","","","","",""
