"rt","stimulus","key_press","trial_type","trial_index","time_elapsed","internal_node_id","test_part","correct_response","C1_train","C1","A","C2"
"11039","<p style=""color:white;"">Welcome to the experiment! Press any key to begin.</p>","32","html-keyboard-response","0","11044","0.0-0.0","","","","","",""
"20605","<p style=""color:white;"">You will see a series of abstract figures. They are adaptations of signs in the Korean alphabet, but that is not important for this study. </p><p style=""color:white;"">Abstract figures sometimes have a more masculine or feminine shape. Here, each figure has already been assigned a gender as <q>Male</q> or <q>Female</q> by a panel of respondents in a pilot study. The respondents were not given specific instructions on how to do this, but were only told to use their intuition and to take into account the entire configuration of the stimulus. </p><p style=""color:white;"">Your task now is to guess the assigned gender of each figure. Please press the corresponding response keys to indicate your choice: </p><p style=""color:white;""> Male &#8594 <q>,</q> (comma)</p><p style=""color:white;""> Female &#8594 <q>.</q> (period)</p><p style=""color:white;"">Press either response keys to continue.</p>","188","html-keyboard-response","1","31653","0.0-1.0","","","","","",""
"6948","<p style=""color:white;"">Your choice is correct if it matches the gender assigned by the majority of respondents in the pilot study.</p> <p style=""color:white;"">For each correct choice you will receive 2 cents. There will be 200 trials divided into 4 blocks of 50 trials. You will be able to take a break after every 50 trials.</p> <p style=""color:white;"">Press the space bar to continue.</p>","32","html-keyboard-response","2","38604","0.0-2.0","","","","","",""
"2910","<p style=""color:white;"">Here are some examples.</p> <p style=""color:white;"">For each, guess whether the assigned figure is male-like or female-like and indicate your choice by pressing either response keys.</p> <p style=""color:white;"">Press the space bar to continue.</p>","32","html-keyboard-response","3","41516","0.0-3.0","","","","","",""
"null","<div style=""color:white; font-size:60px;"">+</div>","null","html-keyboard-response","4","44549","0.0-4.0-0.0","fixation","","","","",""
"1819","Stimuli/Hangul_E1.bmp","188","image-keyboard-response","5","46375","0.0-4.0-1.0","c1_train",",",",","","",""
"null","<div style=""color:white; font-size:60px;"">+</div>","null","html-keyboard-response","6","47377","0.0-4.0-0.1","fixation","","","","",""
"1786","Stimuli/Hangul_E2.bmp","188","image-keyboard-response","7","49168","0.0-4.0-1.1","c1_train",".",",","","",""
"null","<div style=""color:white; font-size:60px;"">+</div>","null","html-keyboard-response","8","50179","0.0-4.0-0.2","fixation","","","","",""
"1256","Stimuli/Hangul_E0.bmp","188","image-keyboard-response","9","51439","0.0-4.0-1.2","c1_train",",",",","","",""
"1769","<p style=""color:white;"">Let us begin! Press the space bar when you are ready to start block 1 of 4.</p> ","32","html-keyboard-response","10","53212","0.0-5.0","","","","","",""
"null","<div style=""color:white; font-size:60px;"">+</div>","null","html-keyboard-response","11","56239","0.0-6.0-0.0","fixation","","","","",""
"1714","Stimuli/Hangul_F5.bmp","188","image-keyboard-response","12","57962","0.0-6.0-1.0","test",".","",",","",""
"null","<div style=""color:white; font-size:60px;"">+</div>","null","html-keyboard-response","13","58973","0.0-6.0-0.1","fixation","","","","",""
"1178","Stimuli/Hangul_F20.bmp","190","image-keyboard-response","14","60154","0.0-6.0-1.1","test",".","",".","",""
"null","<div style=""color:white; font-size:60px;"">+</div>","null","html-keyboard-response","15","61169","0.0-6.0-0.2","fixation","","","","",""
"1653","Stimuli/Hangul_M5.bmp","190","image-keyboard-response","16","62826","0.0-6.0-1.2","test",",","",".","",""
"null","<div style=""color:white; font-size:60px;"">+</div>","null","html-keyboard-response","17","63840","0.0-6.0-0.3","fixation","","","","",""
"1425","Stimuli/Hangul_F0.bmp","188","image-keyboard-response","18","65268","0.0-6.0-1.3","test",".","",",","",""
"null","<div style=""color:white; font-size:60px;"">+</div>","null","html-keyboard-response","19","66288","0.0-6.0-0.4","fixation","","","","",""
"1007","Stimuli/Hangul_M12.bmp","190","image-keyboard-response","20","67302","0.0-6.0-1.4","test",",","",".","",""
"null","<div style=""color:white; font-size:60px;"">+</div>","null","html-keyboard-response","21","68309","0.0-6.0-0.5","fixation","","","","",""
"1323","Stimuli/Hangul_M17.bmp","190","image-keyboard-response","22","69636","0.0-6.0-1.5","test",",","",".","",""
"null","<div style=""color:white; font-size:60px;"">+</div>","null","html-keyboard-response","23","70648","0.0-6.0-0.6","fixation","","","","",""
"1339","Stimuli/Hangul_F10.bmp","188","image-keyboard-response","24","71990","0.0-6.0-1.6","test",".","",",","",""
"null","<div style=""color:white; font-size:60px;"">+</div>","null","html-keyboard-response","25","73005","0.0-6.0-0.7","fixation","","","","",""
"970","Stimuli/Hangul_F23.bmp","190","image-keyboard-response","26","73982","0.0-6.0-1.7","test",".","",".","",""
"null","<div style=""color:white; font-size:60px;"">+</div>","null","html-keyboard-response","27","74998","0.0-6.0-0.8","fixation","","","","",""
"1147","Stimuli/Hangul_F14.bmp","188","image-keyboard-response","28","76149","0.0-6.0-1.8","test",".","",",","",""
"null","<div style=""color:white; font-size:60px;"">+</div>","null","html-keyboard-response","29","77159","0.0-6.0-0.9","fixation","","","","",""
"891","Stimuli/Hangul_M16.bmp","190","image-keyboard-response","30","78053","0.0-6.0-1.9","test",",","",".","",""
"null","<div style=""color:white; font-size:60px;"">+</div>","null","html-keyboard-response","31","79059","0.0-6.0-0.10","fixation","","","","",""
"965","Stimuli/Hangul_F19.bmp","190","image-keyboard-response","32","80027","0.0-6.0-1.10","test",".","",".","",""
"null","<div style=""color:white; font-size:60px;"">+</div>","null","html-keyboard-response","33","81040","0.0-6.0-0.11","fixation","","","","",""
"964","Stimuli/Hangul_F24.bmp","190","image-keyboard-response","34","82006","0.0-6.0-1.11","test",".","",".","",""
"null","<div style=""color:white; font-size:60px;"">+</div>","null","html-keyboard-response","35","83008","0.0-6.0-0.12","fixation","","","","",""
"1121","Stimuli/Hangul_M22.bmp","190","image-keyboard-response","36","84132","0.0-6.0-1.12","test",",","",".","",""
"null","<div style=""color:white; font-size:60px;"">+</div>","null","html-keyboard-response","37","85148","0.0-6.0-0.13","fixation","","","","",""
"1369","Stimuli/Hangul_M1.bmp","188","image-keyboard-response","38","86520","0.0-6.0-1.13","test",",","",",","",""
"null","<div style=""color:white; font-size:60px;"">+</div>","null","html-keyboard-response","39","87539","0.0-6.0-0.14","fixation","","","","",""
"973","Stimuli/Hangul_F9.bmp","188","image-keyboard-response","40","88515","0.0-6.0-1.14","test",".","",",","",""
"null","<div style=""color:white; font-size:60px;"">+</div>","null","html-keyboard-response","41","89525","0.0-6.0-0.15","fixation","","","","",""
"991","Stimuli/Hangul_M19.bmp","188","image-keyboard-response","42","90520","0.0-6.0-1.15","test",",","",",","",""
"null","<div style=""color:white; font-size:60px;"">+</div>","null","html-keyboard-response","43","91528","0.0-6.0-0.16","fixation","","","","",""
"1029","Stimuli/Hangul_F8.bmp","188","image-keyboard-response","44","92564","0.0-6.0-1.16","test",".","",",","",""
"null","<div style=""color:white; font-size:60px;"">+</div>","null","html-keyboard-response","45","93569","0.0-6.0-0.17","fixation","","","","",""
"842","Stimuli/Hangul_M6.bmp","190","image-keyboard-response","46","94414","0.0-6.0-1.17","test",",","",".","",""
"null","<div style=""color:white; font-size:60px;"">+</div>","null","html-keyboard-response","47","95419","0.0-6.0-0.18","fixation","","","","",""
"1196","Stimuli/Hangul_M20.bmp","188","image-keyboard-response","48","96619","0.0-6.0-1.18","test",",","",",","",""
"null","<div style=""color:white; font-size:60px;"">+</div>","null","html-keyboard-response","49","97638","0.0-6.0-0.19","fixation","","","","",""
"932","Stimuli/Hangul_M10.bmp","188","image-keyboard-response","50","98573","0.0-6.0-1.19","test",",","",",","",""
"null","<div style=""color:white; font-size:60px;"">+</div>","null","html-keyboard-response","51","99579","0.0-6.0-0.20","fixation","","","","",""
"2055","Stimuli/Hangul_M14.bmp","188","image-keyboard-response","52","101637","0.0-6.0-1.20","test",",","",",","",""
"null","<div style=""color:white; font-size:60px;"">+</div>","null","html-keyboard-response","53","102659","0.0-6.0-0.21","fixation","","","","",""
"1131","Stimuli/Hangul_F16.bmp","190","image-keyboard-response","54","103794","0.0-6.0-1.21","test",".","",".","",""
"null","<div style=""color:white; font-size:60px;"">+</div>","null","html-keyboard-response","55","104798","0.0-6.0-0.22","fixation","","","","",""
"771","Stimuli/Hangul_F11.bmp","190","image-keyboard-response","56","105571","0.0-6.0-1.22","test",".","",".","",""
"null","<div style=""color:white; font-size:60px;"">+</div>","null","html-keyboard-response","57","106573","0.0-6.0-0.23","fixation","","","","",""
"1088","Stimuli/Hangul_M15.bmp","188","image-keyboard-response","58","107665","0.0-6.0-1.23","test",",","",",","",""
"null","<div style=""color:white; font-size:60px;"">+</div>","null","html-keyboard-response","59","108678","0.0-6.0-0.24","fixation","","","","",""
"1108","Stimuli/Hangul_M0.bmp","190","image-keyboard-response","60","109788","0.0-6.0-1.24","test",",","",".","",""
"null","<div style=""color:white; font-size:60px;"">+</div>","null","html-keyboard-response","61","110798","0.0-6.0-0.25","fixation","","","","",""
"860","Stimuli/Hangul_M8.bmp","190","image-keyboard-response","62","111662","0.0-6.0-1.25","test",",","",".","",""
"null","<div style=""color:white; font-size:60px;"">+</div>","null","html-keyboard-response","63","112677","0.0-6.0-0.26","fixation","","","","",""
"958","Stimuli/Hangul_F18.bmp","188","image-keyboard-response","64","113641","0.0-6.0-1.26","test",".","",",","",""
"null","<div style=""color:white; font-size:60px;"">+</div>","null","html-keyboard-response","65","114658","0.0-6.0-0.27","fixation","","","","",""
"870","Stimuli/Hangul_F21.bmp","188","image-keyboard-response","66","115532","0.0-6.0-1.27","test",".","",",","",""
"null","<div style=""color:white; font-size:60px;"">+</div>","null","html-keyboard-response","67","116539","0.0-6.0-0.28","fixation","","","","",""
"869","Stimuli/Hangul_F12.bmp","190","image-keyboard-response","68","117411","0.0-6.0-1.28","test",".","",".","",""
"null","<div style=""color:white; font-size:60px;"">+</div>","null","html-keyboard-response","69","118418","0.0-6.0-0.29","fixation","","","","",""
"816","Stimuli/Hangul_M2.bmp","190","image-keyboard-response","70","119238","0.0-6.0-1.29","test",",","",".","",""
"null","<div style=""color:white; font-size:60px;"">+</div>","null","html-keyboard-response","71","120258","0.0-6.0-0.30","fixation","","","","",""
"944","Stimuli/Hangul_M9.bmp","190","image-keyboard-response","72","121205","0.0-6.0-1.30","test",",","",".","",""
"null","<div style=""color:white; font-size:60px;"">+</div>","null","html-keyboard-response","73","122219","0.0-6.0-0.31","fixation","","","","",""
"883","Stimuli/Hangul_M24.bmp","188","image-keyboard-response","74","123104","0.0-6.0-1.31","test",",","",",","",""
"null","<div style=""color:white; font-size:60px;"">+</div>","null","html-keyboard-response","75","124118","0.0-6.0-0.32","fixation","","","","",""
"911","Stimuli/Hangul_M4.bmp","188","image-keyboard-response","76","125032","0.0-6.0-1.32","test",",","",",","",""
"null","<div style=""color:white; font-size:60px;"">+</div>","null","html-keyboard-response","77","126039","0.0-6.0-0.33","fixation","","","","",""
"848","Stimuli/Hangul_M3.bmp","190","image-keyboard-response","78","126890","0.0-6.0-1.33","test",",","",".","",""
"null","<div style=""color:white; font-size:60px;"">+</div>","null","html-keyboard-response","79","127902","0.0-6.0-0.34","fixation","","","","",""
"1078","Stimuli/Hangul_M18.bmp","188","image-keyboard-response","80","128982","0.0-6.0-1.34","test",",","",",","",""
"null","<div style=""color:white; font-size:60px;"">+</div>","null","html-keyboard-response","81","129988","0.0-6.0-0.35","fixation","","","","",""
"933","Stimuli/Hangul_M13.bmp","190","image-keyboard-response","82","130924","0.0-6.0-1.35","test",",","",".","",""
"null","<div style=""color:white; font-size:60px;"">+</div>","null","html-keyboard-response","83","131928","0.0-6.0-0.36","fixation","","","","",""
"1107","Stimuli/Hangul_F15.bmp","188","image-keyboard-response","84","133038","0.0-6.0-1.36","test",".","",",","",""
"null","<div style=""color:white; font-size:60px;"">+</div>","null","html-keyboard-response","85","134048","0.0-6.0-0.37","fixation","","","","",""
"853","Stimuli/Hangul_M21.bmp","188","image-keyboard-response","86","134904","0.0-6.0-1.37","test",",","",",","",""
"null","<div style=""color:white; font-size:60px;"">+</div>","null","html-keyboard-response","87","135918","0.0-6.0-0.38","fixation","","","","",""
"1133","Stimuli/Hangul_F6.bmp","188","image-keyboard-response","88","137055","0.0-6.0-1.38","test",".","",",","",""
"null","<div style=""color:white; font-size:60px;"">+</div>","null","html-keyboard-response","89","138058","0.0-6.0-0.39","fixation","","","","",""
"945","Stimuli/Hangul_F13.bmp","190","image-keyboard-response","90","139006","0.0-6.0-1.39","test",".","",".","",""
"null","<div style=""color:white; font-size:60px;"">+</div>","null","html-keyboard-response","91","140018","0.0-6.0-0.40","fixation","","","","",""
"1463","Stimuli/Hangul_F1.bmp","188","image-keyboard-response","92","141484","0.0-6.0-1.40","test",".","",",","",""
"null","<div style=""color:white; font-size:60px;"">+</div>","null","html-keyboard-response","93","142489","0.0-6.0-0.41","fixation","","","","",""
"1206","Stimuli/Hangul_F7.bmp","188","image-keyboard-response","94","143698","0.0-6.0-1.41","test",".","",",","",""
"null","<div style=""color:white; font-size:60px;"">+</div>","null","html-keyboard-response","95","144708","0.0-6.0-0.42","fixation","","","","",""
"854","Stimuli/Hangul_M11.bmp","188","image-keyboard-response","96","145564","0.0-6.0-1.42","test",",","",",","",""
"null","<div style=""color:white; font-size:60px;"">+</div>","null","html-keyboard-response","97","146569","0.0-6.0-0.43","fixation","","","","",""
"912","Stimuli/Hangul_F17.bmp","188","image-keyboard-response","98","147486","0.0-6.0-1.43","test",".","",",","",""
"null","<div style=""color:white; font-size:60px;"">+</div>","null","html-keyboard-response","99","148499","0.0-6.0-0.44","fixation","","","","",""
"847","Stimuli/Hangul_F4.bmp","188","image-keyboard-response","100","149351","0.0-6.0-1.44","test",".","",",","",""
"null","<div style=""color:white; font-size:60px;"">+</div>","null","html-keyboard-response","101","150358","0.0-6.0-0.45","fixation","","","","",""
"871","Stimuli/Hangul_M23.bmp","188","image-keyboard-response","102","151232","0.0-6.0-1.45","test",",","",",","",""
"null","<div style=""color:white; font-size:60px;"">+</div>","null","html-keyboard-response","103","152239","0.0-6.0-0.46","fixation","","","","",""
"679","Stimuli/Hangul_F2.bmp","190","image-keyboard-response","104","152921","0.0-6.0-1.46","test",".","",".","",""
"null","<div style=""color:white; font-size:60px;"">+</div>","null","html-keyboard-response","105","153938","0.0-6.0-0.47","fixation","","","","",""
"1006","Stimuli/Hangul_F22.bmp","188","image-keyboard-response","106","154949","0.0-6.0-1.47","test",".","",",","",""
"null","<div style=""color:white; font-size:60px;"">+</div>","null","html-keyboard-response","107","155958","0.0-6.0-0.48","fixation","","","","",""
"774","Stimuli/Hangul_F3.bmp","188","image-keyboard-response","108","156737","0.0-6.0-1.48","test",".","",",","",""
"null","<div style=""color:white; font-size:60px;"">+</div>","null","html-keyboard-response","109","157758","0.0-6.0-0.49","fixation","","","","",""
"650","Stimuli/Hangul_M7.bmp","190","image-keyboard-response","110","158413","0.0-6.0-1.49","test",",","",".","",""
"329122","<p style=""color:white;"">Good job, block 1 complete! Please take a moment to rest.</p> <p style=""color:white;"">When you are ready to continue with block 2 of 4, press the space bar.</p> ","32","html-keyboard-response","111","487538","0.0-7.0","","","","","",""
"null","<div style=""color:white; font-size:60px;"">+</div>","null","html-keyboard-response","112","490568","0.0-8.0-0.0","fixation","","","","",""
"1259","Stimuli/Hangul_M42.bmp","190","image-keyboard-response","113","491832","0.0-8.0-1.0","test",",","",".","",""
"null","<div style=""color:white; font-size:60px;"">+</div>","null","html-keyboard-response","114","492848","0.0-8.0-0.1","fixation","","","","",""
"856","Stimuli/Hangul_M46.bmp","188","image-keyboard-response","115","493706","0.0-8.0-1.1","test",",","",",","",""
"null","<div style=""color:white; font-size:60px;"">+</div>","null","html-keyboard-response","116","494718","0.0-8.0-0.2","fixation","","","","",""
"986","Stimuli/Hangul_M36.bmp","188","image-keyboard-response","117","495707","0.0-8.0-1.2","test",",","",",","",""
"null","<div style=""color:white; font-size:60px;"">+</div>","null","html-keyboard-response","118","496714","0.0-8.0-0.3","fixation","","","","",""
"854","Stimuli/Hangul_M32.bmp","188","image-keyboard-response","119","497572","0.0-8.0-1.3","test",",","",",","",""
"null","<div style=""color:white; font-size:60px;"">+</div>","null","html-keyboard-response","120","498588","0.0-8.0-0.4","fixation","","","","",""
"1070","Stimuli/Hangul_F37.bmp","188","image-keyboard-response","121","499660","0.0-8.0-1.4","test",".","",",","",""
"null","<div style=""color:white; font-size:60px;"">+</div>","null","html-keyboard-response","122","500678","0.0-8.0-0.5","fixation","","","","",""
"1023","Stimuli/Hangul_F48.bmp","188","image-keyboard-response","123","501703","0.0-8.0-1.5","test",".","",",","",""
"null","<div style=""color:white; font-size:60px;"">+</div>","null","html-keyboard-response","124","502718","0.0-8.0-0.6","fixation","","","","",""
"1081","Stimuli/Hangul_M40.bmp","190","image-keyboard-response","125","503801","0.0-8.0-1.6","test",",","",".","",""
"null","<div style=""color:white; font-size:60px;"">+</div>","null","html-keyboard-response","126","504808","0.0-8.0-0.7","fixation","","","","",""
"2450","Stimuli/Hangul_M41.bmp","190","image-keyboard-response","127","507260","0.0-8.0-1.7","test",",","",".","",""
"null","<div style=""color:white; font-size:60px;"">+</div>","null","html-keyboard-response","128","508267","0.0-8.0-0.8","fixation","","","","",""
"1080","Stimuli/Hangul_M26.bmp","190","image-keyboard-response","129","509350","0.0-8.0-1.8","test",",","",".","",""
"null","<div style=""color:white; font-size:60px;"">+</div>","null","html-keyboard-response","130","510368","0.0-8.0-0.9","fixation","","","","",""
"942","Stimuli/Hangul_F36.bmp","188","image-keyboard-response","131","511313","0.0-8.0-1.9","test",".","",",","",""
"null","<div style=""color:white; font-size:60px;"">+</div>","null","html-keyboard-response","132","512328","0.0-8.0-0.10","fixation","","","","",""
"1408","Stimuli/Hangul_F47.bmp","188","image-keyboard-response","133","513740","0.0-8.0-1.10","test",".","",",","",""
"null","<div style=""color:white; font-size:60px;"">+</div>","null","html-keyboard-response","134","514757","0.0-8.0-0.11","fixation","","","","",""
"860","Stimuli/Hangul_F32.bmp","188","image-keyboard-response","135","515618","0.0-8.0-1.11","test",".","",",","",""
"null","<div style=""color:white; font-size:60px;"">+</div>","null","html-keyboard-response","136","516628","0.0-8.0-0.12","fixation","","","","",""
"841","Stimuli/Hangul_M29.bmp","188","image-keyboard-response","137","517471","0.0-8.0-1.12","test",",","",",","",""
"null","<div style=""color:white; font-size:60px;"">+</div>","null","html-keyboard-response","138","518488","0.0-8.0-0.13","fixation","","","","",""
"2798","Stimuli/Hangul_F44.bmp","188","image-keyboard-response","139","521290","0.0-8.0-1.13","test",".","",",","",""
"null","<div style=""color:white; font-size:60px;"">+</div>","null","html-keyboard-response","140","522308","0.0-8.0-0.14","fixation","","","","",""
"943","Stimuli/Hangul_M35.bmp","188","image-keyboard-response","141","523255","0.0-8.0-1.14","test",",","",",","",""
"null","<div style=""color:white; font-size:60px;"">+</div>","null","html-keyboard-response","142","524259","0.0-8.0-0.15","fixation","","","","",""
"900","Stimuli/Hangul_F39.bmp","188","image-keyboard-response","143","525169","0.0-8.0-1.15","test",".","",",","",""
"null","<div style=""color:white; font-size:60px;"">+</div>","null","html-keyboard-response","144","526179","0.0-8.0-0.16","fixation","","","","",""
"1116","Stimuli/Hangul_M45.bmp","188","image-keyboard-response","145","527300","0.0-8.0-1.16","test",",","",",","",""
"null","<div style=""color:white; font-size:60px;"">+</div>","null","html-keyboard-response","146","528302","0.0-8.0-0.17","fixation","","","","",""
"2520","Stimuli/Hangul_F41.bmp","190","image-keyboard-response","147","530825","0.0-8.0-1.17","test",".","",".","",""
"null","<div style=""color:white; font-size:60px;"">+</div>","null","html-keyboard-response","148","531827","0.0-8.0-0.18","fixation","","","","",""
"1162","Stimuli/Hangul_F29.bmp","188","image-keyboard-response","149","532990","0.0-8.0-1.18","test",".","",",","",""
"null","<div style=""color:white; font-size:60px;"">+</div>","null","html-keyboard-response","150","533997","0.0-8.0-0.19","fixation","","","","",""
"2397","Stimuli/Hangul_F38.bmp","188","image-keyboard-response","151","536398","0.0-8.0-1.19","test",".","",",","",""
"null","<div style=""color:white; font-size:60px;"">+</div>","null","html-keyboard-response","152","537407","0.0-8.0-0.20","fixation","","","","",""
"849","Stimuli/Hangul_F49.bmp","188","image-keyboard-response","153","538260","0.0-8.0-1.20","test",".","",",","",""
"null","<div style=""color:white; font-size:60px;"">+</div>","null","html-keyboard-response","154","539267","0.0-8.0-0.21","fixation","","","","",""
"946","Stimuli/Hangul_F34.bmp","188","image-keyboard-response","155","540218","0.0-8.0-1.21","test",".","",",","",""
"null","<div style=""color:white; font-size:60px;"">+</div>","null","html-keyboard-response","156","541227","0.0-8.0-0.22","fixation","","","","",""
"1641","Stimuli/Hangul_F46.bmp","188","image-keyboard-response","157","542872","0.0-8.0-1.22","test",".","",",","",""
"null","<div style=""color:white; font-size:60px;"">+</div>","null","html-keyboard-response","158","543878","0.0-8.0-0.23","fixation","","","","",""
"1222","Stimuli/Hangul_M44.bmp","190","image-keyboard-response","159","545103","0.0-8.0-1.23","test",",","",".","",""
"null","<div style=""color:white; font-size:60px;"">+</div>","null","html-keyboard-response","160","546107","0.0-8.0-0.24","fixation","","","","",""
"688","Stimuli/Hangul_F33.bmp","188","image-keyboard-response","161","546800","0.0-8.0-1.24","test",".","",",","",""
"null","<div style=""color:white; font-size:60px;"">+</div>","null","html-keyboard-response","162","547807","0.0-8.0-0.25","fixation","","","","",""
"815","Stimuli/Hangul_M27.bmp","190","image-keyboard-response","163","548625","0.0-8.0-1.25","test",",","",".","",""
"null","<div style=""color:white; font-size:60px;"">+</div>","null","html-keyboard-response","164","549627","0.0-8.0-0.26","fixation","","","","",""
"600","Stimuli/Hangul_M47.bmp","190","image-keyboard-response","165","550231","0.0-8.0-1.26","test",",","",".","",""
"null","<div style=""color:white; font-size:60px;"">+</div>","null","html-keyboard-response","166","551247","0.0-8.0-0.27","fixation","","","","",""
"677","Stimuli/Hangul_F43.bmp","190","image-keyboard-response","167","551928","0.0-8.0-1.27","test",".","",".","",""
"null","<div style=""color:white; font-size:60px;"">+</div>","null","html-keyboard-response","168","552938","0.0-8.0-0.28","fixation","","","","",""
"727","Stimuli/Hangul_M48.bmp","188","image-keyboard-response","169","553669","0.0-8.0-1.28","test",",","",",","",""
"null","<div style=""color:white; font-size:60px;"">+</div>","null","html-keyboard-response","170","554677","0.0-8.0-0.29","fixation","","","","",""
"688","Stimuli/Hangul_M28.bmp","188","image-keyboard-response","171","555368","0.0-8.0-1.29","test",",","",",","",""
"null","<div style=""color:white; font-size:60px;"">+</div>","null","html-keyboard-response","172","556378","0.0-8.0-0.30","fixation","","","","",""
"724","Stimuli/Hangul_F27.bmp","188","image-keyboard-response","173","557104","0.0-8.0-1.30","test",".","",",","",""
"null","<div style=""color:white; font-size:60px;"">+</div>","null","html-keyboard-response","174","558117","0.0-8.0-0.31","fixation","","","","",""
"620","Stimuli/Hangul_F35.bmp","188","image-keyboard-response","175","558740","0.0-8.0-1.31","test",".","",",","",""
"null","<div style=""color:white; font-size:60px;"">+</div>","null","html-keyboard-response","176","559747","0.0-8.0-0.32","fixation","","","","",""
"747","Stimuli/Hangul_M39.bmp","188","image-keyboard-response","177","560498","0.0-8.0-1.32","test",",","",",","",""
"null","<div style=""color:white; font-size:60px;"">+</div>","null","html-keyboard-response","178","561508","0.0-8.0-0.33","fixation","","","","",""
"753","Stimuli/Hangul_F28.bmp","188","image-keyboard-response","179","562265","0.0-8.0-1.33","test",".","",",","",""
"null","<div style=""color:white; font-size:60px;"">+</div>","null","html-keyboard-response","180","563278","0.0-8.0-0.34","fixation","","","","",""
"678","Stimuli/Hangul_M33.bmp","190","image-keyboard-response","181","563959","0.0-8.0-1.34","test",",","",".","",""
"null","<div style=""color:white; font-size:60px;"">+</div>","null","html-keyboard-response","182","564977","0.0-8.0-0.35","fixation","","","","",""
"1070","Stimuli/Hangul_M25.bmp","188","image-keyboard-response","183","566050","0.0-8.0-1.35","test",",","",",","",""
"null","<div style=""color:white; font-size:60px;"">+</div>","null","html-keyboard-response","184","567057","0.0-8.0-0.36","fixation","","","","",""
"653","Stimuli/Hangul_F40.bmp","190","image-keyboard-response","185","567714","0.0-8.0-1.36","test",".","",".","",""
"null","<div style=""color:white; font-size:60px;"">+</div>","null","html-keyboard-response","186","568717","0.0-8.0-0.37","fixation","","","","",""
"566","Stimuli/Hangul_F25.bmp","190","image-keyboard-response","187","569287","0.0-8.0-1.37","test",".","",".","",""
"null","<div style=""color:white; font-size:60px;"">+</div>","null","html-keyboard-response","188","570297","0.0-8.0-0.38","fixation","","","","",""
"660","Stimuli/Hangul_M34.bmp","188","image-keyboard-response","189","570960","0.0-8.0-1.38","test",",","",",","",""
"null","<div style=""color:white; font-size:60px;"">+</div>","null","html-keyboard-response","190","571977","0.0-8.0-0.39","fixation","","","","",""
"537","Stimuli/Hangul_F26.bmp","190","image-keyboard-response","191","572518","0.0-8.0-1.39","test",".","",".","",""
"null","<div style=""color:white; font-size:60px;"">+</div>","null","html-keyboard-response","192","573538","0.0-8.0-0.40","fixation","","","","",""
"718","Stimuli/Hangul_M37.bmp","190","image-keyboard-response","193","574259","0.0-8.0-1.40","test",",","",".","",""
"null","<div style=""color:white; font-size:60px;"">+</div>","null","html-keyboard-response","194","575277","0.0-8.0-0.41","fixation","","","","",""
"824","Stimuli/Hangul_F45.bmp","188","image-keyboard-response","195","576105","0.0-8.0-1.41","test",".","",",","",""
"null","<div style=""color:white; font-size:60px;"">+</div>","null","html-keyboard-response","196","577117","0.0-8.0-0.42","fixation","","","","",""
"789","Stimuli/Hangul_M38.bmp","188","image-keyboard-response","197","577910","0.0-8.0-1.42","test",",","",",","",""
"null","<div style=""color:white; font-size:60px;"">+</div>","null","html-keyboard-response","198","578917","0.0-8.0-0.43","fixation","","","","",""
"2377","Stimuli/Hangul_F42.bmp","188","image-keyboard-response","199","581297","0.0-8.0-1.43","test",".","",",","",""
"null","<div style=""color:white; font-size:60px;"">+</div>","null","html-keyboard-response","200","582309","0.0-8.0-0.44","fixation","","","","",""
"817","Stimuli/Hangul_M43.bmp","188","image-keyboard-response","201","583127","0.0-8.0-1.44","test",",","",",","",""
"null","<div style=""color:white; font-size:60px;"">+</div>","null","html-keyboard-response","202","584138","0.0-8.0-0.45","fixation","","","","",""
"1240","Stimuli/Hangul_F31.bmp","188","image-keyboard-response","203","585382","0.0-8.0-1.45","test",".","",",","",""
"null","<div style=""color:white; font-size:60px;"">+</div>","null","html-keyboard-response","204","586397","0.0-8.0-0.46","fixation","","","","",""
"1195","Stimuli/Hangul_M30.bmp","188","image-keyboard-response","205","587593","0.0-8.0-1.46","test",",","",",","",""
"null","<div style=""color:white; font-size:60px;"">+</div>","null","html-keyboard-response","206","588595","0.0-8.0-0.47","fixation","","","","",""
"641","Stimuli/Hangul_F30.bmp","188","image-keyboard-response","207","589238","0.0-8.0-1.47","test",".","",",","",""
"null","<div style=""color:white; font-size:60px;"">+</div>","null","html-keyboard-response","208","590257","0.0-8.0-0.48","fixation","","","","",""
"749","Stimuli/Hangul_M31.bmp","190","image-keyboard-response","209","591012","0.0-8.0-1.48","test",",","",".","",""
"null","<div style=""color:white; font-size:60px;"">+</div>","null","html-keyboard-response","210","592017","0.0-8.0-0.49","fixation","","","","",""
"748","Stimuli/Hangul_M49.bmp","188","image-keyboard-response","211","592769","0.0-8.0-1.49","test",",","",",","",""
"1843","<p style=""color:white;"">Half way there! Please take a moment to rest.</p> <p style=""color:white;"">When you are ready to continue with block 3 of 4, press the space bar.</p> ","32","html-keyboard-response","212","594617","0.0-9.0","","","","","",""
"null","<div style=""color:white; font-size:60px;"">+</div>","null","html-keyboard-response","213","597647","0.0-10.0-0.0","fixation","","","","",""
"1348","Stimuli/Hangul_F74.bmp","190","image-keyboard-response","214","598999","0.0-10.0-1.0","test",".","",".","",""
"null","<div style=""color:white; font-size:60px;"">+</div>","null","html-keyboard-response","215","600018","0.0-10.0-0.1","fixation","","","","",""
"814","Stimuli/Hangul_M72.bmp","190","image-keyboard-response","216","600836","0.0-10.0-1.1","test",",","",".","",""
"null","<div style=""color:white; font-size:60px;"">+</div>","null","html-keyboard-response","217","601857","0.0-10.0-0.2","fixation","","","","",""
"1072","Stimuli/Hangul_F56.bmp","188","image-keyboard-response","218","602933","0.0-10.0-1.2","test",".","",",","",""
"null","<div style=""color:white; font-size:60px;"">+</div>","null","html-keyboard-response","219","603937","0.0-10.0-0.3","fixation","","","","",""
"1202","Stimuli/Hangul_M62.bmp","188","image-keyboard-response","220","605142","0.0-10.0-1.3","test",",","",",","",""
"null","<div style=""color:white; font-size:60px;"">+</div>","null","html-keyboard-response","221","606147","0.0-10.0-0.4","fixation","","","","",""
"822","Stimuli/Hangul_F62.bmp","188","image-keyboard-response","222","606971","0.0-10.0-1.4","test",".","",",","",""
"null","<div style=""color:white; font-size:60px;"">+</div>","null","html-keyboard-response","223","607978","0.0-10.0-0.5","fixation","","","","",""
"718","Stimuli/Hangul_F58.bmp","188","image-keyboard-response","224","608700","0.0-10.0-1.5","test",".","",",","",""
"null","<div style=""color:white; font-size:60px;"">+</div>","null","html-keyboard-response","225","609718","0.0-10.0-0.6","fixation","","","","",""
"805","Stimuli/Hangul_M73.bmp","190","image-keyboard-response","226","610527","0.0-10.0-1.6","test",",","",".","",""
"null","<div style=""color:white; font-size:60px;"">+</div>","null","html-keyboard-response","227","611537","0.0-10.0-0.7","fixation","","","","",""
"2222","Stimuli/Hangul_F68.bmp","190","image-keyboard-response","228","613763","0.0-10.0-1.7","test",".","",".","",""
"null","<div style=""color:white; font-size:60px;"">+</div>","null","html-keyboard-response","229","614768","0.0-10.0-0.8","fixation","","","","",""
"710","Stimuli/Hangul_F51.bmp","188","image-keyboard-response","230","615480","0.0-10.0-1.8","test",".","",",","",""
"null","<div style=""color:white; font-size:60px;"">+</div>","null","html-keyboard-response","231","616498","0.0-10.0-0.9","fixation","","","","",""
"793","Stimuli/Hangul_M74.bmp","190","image-keyboard-response","232","617293","0.0-10.0-1.9","test",",","",".","",""
"null","<div style=""color:white; font-size:60px;"">+</div>","null","html-keyboard-response","233","618298","0.0-10.0-0.10","fixation","","","","",""
"790","Stimuli/Hangul_F54.bmp","190","image-keyboard-response","234","619091","0.0-10.0-1.10","test",".","",".","",""
"null","<div style=""color:white; font-size:60px;"">+</div>","null","html-keyboard-response","235","620107","0.0-10.0-0.11","fixation","","","","",""
"654","Stimuli/Hangul_M63.bmp","190","image-keyboard-response","236","620764","0.0-10.0-1.11","test",",","",".","",""
"null","<div style=""color:white; font-size:60px;"">+</div>","null","html-keyboard-response","237","621767","0.0-10.0-0.12","fixation","","","","",""
"698","Stimuli/Hangul_F53.bmp","188","image-keyboard-response","238","622469","0.0-10.0-1.12","test",".","",",","",""
"null","<div style=""color:white; font-size:60px;"">+</div>","null","html-keyboard-response","239","623478","0.0-10.0-0.13","fixation","","","","",""
"723","Stimuli/Hangul_F50.bmp","188","image-keyboard-response","240","624205","0.0-10.0-1.13","test",".","",",","",""
"null","<div style=""color:white; font-size:60px;"">+</div>","null","html-keyboard-response","241","625208","0.0-10.0-0.14","fixation","","","","",""
"566","Stimuli/Hangul_M55.bmp","190","image-keyboard-response","242","625777","0.0-10.0-1.14","test",",","",".","",""
"null","<div style=""color:white; font-size:60px;"">+</div>","null","html-keyboard-response","243","626797","0.0-10.0-0.15","fixation","","","","",""
"643","Stimuli/Hangul_M65.bmp","190","image-keyboard-response","244","627443","0.0-10.0-1.15","test",",","",".","",""
"null","<div style=""color:white; font-size:60px;"">+</div>","null","html-keyboard-response","245","628457","0.0-10.0-0.16","fixation","","","","",""
"570","Stimuli/Hangul_F73.bmp","190","image-keyboard-response","246","629029","0.0-10.0-1.16","test",".","",".","",""
"null","<div style=""color:white; font-size:60px;"">+</div>","null","html-keyboard-response","247","630037","0.0-10.0-0.17","fixation","","","","",""
"701","Stimuli/Hangul_F64.bmp","188","image-keyboard-response","248","630743","0.0-10.0-1.17","test",".","",",","",""
"null","<div style=""color:white; font-size:60px;"">+</div>","null","html-keyboard-response","249","631756","0.0-10.0-0.18","fixation","","","","",""
"716","Stimuli/Hangul_M54.bmp","188","image-keyboard-response","250","632476","0.0-10.0-1.18","test",",","",",","",""
"null","<div style=""color:white; font-size:60px;"">+</div>","null","html-keyboard-response","251","633498","0.0-10.0-0.19","fixation","","","","",""
"738","Stimuli/Hangul_F67.bmp","190","image-keyboard-response","252","634240","0.0-10.0-1.19","test",".","",".","",""
"null","<div style=""color:white; font-size:60px;"">+</div>","null","html-keyboard-response","253","635257","0.0-10.0-0.20","fixation","","","","",""
"639","Stimuli/Hangul_M58.bmp","190","image-keyboard-response","254","635899","0.0-10.0-1.20","test",",","",".","",""
"null","<div style=""color:white; font-size:60px;"">+</div>","null","html-keyboard-response","255","636918","0.0-10.0-0.21","fixation","","","","",""
"1020","Stimuli/Hangul_F70.bmp","188","image-keyboard-response","256","637942","0.0-10.0-1.21","test",".","",",","",""
"null","<div style=""color:white; font-size:60px;"">+</div>","null","html-keyboard-response","257","638958","0.0-10.0-0.22","fixation","","","","",""
"599","Stimuli/Hangul_F66.bmp","190","image-keyboard-response","258","639560","0.0-10.0-1.22","test",".","",".","",""
"null","<div style=""color:white; font-size:60px;"">+</div>","null","html-keyboard-response","259","640577","0.0-10.0-0.23","fixation","","","","",""
"535","Stimuli/Hangul_M57.bmp","190","image-keyboard-response","260","641115","0.0-10.0-1.23","test",",","",".","",""
"null","<div style=""color:white; font-size:60px;"">+</div>","null","html-keyboard-response","261","642117","0.0-10.0-0.24","fixation","","","","",""
"621","Stimuli/Hangul_M67.bmp","188","image-keyboard-response","262","642740","0.0-10.0-1.24","test",",","",",","",""
"null","<div style=""color:white; font-size:60px;"">+</div>","null","html-keyboard-response","263","643757","0.0-10.0-0.25","fixation","","","","",""
"930","Stimuli/Hangul_M60.bmp","188","image-keyboard-response","264","644691","0.0-10.0-1.25","test",",","",",","",""
"null","<div style=""color:white; font-size:60px;"">+</div>","null","html-keyboard-response","265","645708","0.0-10.0-0.26","fixation","","","","",""
"660","Stimuli/Hangul_F72.bmp","190","image-keyboard-response","266","646372","0.0-10.0-1.26","test",".","",".","",""
"null","<div style=""color:white; font-size:60px;"">+</div>","null","html-keyboard-response","267","647377","0.0-10.0-0.27","fixation","","","","",""
"617","Stimuli/Hangul_F52.bmp","188","image-keyboard-response","268","647996","0.0-10.0-1.27","test",".","",",","",""
"null","<div style=""color:white; font-size:60px;"">+</div>","null","html-keyboard-response","269","648998","0.0-10.0-0.28","fixation","","","","",""
"605","Stimuli/Hangul_F65.bmp","188","image-keyboard-response","270","649605","0.0-10.0-1.28","test",".","",",","",""
"null","<div style=""color:white; font-size:60px;"">+</div>","null","html-keyboard-response","271","650627","0.0-10.0-0.29","fixation","","","","",""
"566","Stimuli/Hangul_M52.bmp","190","image-keyboard-response","272","651195","0.0-10.0-1.29","test",",","",".","",""
"null","<div style=""color:white; font-size:60px;"">+</div>","null","html-keyboard-response","273","652208","0.0-10.0-0.30","fixation","","","","",""
"643","Stimuli/Hangul_F57.bmp","188","image-keyboard-response","274","652853","0.0-10.0-1.30","test",".","",",","",""
"null","<div style=""color:white; font-size:60px;"">+</div>","null","html-keyboard-response","275","653857","0.0-10.0-0.31","fixation","","","","",""
"652","Stimuli/Hangul_F55.bmp","188","image-keyboard-response","276","654513","0.0-10.0-1.31","test",".","",",","",""
"null","<div style=""color:white; font-size:60px;"">+</div>","null","html-keyboard-response","277","655517","0.0-10.0-0.32","fixation","","","","",""
"820","Stimuli/Hangul_M71.bmp","190","image-keyboard-response","278","656341","0.0-10.0-1.32","test",",","",".","",""
"null","<div style=""color:white; font-size:60px;"">+</div>","null","html-keyboard-response","279","657358","0.0-10.0-0.33","fixation","","","","",""
"1896","Stimuli/Hangul_M50.bmp","188","image-keyboard-response","280","659257","0.0-10.0-1.33","test",",","",",","",""
"null","<div style=""color:white; font-size:60px;"">+</div>","null","html-keyboard-response","281","660277","0.0-10.0-0.34","fixation","","","","",""
"1817","Stimuli/Hangul_M70.bmp","188","image-keyboard-response","282","662097","0.0-10.0-1.34","test",",","",",","",""
"null","<div style=""color:white; font-size:60px;"">+</div>","null","html-keyboard-response","283","663107","0.0-10.0-0.35","fixation","","","","",""
"966","Stimuli/Hangul_M66.bmp","188","image-keyboard-response","284","664077","0.0-10.0-1.35","test",",","",",","",""
"null","<div style=""color:white; font-size:60px;"">+</div>","null","html-keyboard-response","285","665087","0.0-10.0-0.36","fixation","","","","",""
"521","Stimuli/Hangul_F59.bmp","188","image-keyboard-response","286","665608","0.0-10.0-1.36","test",".","",",","",""
"null","<div style=""color:white; font-size:60px;"">+</div>","null","html-keyboard-response","287","666628","0.0-10.0-0.37","fixation","","","","",""
"799","Stimuli/Hangul_F61.bmp","188","image-keyboard-response","288","667431","0.0-10.0-1.37","test",".","",",","",""
"null","<div style=""color:white; font-size:60px;"">+</div>","null","html-keyboard-response","289","668447","0.0-10.0-0.38","fixation","","","","",""
"638","Stimuli/Hangul_F60.bmp","188","image-keyboard-response","290","669088","0.0-10.0-1.38","test",".","",",","",""
"null","<div style=""color:white; font-size:60px;"">+</div>","null","html-keyboard-response","291","670107","0.0-10.0-0.39","fixation","","","","",""
"860","Stimuli/Hangul_M56.bmp","188","image-keyboard-response","292","670971","0.0-10.0-1.39","test",",","",",","",""
"null","<div style=""color:white; font-size:60px;"">+</div>","null","html-keyboard-response","293","671986","0.0-10.0-0.40","fixation","","","","",""
"740","Stimuli/Hangul_F71.bmp","190","image-keyboard-response","294","672729","0.0-10.0-1.40","test",".","",".","",""
"null","<div style=""color:white; font-size:60px;"">+</div>","null","html-keyboard-response","295","673737","0.0-10.0-0.41","fixation","","","","",""
"751","Stimuli/Hangul_F63.bmp","190","image-keyboard-response","296","674492","0.0-10.0-1.41","test",".","",".","",""
"null","<div style=""color:white; font-size:60px;"">+</div>","null","html-keyboard-response","297","675507","0.0-10.0-0.42","fixation","","","","",""
"877","Stimuli/Hangul_M51.bmp","190","image-keyboard-response","298","676387","0.0-10.0-1.42","test",",","",".","",""
"null","<div style=""color:white; font-size:60px;"">+</div>","null","html-keyboard-response","299","677408","0.0-10.0-0.43","fixation","","","","",""
"996","Stimuli/Hangul_M61.bmp","190","image-keyboard-response","300","678408","0.0-10.0-1.43","test",",","",".","",""
"null","<div style=""color:white; font-size:60px;"">+</div>","null","html-keyboard-response","301","679428","0.0-10.0-0.44","fixation","","","","",""
"800","Stimuli/Hangul_M59.bmp","188","image-keyboard-response","302","680230","0.0-10.0-1.44","test",",","",",","",""
"null","<div style=""color:white; font-size:60px;"">+</div>","null","html-keyboard-response","303","681247","0.0-10.0-0.45","fixation","","","","",""
"645","Stimuli/Hangul_F69.bmp","188","image-keyboard-response","304","681896","0.0-10.0-1.45","test",".","",",","",""
"null","<div style=""color:white; font-size:60px;"">+</div>","null","html-keyboard-response","305","682907","0.0-10.0-0.46","fixation","","","","",""
"754","Stimuli/Hangul_M68.bmp","190","image-keyboard-response","306","683664","0.0-10.0-1.46","test",",","",".","",""
"null","<div style=""color:white; font-size:60px;"">+</div>","null","html-keyboard-response","307","684677","0.0-10.0-0.47","fixation","","","","",""
"597","Stimuli/Hangul_M69.bmp","190","image-keyboard-response","308","685276","0.0-10.0-1.47","test",",","",".","",""
"null","<div style=""color:white; font-size:60px;"">+</div>","null","html-keyboard-response","309","686297","0.0-10.0-0.48","fixation","","","","",""
"1263","Stimuli/Hangul_M53.bmp","188","image-keyboard-response","310","687563","0.0-10.0-1.48","test",",","",",","",""
"null","<div style=""color:white; font-size:60px;"">+</div>","null","html-keyboard-response","311","688578","0.0-10.0-0.49","fixation","","","","",""
"915","Stimuli/Hangul_M64.bmp","188","image-keyboard-response","312","689497","0.0-10.0-1.49","test",",","",",","",""
"10617","<p style=""color:white;"">One more block to go! Please take a moment to rest.</p> <p style=""color:white;"">When you are ready to continue with block 4 of 4, press the space bar.</p> ","32","html-keyboard-response","313","700116","0.0-11.0","","","","","",""
"null","<div style=""color:white; font-size:60px;"">+</div>","null","html-keyboard-response","314","703157","0.0-12.0-0.0","fixation","","","","",""
"1072","Stimuli/Hangul_F98.bmp","188","image-keyboard-response","315","704233","0.0-12.0-1.0","test",".","",",","",""
"null","<div style=""color:white; font-size:60px;"">+</div>","null","html-keyboard-response","316","705237","0.0-12.0-0.1","fixation","","","","",""
"811","Stimuli/Hangul_F94.bmp","188","image-keyboard-response","317","706050","0.0-12.0-1.1","test",".","",",","",""
"null","<div style=""color:white; font-size:60px;"">+</div>","null","html-keyboard-response","318","707057","0.0-12.0-0.2","fixation","","","","",""
"837","Stimuli/Hangul_M78.bmp","190","image-keyboard-response","319","707898","0.0-12.0-1.2","test",",","",".","",""
"null","<div style=""color:white; font-size:60px;"">+</div>","null","html-keyboard-response","320","708901","0.0-12.0-0.3","fixation","","","","",""
"628","Stimuli/Hangul_M83.bmp","190","image-keyboard-response","321","709531","0.0-12.0-1.3","test",",","",".","",""
"null","<div style=""color:white; font-size:60px;"">+</div>","null","html-keyboard-response","322","710547","0.0-12.0-0.4","fixation","","","","",""
"550","Stimuli/Hangul_M77.bmp","190","image-keyboard-response","323","711100","0.0-12.0-1.4","test",",","",".","",""
"null","<div style=""color:white; font-size:60px;"">+</div>","null","html-keyboard-response","324","712108","0.0-12.0-0.5","fixation","","","","",""
"589","Stimuli/Hangul_F78.bmp","188","image-keyboard-response","325","712699","0.0-12.0-1.5","test",".","",",","",""
"null","<div style=""color:white; font-size:60px;"">+</div>","null","html-keyboard-response","326","713708","0.0-12.0-0.6","fixation","","","","",""
"705","Stimuli/Hangul_M89.bmp","190","image-keyboard-response","327","714414","0.0-12.0-1.6","test",",","",".","",""
"null","<div style=""color:white; font-size:60px;"">+</div>","null","html-keyboard-response","328","715427","0.0-12.0-0.7","fixation","","","","",""
"632","Stimuli/Hangul_M76.bmp","190","image-keyboard-response","329","716063","0.0-12.0-1.7","test",",","",".","",""
"null","<div style=""color:white; font-size:60px;"">+</div>","null","html-keyboard-response","330","717078","0.0-12.0-0.8","fixation","","","","",""
"782","Stimuli/Hangul_M91.bmp","188","image-keyboard-response","331","717862","0.0-12.0-1.8","test",",","",",","",""
"null","<div style=""color:white; font-size:60px;"">+</div>","null","html-keyboard-response","332","718878","0.0-12.0-0.9","fixation","","","","",""
"561","Stimuli/Hangul_M93.bmp","190","image-keyboard-response","333","719440","0.0-12.0-1.9","test",",","",".","",""
"null","<div style=""color:white; font-size:60px;"">+</div>","null","html-keyboard-response","334","720457","0.0-12.0-0.10","fixation","","","","",""
"697","Stimuli/Hangul_M85.bmp","188","image-keyboard-response","335","721156","0.0-12.0-1.10","test",",","",",","",""
"null","<div style=""color:white; font-size:60px;"">+</div>","null","html-keyboard-response","336","722177","0.0-12.0-0.11","fixation","","","","",""
"875","Stimuli/Hangul_F77.bmp","190","image-keyboard-response","337","723056","0.0-12.0-1.11","test",".","",".","",""
"null","<div style=""color:white; font-size:60px;"">+</div>","null","html-keyboard-response","338","724057","0.0-12.0-0.12","fixation","","","","",""
"671","Stimuli/Hangul_M94.bmp","190","image-keyboard-response","339","724731","0.0-12.0-1.12","test",",","",".","",""
"null","<div style=""color:white; font-size:60px;"">+</div>","null","html-keyboard-response","340","725747","0.0-12.0-0.13","fixation","","","","",""
"835","Stimuli/Hangul_F79.bmp","188","image-keyboard-response","341","726585","0.0-12.0-1.13","test",".","",",","",""
"null","<div style=""color:white; font-size:60px;"">+</div>","null","html-keyboard-response","342","727587","0.0-12.0-0.14","fixation","","","","",""
"782","Stimuli/Hangul_M86.bmp","190","image-keyboard-response","343","728375","0.0-12.0-1.14","test",",","",".","",""
"null","<div style=""color:white; font-size:60px;"">+</div>","null","html-keyboard-response","344","729397","0.0-12.0-0.15","fixation","","","","",""
"783","Stimuli/Hangul_F88.bmp","188","image-keyboard-response","345","730186","0.0-12.0-1.15","test",".","",",","",""
"null","<div style=""color:white; font-size:60px;"">+</div>","null","html-keyboard-response","346","731197","0.0-12.0-0.16","fixation","","","","",""
"1017","Stimuli/Hangul_F93.bmp","188","image-keyboard-response","347","732215","0.0-12.0-1.16","test",".","",",","",""
"null","<div style=""color:white; font-size:60px;"">+</div>","null","html-keyboard-response","348","733217","0.0-12.0-0.17","fixation","","","","",""
"732","Stimuli/Hangul_M92.bmp","188","image-keyboard-response","349","733952","0.0-12.0-1.17","test",",","",",","",""
"null","<div style=""color:white; font-size:60px;"">+</div>","null","html-keyboard-response","350","734957","0.0-12.0-0.18","fixation","","","","",""
"663","Stimuli/Hangul_F90.bmp","188","image-keyboard-response","351","735624","0.0-12.0-1.18","test",".","",",","",""
"null","<div style=""color:white; font-size:60px;"">+</div>","null","html-keyboard-response","352","736627","0.0-12.0-0.19","fixation","","","","",""
"666","Stimuli/Hangul_M98.bmp","190","image-keyboard-response","353","737297","0.0-12.0-1.19","test",",","",".","",""
"null","<div style=""color:white; font-size:60px;"">+</div>","null","html-keyboard-response","354","738307","0.0-12.0-0.20","fixation","","","","",""
"673","Stimuli/Hangul_M88.bmp","190","image-keyboard-response","355","738982","0.0-12.0-1.20","test",",","",".","",""
"null","<div style=""color:white; font-size:60px;"">+</div>","null","html-keyboard-response","356","739987","0.0-12.0-0.21","fixation","","","","",""
"596","Stimuli/Hangul_F91.bmp","190","image-keyboard-response","357","740587","0.0-12.0-1.21","test",".","",".","",""
"null","<div style=""color:white; font-size:60px;"">+</div>","null","html-keyboard-response","358","741596","0.0-12.0-0.22","fixation","","","","",""
"761","Stimuli/Hangul_M96.bmp","190","image-keyboard-response","359","742362","0.0-12.0-1.22","test",",","",".","",""
"null","<div style=""color:white; font-size:60px;"">+</div>","null","html-keyboard-response","360","743377","0.0-12.0-0.23","fixation","","","","",""
"723","Stimuli/Hangul_M87.bmp","190","image-keyboard-response","361","744102","0.0-12.0-1.23","test",",","",".","",""
"null","<div style=""color:white; font-size:60px;"">+</div>","null","html-keyboard-response","362","745107","0.0-12.0-0.24","fixation","","","","",""
"697","Stimuli/Hangul_M75.bmp","190","image-keyboard-response","363","745808","0.0-12.0-1.24","test",",","",".","",""
"null","<div style=""color:white; font-size:60px;"">+</div>","null","html-keyboard-response","364","746827","0.0-12.0-0.25","fixation","","","","",""
"812","Stimuli/Hangul_F99.bmp","188","image-keyboard-response","365","747642","0.0-12.0-1.25","test",".","",",","",""
"null","<div style=""color:white; font-size:60px;"">+</div>","null","html-keyboard-response","366","748648","0.0-12.0-0.26","fixation","","","","",""
"702","Stimuli/Hangul_F80.bmp","190","image-keyboard-response","367","749353","0.0-12.0-1.26","test",".","",".","",""
"null","<div style=""color:white; font-size:60px;"">+</div>","null","html-keyboard-response","368","750357","0.0-12.0-0.27","fixation","","","","",""
"740","Stimuli/Hangul_F82.bmp","190","image-keyboard-response","369","751100","0.0-12.0-1.27","test",".","",".","",""
"null","<div style=""color:white; font-size:60px;"">+</div>","null","html-keyboard-response","370","752107","0.0-12.0-0.28","fixation","","","","",""
"818","Stimuli/Hangul_M95.bmp","188","image-keyboard-response","371","752929","0.0-12.0-1.28","test",",","",",","",""
"null","<div style=""color:white; font-size:60px;"">+</div>","null","html-keyboard-response","372","753947","0.0-12.0-0.29","fixation","","","","",""
"683","Stimuli/Hangul_M82.bmp","188","image-keyboard-response","373","754633","0.0-12.0-1.29","test",",","",",","",""
"null","<div style=""color:white; font-size:60px;"">+</div>","null","html-keyboard-response","374","755647","0.0-12.0-0.30","fixation","","","","",""
"700","Stimuli/Hangul_F89.bmp","188","image-keyboard-response","375","756351","0.0-12.0-1.30","test",".","",",","",""
"null","<div style=""color:white; font-size:60px;"">+</div>","null","html-keyboard-response","376","757367","0.0-12.0-0.31","fixation","","","","",""
"1007","Stimuli/Hangul_F84.bmp","188","image-keyboard-response","377","758377","0.0-12.0-1.31","test",".","",",","",""
"null","<div style=""color:white; font-size:60px;"">+</div>","null","html-keyboard-response","378","759387","0.0-12.0-0.32","fixation","","","","",""
"709","Stimuli/Hangul_M90.bmp","188","image-keyboard-response","379","760100","0.0-12.0-1.32","test",",","",",","",""
"null","<div style=""color:white; font-size:60px;"">+</div>","null","html-keyboard-response","380","761105","0.0-12.0-0.33","fixation","","","","",""
"812","Stimuli/Hangul_F97.bmp","188","image-keyboard-response","381","761920","0.0-12.0-1.33","test",".","",",","",""
"null","<div style=""color:white; font-size:60px;"">+</div>","null","html-keyboard-response","382","762928","0.0-12.0-0.34","fixation","","","","",""
"927","Stimuli/Hangul_F75.bmp","188","image-keyboard-response","383","763856","0.0-12.0-1.34","test",".","",",","",""
"null","<div style=""color:white; font-size:60px;"">+</div>","null","html-keyboard-response","384","764877","0.0-12.0-0.35","fixation","","","","",""
"628","Stimuli/Hangul_F95.bmp","188","image-keyboard-response","385","765508","0.0-12.0-1.35","test",".","",",","",""
"null","<div style=""color:white; font-size:60px;"">+</div>","null","html-keyboard-response","386","766517","0.0-12.0-0.36","fixation","","","","",""
"780","Stimuli/Hangul_M79.bmp","190","image-keyboard-response","387","767301","0.0-12.0-1.36","test",",","",".","",""
"null","<div style=""color:white; font-size:60px;"">+</div>","null","html-keyboard-response","388","768303","0.0-12.0-0.37","fixation","","","","",""
"605","Stimuli/Hangul_M84.bmp","190","image-keyboard-response","389","768910","0.0-12.0-1.37","test",",","",".","",""
"null","<div style=""color:white; font-size:60px;"">+</div>","null","html-keyboard-response","390","769917","0.0-12.0-0.38","fixation","","","","",""
"1020","Stimuli/Hangul_F92.bmp","190","image-keyboard-response","391","770941","0.0-12.0-1.38","test",".","",".","",""
"null","<div style=""color:white; font-size:60px;"">+</div>","null","html-keyboard-response","392","771957","0.0-12.0-0.39","fixation","","","","",""
"652","Stimuli/Hangul_F87.bmp","188","image-keyboard-response","393","772613","0.0-12.0-1.39","test",".","",",","",""
"null","<div style=""color:white; font-size:60px;"">+</div>","null","html-keyboard-response","394","773627","0.0-12.0-0.40","fixation","","","","",""
"649","Stimuli/Hangul_M81.bmp","190","image-keyboard-response","395","774279","0.0-12.0-1.40","test",",","",".","",""
"null","<div style=""color:white; font-size:60px;"">+</div>","null","html-keyboard-response","396","775297","0.0-12.0-0.41","fixation","","","","",""
"594","Stimuli/Hangul_F83.bmp","190","image-keyboard-response","397","775894","0.0-12.0-1.41","test",".","",".","",""
"null","<div style=""color:white; font-size:60px;"">+</div>","null","html-keyboard-response","398","776908","0.0-12.0-0.42","fixation","","","","",""
"780","Stimuli/Hangul_F76.bmp","188","image-keyboard-response","399","777691","0.0-12.0-1.42","test",".","",",","",""
"null","<div style=""color:white; font-size:60px;"">+</div>","null","html-keyboard-response","400","778707","0.0-12.0-0.43","fixation","","","","",""
"671","Stimuli/Hangul_F81.bmp","188","image-keyboard-response","401","779381","0.0-12.0-1.43","test",".","",",","",""
"null","<div style=""color:white; font-size:60px;"">+</div>","null","html-keyboard-response","402","780387","0.0-12.0-0.44","fixation","","","","",""
"659","Stimuli/Hangul_M99.bmp","190","image-keyboard-response","403","781050","0.0-12.0-1.44","test",",","",".","",""
"null","<div style=""color:white; font-size:60px;"">+</div>","null","html-keyboard-response","404","782057","0.0-12.0-0.45","fixation","","","","",""
"670","Stimuli/Hangul_F96.bmp","188","image-keyboard-response","405","782731","0.0-12.0-1.45","test",".","",",","",""
"null","<div style=""color:white; font-size:60px;"">+</div>","null","html-keyboard-response","406","783747","0.0-12.0-0.46","fixation","","","","",""
"549","Stimuli/Hangul_F85.bmp","190","image-keyboard-response","407","784298","0.0-12.0-1.46","test",".","",".","",""
"null","<div style=""color:white; font-size:60px;"">+</div>","null","html-keyboard-response","408","785307","0.0-12.0-0.47","fixation","","","","",""
"777","Stimuli/Hangul_F86.bmp","188","image-keyboard-response","409","786087","0.0-12.0-1.47","test",".","",",","",""
"null","<div style=""color:white; font-size:60px;"">+</div>","null","html-keyboard-response","410","787098","0.0-12.0-0.48","fixation","","","","",""
"1157","Stimuli/Hangul_M97.bmp","188","image-keyboard-response","411","788258","0.0-12.0-1.48","test",",","",",","",""
"null","<div style=""color:white; font-size:60px;"">+</div>","null","html-keyboard-response","412","789267","0.0-12.0-0.49","fixation","","","","",""
"693","Stimuli/Hangul_M80.bmp","188","image-keyboard-response","413","789965","0.0-12.0-1.49","test",",","",",","",""
"16485","<p style=""color:white;"">Phase I of the experiment is complete.</p> <p style=""color:white;"">Press the space bar to proceed to Phase II of the experiment.</p> ","32","html-keyboard-response","414","806452","0.0-13.0","","","","","",""
"18601","<p style=""color:white;"">Now we are interested in how well you can predict patterns in the series of figures. You will be asked to predict whether the next figure in the series is more male-like or female-like. When you see the <q>Next Figure</q> prompt, press the corresponding response keys to indicate your prediction: </p><p style=""color:white;""> Male &#8594 <q>,</q> (comma)</p><p style=""color:white;""> Female &#8594 <q>.</q> (period)</p><p style=""color:white;"">The actual figure will then appear on the screen. After you see the figure, please guess the assigned gender with response keys. </p><p style=""color:white;"">As before, you will receive 2 cents for correctly classifying each figure.</p><p style=""color:white;"">Press either response keys to continue.</p>","190","html-keyboard-response","415","827060","0.0-14.0","","","","","",""
"7580","<p style=""color:white;"">PREDICTION BONUS</p> <p style=""color:white;"">Your prediction accuracy is the total number of correct predictions you make over the 200 trials.</p> <p style=""color:white;"">In addition to the 2 cents per correct figure classification, you have the chance to receive a bonus of 40 dollars IF your accuracy is above average relative to previous participants.</p><p style=""color:white;"">If your accuracy is below average relative to previous participants, then you will not receive the 40 dollar bonus.</p><p style=""color:white;"">Press the space bar to continue.</p>","32","html-keyboard-response","416","834642","0.0-15.0","","","","","",""
"6765","<p style=""color:white;"">Here are some examples.</p> <p style=""color:white;"">For each, predict whether the next figure looks more male-like or female-like. Then, when the figure appears, guess whether it looks more male-like or female-like and indicate your choice.</p> <p style=""color:white;"">Press the space bar to continue.</p>","32","html-keyboard-response","417","841410","0.0-16.0","","","","","",""
"2299","<p style=""color:white;""> Next Figure: Male or Female? </p>","190","html-keyboard-response","418","845727","0.0-17.0-0.0","prediction_train","","","",".",""
"null","<div style=""color:white; font-size:60px;"">+</div>","null","html-keyboard-response","419","846746","0.0-17.0-1.0","fixation","","","","",""
"10259","Stimuli/Hangul_E1.bmp","190","image-keyboard-response","420","857009","0.0-17.0-2.0","c2_train",",","","","","."
"1200","<p style=""color:white;""> Next Figure: Male or Female? </p>","188","html-keyboard-response","421","858213","0.0-17.0-0.1","prediction_train","","","",",",""
"null","<div style=""color:white; font-size:60px;"">+</div>","null","html-keyboard-response","422","859217","0.0-17.0-1.1","fixation","","","","",""
"1071","Stimuli/Hangul_E0.bmp","188","image-keyboard-response","423","860291","0.0-17.0-2.1","c2_train",",","","","",","
"1771","<p style=""color:white;""> Next Figure: Male or Female? </p>","188","html-keyboard-response","424","862064","0.0-17.0-0.2","prediction_train","","","",",",""
"null","<div style=""color:white; font-size:60px;"">+</div>","null","html-keyboard-response","425","863067","0.0-17.0-1.2","fixation","","","","",""
"714","Stimuli/Hangul_E2.bmp","190","image-keyboard-response","426","863785","0.0-17.0-2.2","c2_train",".","","","","."
"1567","<p style=""color:white;"">Let us begin! Press the space bar when you are ready to start block 1 of 4.</p> ","32","html-keyboard-response","427","865355","0.0-18.0","","","","","",""
"128","<p style=""color:white;""> Next Figure: Male or Female? </p>","190","html-keyboard-response","428","867497","0.0-19.0-0.0","prediction","","","",".",""
"null","<div style=""color:white; font-size:60px;"">+</div>","null","html-keyboard-response","429","868507","0.0-19.0-1.0","fixation","","","","",""
"2052","Stimuli/Hangul_F10.bmp","188","image-keyboard-response","430","870562","0.0-19.0-2.0","c2_test",".","","","",","
"1305","<p style=""color:white;""> Next Figure: Male or Female? </p>","188","html-keyboard-response","431","871870","0.0-19.0-0.1","prediction","","","",",",""
"null","<div style=""color:white; font-size:60px;"">+</div>","null","html-keyboard-response","432","872876","0.0-19.0-1.1","fixation","","","","",""
"941","Stimuli/Hangul_F7.bmp","190","image-keyboard-response","433","873822","0.0-19.0-2.1","c2_test",".","","","","."
"919","<p style=""color:white;""> Next Figure: Male or Female? </p>","190","html-keyboard-response","434","874741","0.0-19.0-0.2","prediction","","","",".",""
"null","<div style=""color:white; font-size:60px;"">+</div>","null","html-keyboard-response","435","875746","0.0-19.0-1.2","fixation","","","","",""
"204","Stimuli/Hangul_M18.bmp","190","image-keyboard-response","436","875953","0.0-19.0-2.2","c2_test",",","","","","."
"1237","<p style=""color:white;""> Next Figure: Male or Female? </p>","190","html-keyboard-response","437","877192","0.0-19.0-0.3","prediction","","","",".",""
"null","<div style=""color:white; font-size:60px;"">+</div>","null","html-keyboard-response","438","878198","0.0-19.0-1.3","fixation","","","","",""
"179","Stimuli/Hangul_M10.bmp","190","image-keyboard-response","439","878379","0.0-19.0-2.3","c2_test",",","","","","."
"1979","<p style=""color:white;""> Next Figure: Male or Female? </p>","190","html-keyboard-response","440","880358","0.0-19.0-0.4","prediction","","","",".",""
"null","<div style=""color:white; font-size:60px;"">+</div>","null","html-keyboard-response","441","881377","0.0-19.0-1.4","fixation","","","","",""
"943","Stimuli/Hangul_F15.bmp","188","image-keyboard-response","442","882324","0.0-19.0-2.4","c2_test",".","","","",","
"1928","<p style=""color:white;""> Next Figure: Male or Female? </p>","188","html-keyboard-response","443","884252","0.0-19.0-0.5","prediction","","","",",",""
"null","<div style=""color:white; font-size:60px;"">+</div>","null","html-keyboard-response","444","885257","0.0-19.0-1.5","fixation","","","","",""
"932","Stimuli/Hangul_F18.bmp","188","image-keyboard-response","445","886192","0.0-19.0-2.5","c2_test",".","","","",","
"1452","<p style=""color:white;""> Next Figure: Male or Female? </p>","188","html-keyboard-response","446","887646","0.0-19.0-0.6","prediction","","","",",",""
"null","<div style=""color:white; font-size:60px;"">+</div>","null","html-keyboard-response","447","888657","0.0-19.0-1.6","fixation","","","","",""
"784","Stimuli/Hangul_M13.bmp","188","image-keyboard-response","448","889444","0.0-19.0-2.6","c2_test",",","","","",","
"1288","<p style=""color:white;""> Next Figure: Male or Female? </p>","188","html-keyboard-response","449","890735","0.0-19.0-0.7","prediction","","","",",",""
"null","<div style=""color:white; font-size:60px;"">+</div>","null","html-keyboard-response","450","891743","0.0-19.0-1.7","fixation","","","","",""
"759","Stimuli/Hangul_F3.bmp","188","image-keyboard-response","451","892505","0.0-19.0-2.7","c2_test",".","","","",","
"887","<p style=""color:white;""> Next Figure: Male or Female? </p>","188","html-keyboard-response","452","893393","0.0-19.0-0.8","prediction","","","",",",""
"null","<div style=""color:white; font-size:60px;"">+</div>","null","html-keyboard-response","453","894406","0.0-19.0-1.8","fixation","","","","",""
"945","Stimuli/Hangul_M0.bmp","190","image-keyboard-response","454","895356","0.0-19.0-2.8","c2_test",",","","","","."
"820","<p style=""color:white;""> Next Figure: Male or Female? </p>","190","html-keyboard-response","455","896176","0.0-19.0-0.9","prediction","","","",".",""
"null","<div style=""color:white; font-size:60px;"">+</div>","null","html-keyboard-response","456","897187","0.0-19.0-1.9","fixation","","","","",""
"768","Stimuli/Hangul_M20.bmp","188","image-keyboard-response","457","897959","0.0-19.0-2.9","c2_test",",","","","",","
"845","<p style=""color:white;""> Next Figure: Male or Female? </p>","188","html-keyboard-response","458","898805","0.0-19.0-0.10","prediction","","","",",",""
"null","<div style=""color:white; font-size:60px;"">+</div>","null","html-keyboard-response","459","899817","0.0-19.0-1.10","fixation","","","","",""
"937","Stimuli/Hangul_F4.bmp","188","image-keyboard-response","460","900757","0.0-19.0-2.10","c2_test",".","","","",","
"738","<p style=""color:white;""> Next Figure: Male or Female? </p>","188","html-keyboard-response","461","901497","0.0-19.0-0.11","prediction","","","",",",""
"null","<div style=""color:white; font-size:60px;"">+</div>","null","html-keyboard-response","462","902517","0.0-19.0-1.11","fixation","","","","",""
"1809","Stimuli/Hangul_M16.bmp","188","image-keyboard-response","463","904330","0.0-19.0-2.11","c2_test",",","","","",","
"548","<p style=""color:white;""> Next Figure: Male or Female? </p>","188","html-keyboard-response","464","904882","0.0-19.0-0.12","prediction","","","",",",""
"null","<div style=""color:white; font-size:60px;"">+</div>","null","html-keyboard-response","465","905896","0.0-19.0-1.12","fixation","","","","",""
"737","Stimuli/Hangul_F6.bmp","188","image-keyboard-response","466","906639","0.0-19.0-2.12","c2_test",".","","","",","
"388","<p style=""color:white;""> Next Figure: Male or Female? </p>","188","html-keyboard-response","467","907030","0.0-19.0-0.13","prediction","","","",",",""
"null","<div style=""color:white; font-size:60px;"">+</div>","null","html-keyboard-response","468","908037","0.0-19.0-1.13","fixation","","","","",""
"741","Stimuli/Hangul_M15.bmp","190","image-keyboard-response","469","908780","0.0-19.0-2.13","c2_test",",","","","","."
"559","<p style=""color:white;""> Next Figure: Male or Female? </p>","190","html-keyboard-response","470","909343","0.0-19.0-0.14","prediction","","","",".",""
"null","<div style=""color:white; font-size:60px;"">+</div>","null","html-keyboard-response","471","910357","0.0-19.0-1.14","fixation","","","","",""
"1157","Stimuli/Hangul_F19.bmp","190","image-keyboard-response","472","911517","0.0-19.0-2.14","c2_test",".","","","","."
"417","<p style=""color:white;""> Next Figure: Male or Female? </p>","190","html-keyboard-response","473","911936","0.0-19.0-0.15","prediction","","","",".",""
"null","<div style=""color:white; font-size:60px;"">+</div>","null","html-keyboard-response","474","912947","0.0-19.0-1.15","fixation","","","","",""
"825","Stimuli/Hangul_M8.bmp","190","image-keyboard-response","475","913775","0.0-19.0-2.15","c2_test",",","","","","."
"486","<p style=""color:white;""> Next Figure: Male or Female? </p>","190","html-keyboard-response","476","914262","0.0-19.0-0.16","prediction","","","",".",""
"null","<div style=""color:white; font-size:60px;"">+</div>","null","html-keyboard-response","477","915276","0.0-19.0-1.16","fixation","","","","",""
"659","Stimuli/Hangul_M1.bmp","190","image-keyboard-response","478","915938","0.0-19.0-2.16","c2_test",",","","","","."
"369","<p style=""color:white;""> Next Figure: Male or Female? </p>","190","html-keyboard-response","479","916310","0.0-19.0-0.17","prediction","","","",".",""
"null","<div style=""color:white; font-size:60px;"">+</div>","null","html-keyboard-response","480","917327","0.0-19.0-1.17","fixation","","","","",""
"874","Stimuli/Hangul_M7.bmp","190","image-keyboard-response","481","918205","0.0-19.0-2.17","c2_test",",","","","","."
"453","<p style=""color:white;""> Next Figure: Male or Female? </p>","190","html-keyboard-response","482","918658","0.0-19.0-0.18","prediction","","","",".",""
"null","<div style=""color:white; font-size:60px;"">+</div>","null","html-keyboard-response","483","919676","0.0-19.0-1.18","fixation","","","","",""
"702","Stimuli/Hangul_M14.bmp","190","image-keyboard-response","484","920380","0.0-19.0-2.18","c2_test",",","","","","."
"315","<p style=""color:white;""> Next Figure: Male or Female? </p>","190","html-keyboard-response","485","920697","0.0-19.0-0.19","prediction","","","",".",""
"null","<div style=""color:white; font-size:60px;"">+</div>","null","html-keyboard-response","486","921707","0.0-19.0-1.19","fixation","","","","",""
"808","Stimuli/Hangul_F24.bmp","190","image-keyboard-response","487","922518","0.0-19.0-2.19","c2_test",".","","","","."
"357","<p style=""color:white;""> Next Figure: Male or Female? </p>","190","html-keyboard-response","488","922876","0.0-19.0-0.20","prediction","","","",".",""
"null","<div style=""color:white; font-size:60px;"">+</div>","null","html-keyboard-response","489","923897","0.0-19.0-1.20","fixation","","","","",""
"679","Stimuli/Hangul_F23.bmp","190","image-keyboard-response","490","924576","0.0-19.0-2.20","c2_test",".","","","","."
"298","<p style=""color:white;""> Next Figure: Male or Female? </p>","190","html-keyboard-response","491","924876","0.0-19.0-0.21","prediction","","","",".",""
"null","<div style=""color:white; font-size:60px;"">+</div>","null","html-keyboard-response","492","925886","0.0-19.0-1.21","fixation","","","","",""
"748","Stimuli/Hangul_F11.bmp","190","image-keyboard-response","493","926637","0.0-19.0-2.21","c2_test",".","","","","."
"340","<p style=""color:white;""> Next Figure: Male or Female? </p>","190","html-keyboard-response","494","926980","0.0-19.0-0.22","prediction","","","",".",""
"null","<div style=""color:white; font-size:60px;"">+</div>","null","html-keyboard-response","495","927996","0.0-19.0-1.22","fixation","","","","",""
"784","Stimuli/Hangul_M19.bmp","188","image-keyboard-response","496","928784","0.0-19.0-2.22","c2_test",",","","","",","
"741","<p style=""color:white;""> Next Figure: Male or Female? </p>","188","html-keyboard-response","497","929525","0.0-19.0-0.23","prediction","","","",",",""
"null","<div style=""color:white; font-size:60px;"">+</div>","null","html-keyboard-response","498","930536","0.0-19.0-1.23","fixation","","","","",""
"646","Stimuli/Hangul_M21.bmp","188","image-keyboard-response","499","931184","0.0-19.0-2.23","c2_test",",","","","",","
"406","<p style=""color:white;""> Next Figure: Male or Female? </p>","188","html-keyboard-response","500","931595","0.0-19.0-0.24","prediction","","","",",",""
"null","<div style=""color:white; font-size:60px;"">+</div>","null","html-keyboard-response","501","932606","0.0-19.0-1.24","fixation","","","","",""
"708","Stimuli/Hangul_F21.bmp","188","image-keyboard-response","502","933318","0.0-19.0-2.24","c2_test",".","","","",","
"279","<p style=""color:white;""> Next Figure: Male or Female? </p>","188","html-keyboard-response","503","933599","0.0-19.0-0.25","prediction","","","",",",""
"null","<div style=""color:white; font-size:60px;"">+</div>","null","html-keyboard-response","504","934618","0.0-19.0-1.25","fixation","","","","",""
"972","Stimuli/Hangul_F12.bmp","190","image-keyboard-response","505","935593","0.0-19.0-2.25","c2_test",".","","","","."
"383","<p style=""color:white;""> Next Figure: Male or Female? </p>","190","html-keyboard-response","506","935976","0.0-19.0-0.26","prediction","","","",".",""
"null","<div style=""color:white; font-size:60px;"">+</div>","null","html-keyboard-response","507","936997","0.0-19.0-1.26","fixation","","","","",""
"680","Stimuli/Hangul_M9.bmp","190","image-keyboard-response","508","937680","0.0-19.0-2.26","c2_test",",","","","","."
"514","<p style=""color:white;""> Next Figure: Male or Female? </p>","190","html-keyboard-response","509","938196","0.0-19.0-0.27","prediction","","","",".",""
"null","<div style=""color:white; font-size:60px;"">+</div>","null","html-keyboard-response","510","939217","0.0-19.0-1.27","fixation","","","","",""
"757","Stimuli/Hangul_F14.bmp","188","image-keyboard-response","511","939978","0.0-19.0-2.27","c2_test",".","","","",","
"469","<p style=""color:white;""> Next Figure: Male or Female? </p>","188","html-keyboard-response","512","940450","0.0-19.0-0.28","prediction","","","",",",""
"null","<div style=""color:white; font-size:60px;"">+</div>","null","html-keyboard-response","513","941456","0.0-19.0-1.28","fixation","","","","",""
"1471","Stimuli/Hangul_M6.bmp","188","image-keyboard-response","514","942929","0.0-19.0-2.28","c2_test",",","","","",","
"453","<p style=""color:white;""> Next Figure: Male or Female? </p>","188","html-keyboard-response","515","943384","0.0-19.0-0.29","prediction","","","",",",""
"null","<div style=""color:white; font-size:60px;"">+</div>","null","html-keyboard-response","516","944397","0.0-19.0-1.29","fixation","","","","",""
"1100","Stimuli/Hangul_F5.bmp","188","image-keyboard-response","517","945501","0.0-19.0-2.29","c2_test",".","","","",","
"370","<p style=""color:white;""> Next Figure: Male or Female? </p>","188","html-keyboard-response","518","945872","0.0-19.0-0.30","prediction","","","",",",""
"null","<div style=""color:white; font-size:60px;"">+</div>","null","html-keyboard-response","519","946877","0.0-19.0-1.30","fixation","","","","",""
"1498","Stimuli/Hangul_M11.bmp","188","image-keyboard-response","520","948379","0.0-19.0-2.30","c2_test",",","","","",","
"415","<p style=""color:white;""> Next Figure: Male or Female? </p>","188","html-keyboard-response","521","948796","0.0-19.0-0.31","prediction","","","",",",""
"null","<div style=""color:white; font-size:60px;"">+</div>","null","html-keyboard-response","522","949799","0.0-19.0-1.31","fixation","","","","",""
"674","Stimuli/Hangul_F8.bmp","188","image-keyboard-response","523","950476","0.0-19.0-2.31","c2_test",".","","","",","
"299","<p style=""color:white;""> Next Figure: Male or Female? </p>","188","html-keyboard-response","524","950778","0.0-19.0-0.32","prediction","","","",",",""
"null","<div style=""color:white; font-size:60px;"">+</div>","null","html-keyboard-response","525","951786","0.0-19.0-1.32","fixation","","","","",""
"881","Stimuli/Hangul_M24.bmp","188","image-keyboard-response","526","952671","0.0-19.0-2.32","c2_test",",","","","",","
"414","<p style=""color:white;""> Next Figure: Male or Female? </p>","188","html-keyboard-response","527","953088","0.0-19.0-0.33","prediction","","","",",",""
"null","<div style=""color:white; font-size:60px;"">+</div>","null","html-keyboard-response","528","954096","0.0-19.0-1.33","fixation","","","","",""
"747","Stimuli/Hangul_M23.bmp","188","image-keyboard-response","529","954846","0.0-19.0-2.33","c2_test",",","","","",","
"353","<p style=""color:white;""> Next Figure: Male or Female? </p>","188","html-keyboard-response","530","955201","0.0-19.0-0.34","prediction","","","",",",""
"null","<div style=""color:white; font-size:60px;"">+</div>","null","html-keyboard-response","531","956206","0.0-19.0-1.34","fixation","","","","",""
"945","Stimuli/Hangul_M17.bmp","188","image-keyboard-response","532","957154","0.0-19.0-2.34","c2_test",",","","","",","
"296","<p style=""color:white;""> Next Figure: Male or Female? </p>","188","html-keyboard-response","533","957451","0.0-19.0-0.35","prediction","","","",",",""
"null","<div style=""color:white; font-size:60px;"">+</div>","null","html-keyboard-response","534","958456","0.0-19.0-1.35","fixation","","","","",""
"855","Stimuli/Hangul_M3.bmp","190","image-keyboard-response","535","959313","0.0-19.0-2.35","c2_test",",","","","","."
"336","<p style=""color:white;""> Next Figure: Male or Female? </p>","190","html-keyboard-response","536","959650","0.0-19.0-0.36","prediction","","","",".",""
"null","<div style=""color:white; font-size:60px;"">+</div>","null","html-keyboard-response","537","960667","0.0-19.0-1.36","fixation","","","","",""
"1162","Stimuli/Hangul_M5.bmp","188","image-keyboard-response","538","961833","0.0-19.0-2.36","c2_test",",","","","",","
"394","<p style=""color:white;""> Next Figure: Male or Female? </p>","188","html-keyboard-response","539","962230","0.0-19.0-0.37","prediction","","","",",",""
"null","<div style=""color:white; font-size:60px;"">+</div>","null","html-keyboard-response","540","963247","0.0-19.0-1.37","fixation","","","","",""
"772","Stimuli/Hangul_F0.bmp","188","image-keyboard-response","541","964021","0.0-19.0-2.37","c2_test",".","","","",","
"283","<p style=""color:white;""> Next Figure: Male or Female? </p>","188","html-keyboard-response","542","964306","0.0-19.0-0.38","prediction","","","",",",""
"null","<div style=""color:white; font-size:60px;"">+</div>","null","html-keyboard-response","543","965317","0.0-19.0-1.38","fixation","","","","",""
"751","Stimuli/Hangul_M12.bmp","190","image-keyboard-response","544","966070","0.0-19.0-2.38","c2_test",",","","","","."
"342","<p style=""color:white;""> Next Figure: Male or Female? </p>","190","html-keyboard-response","545","966413","0.0-19.0-0.39","prediction","","","",".",""
"null","<div style=""color:white; font-size:60px;"">+</div>","null","html-keyboard-response","546","967426","0.0-19.0-1.39","fixation","","","","",""
"686","Stimuli/Hangul_M4.bmp","190","image-keyboard-response","547","968116","0.0-19.0-2.39","c2_test",",","","","","."
"314","<p style=""color:white;""> Next Figure: Male or Female? </p>","190","html-keyboard-response","548","968433","0.0-19.0-0.40","prediction","","","",".",""
"null","<div style=""color:white; font-size:60px;"">+</div>","null","html-keyboard-response","549","969436","0.0-19.0-1.40","fixation","","","","",""
"774","Stimuli/Hangul_F1.bmp","188","image-keyboard-response","550","970212","0.0-19.0-2.40","c2_test",".","","","",","
"310","<p style=""color:white;""> Next Figure: Male or Female? </p>","188","html-keyboard-response","551","970525","0.0-19.0-0.41","prediction","","","",",",""
"null","<div style=""color:white; font-size:60px;"">+</div>","null","html-keyboard-response","552","971537","0.0-19.0-1.41","fixation","","","","",""
"1532","Stimuli/Hangul_F2.bmp","190","image-keyboard-response","553","973071","0.0-19.0-2.41","c2_test",".","","","","."
"286","<p style=""color:white;""> Next Figure: Male or Female? </p>","190","html-keyboard-response","554","973359","0.0-19.0-0.42","prediction","","","",".",""
"null","<div style=""color:white; font-size:60px;"">+</div>","null","html-keyboard-response","555","974367","0.0-19.0-1.42","fixation","","","","",""
"830","Stimuli/Hangul_F9.bmp","188","image-keyboard-response","556","975201","0.0-19.0-2.42","c2_test",".","","","",","
"305","<p style=""color:white;""> Next Figure: Male or Female? </p>","188","html-keyboard-response","557","975510","0.0-19.0-0.43","prediction","","","",",",""
"null","<div style=""color:white; font-size:60px;"">+</div>","null","html-keyboard-response","558","976516","0.0-19.0-1.43","fixation","","","","",""
"907","Stimuli/Hangul_M2.bmp","190","image-keyboard-response","559","977426","0.0-19.0-2.43","c2_test",",","","","","."
"298","<p style=""color:white;""> Next Figure: Male or Female? </p>","190","html-keyboard-response","560","977727","0.0-19.0-0.44","prediction","","","",".",""
"null","<div style=""color:white; font-size:60px;"">+</div>","null","html-keyboard-response","561","978746","0.0-19.0-1.44","fixation","","","","",""
"991","Stimuli/Hangul_M22.bmp","188","image-keyboard-response","562","979742","0.0-19.0-2.44","c2_test",",","","","",","
"263","<p style=""color:white;""> Next Figure: Male or Female? </p>","188","html-keyboard-response","563","980007","0.0-19.0-0.45","prediction","","","",",",""
"null","<div style=""color:white; font-size:60px;"">+</div>","null","html-keyboard-response","564","981016","0.0-19.0-1.45","fixation","","","","",""
"778","Stimuli/Hangul_F13.bmp","190","image-keyboard-response","565","981798","0.0-19.0-2.45","c2_test",".","","","","."
"248","<p style=""color:white;""> Next Figure: Male or Female? </p>","190","html-keyboard-response","566","982052","0.0-19.0-0.46","prediction","","","",".",""
"null","<div style=""color:white; font-size:60px;"">+</div>","null","html-keyboard-response","567","983067","0.0-19.0-1.46","fixation","","","","",""
"718","Stimuli/Hangul_F20.bmp","188","image-keyboard-response","568","983788","0.0-19.0-2.46","c2_test",".","","","",","
"296","<p style=""color:white;""> Next Figure: Male or Female? </p>","188","html-keyboard-response","569","984087","0.0-19.0-0.47","prediction","","","",",",""
"null","<div style=""color:white; font-size:60px;"">+</div>","null","html-keyboard-response","570","985106","0.0-19.0-1.47","fixation","","","","",""
"869","Stimuli/Hangul_F16.bmp","188","image-keyboard-response","571","985978","0.0-19.0-2.47","c2_test",".","","","",","
"300","<p style=""color:white;""> Next Figure: Male or Female? </p>","188","html-keyboard-response","572","986280","0.0-19.0-0.48","prediction","","","",",",""
"null","<div style=""color:white; font-size:60px;"">+</div>","null","html-keyboard-response","573","987287","0.0-19.0-1.48","fixation","","","","",""
"1115","Stimuli/Hangul_F17.bmp","188","image-keyboard-response","574","988407","0.0-19.0-2.48","c2_test",".","","","",","
"267","<p style=""color:white;""> Next Figure: Male or Female? </p>","188","html-keyboard-response","575","988676","0.0-19.0-0.49","prediction","","","",",",""
"null","<div style=""color:white; font-size:60px;"">+</div>","null","html-keyboard-response","576","989686","0.0-19.0-1.49","fixation","","","","",""
"780","Stimuli/Hangul_F22.bmp","188","image-keyboard-response","577","990470","0.0-19.0-2.49","c2_test",".","","","",","
"9861","<p style=""color:white;"">Good job, block 1 complete! Please take a moment to rest.</p> <p style=""color:white;"">When you are ready to continue with block 2 of 4, press the space bar.</p> ","32","html-keyboard-response","578","1000334","0.0-20.0","","","","","",""
"557","<p style=""color:white;""> Next Figure: Male or Female? </p>","190","html-keyboard-response","579","1002903","0.0-21.0-0.0","prediction","","","",".",""
"null","<div style=""color:white; font-size:60px;"">+</div>","null","html-keyboard-response","580","1003927","0.0-21.0-1.0","fixation","","","","",""
"567","Stimuli/Hangul_F29.bmp","188","image-keyboard-response","581","1004497","0.0-21.0-2.0","c2_test",".","","","",","
"404","<p style=""color:white;""> Next Figure: Male or Female? </p>","188","html-keyboard-response","582","1004904","0.0-21.0-0.1","prediction","","","",",",""
"null","<div style=""color:white; font-size:60px;"">+</div>","null","html-keyboard-response","583","1005917","0.0-21.0-1.1","fixation","","","","",""
"513","Stimuli/Hangul_M39.bmp","188","image-keyboard-response","584","1006432","0.0-21.0-2.1","c2_test",",","","","",","
"209","<p style=""color:white;""> Next Figure: Male or Female? </p>","188","html-keyboard-response","585","1006644","0.0-21.0-0.2","prediction","","","",",",""
"null","<div style=""color:white; font-size:60px;"">+</div>","null","html-keyboard-response","586","1007646","0.0-21.0-1.2","fixation","","","","",""
"639","Stimuli/Hangul_F45.bmp","188","image-keyboard-response","587","1008286","0.0-21.0-2.2","c2_test",".","","","",","
"239","<p style=""color:white;""> Next Figure: Male or Female? </p>","188","html-keyboard-response","588","1008529","0.0-21.0-0.3","prediction","","","",",",""
"null","<div style=""color:white; font-size:60px;"">+</div>","null","html-keyboard-response","589","1009532","0.0-21.0-1.3","fixation","","","","",""
"538","Stimuli/Hangul_F39.bmp","188","image-keyboard-response","590","1010073","0.0-21.0-2.3","c2_test",".","","","",","
"241","<p style=""color:white;""> Next Figure: Male or Female? </p>","188","html-keyboard-response","591","1010316","0.0-21.0-0.4","prediction","","","",",",""
"null","<div style=""color:white; font-size:60px;"">+</div>","null","html-keyboard-response","592","1011326","0.0-21.0-1.4","fixation","","","","",""
"728","Stimuli/Hangul_M44.bmp","188","image-keyboard-response","593","1012058","0.0-21.0-2.4","c2_test",",","","","",","
"210","<p style=""color:white;""> Next Figure: Male or Female? </p>","188","html-keyboard-response","594","1012269","0.0-21.0-0.5","prediction","","","",",",""
"null","<div style=""color:white; font-size:60px;"">+</div>","null","html-keyboard-response","595","1013276","0.0-21.0-1.5","fixation","","","","",""
"506","Stimuli/Hangul_M49.bmp","188","image-keyboard-response","596","1013783","0.0-21.0-2.5","c2_test",",","","","",","
"258","<p style=""color:white;""> Next Figure: Male or Female? </p>","188","html-keyboard-response","597","1014043","0.0-21.0-0.6","prediction","","","",",",""
"null","<div style=""color:white; font-size:60px;"">+</div>","null","html-keyboard-response","598","1015056","0.0-21.0-1.6","fixation","","","","",""
"478","Stimuli/Hangul_F33.bmp","188","image-keyboard-response","599","1015538","0.0-21.0-2.6","c2_test",".","","","",","
"256","<p style=""color:white;""> Next Figure: Male or Female? </p>","188","html-keyboard-response","600","1015795","0.0-21.0-0.7","prediction","","","",",",""
"null","<div style=""color:white; font-size:60px;"">+</div>","null","html-keyboard-response","601","1016805","0.0-21.0-1.7","fixation","","","","",""
"398","Stimuli/Hangul_F28.bmp","188","image-keyboard-response","602","1017206","0.0-21.0-2.7","c2_test",".","","","",","
"239","<p style=""color:white;""> Next Figure: Male or Female? </p>","188","html-keyboard-response","603","1017447","0.0-21.0-0.8","prediction","","","",",",""
"null","<div style=""color:white; font-size:60px;"">+</div>","null","html-keyboard-response","604","1018466","0.0-21.0-1.8","fixation","","","","",""
"1130","Stimuli/Hangul_F32.bmp","188","image-keyboard-response","605","1019600","0.0-21.0-2.8","c2_test",".","","","",","
"233","<p style=""color:white;""> Next Figure: Male or Female? </p>","188","html-keyboard-response","606","1019834","0.0-21.0-0.9","prediction","","","",",",""
"null","<div style=""color:white; font-size:60px;"">+</div>","null","html-keyboard-response","607","1020856","0.0-21.0-1.9","fixation","","","","",""
"851","Stimuli/Hangul_M46.bmp","188","image-keyboard-response","608","1021712","0.0-21.0-2.9","c2_test",",","","","",","
"245","<p style=""color:white;""> Next Figure: Male or Female? </p>","188","html-keyboard-response","609","1021961","0.0-21.0-0.10","prediction","","","",",",""
"null","<div style=""color:white; font-size:60px;"">+</div>","null","html-keyboard-response","610","1022967","0.0-21.0-1.10","fixation","","","","",""
"585","Stimuli/Hangul_F40.bmp","188","image-keyboard-response","611","1023555","0.0-21.0-2.10","c2_test",".","","","",","
"282","<p style=""color:white;""> Next Figure: Male or Female? </p>","188","html-keyboard-response","612","1023838","0.0-21.0-0.11","prediction","","","",",",""
"null","<div style=""color:white; font-size:60px;"">+</div>","null","html-keyboard-response","613","1024855","0.0-21.0-1.11","fixation","","","","",""
"860","Stimuli/Hangul_M25.bmp","188","image-keyboard-response","614","1025717","0.0-21.0-2.11","c2_test",",","","","",","
"328","<p style=""color:white;""> Next Figure: Male or Female? </p>","188","html-keyboard-response","615","1026047","0.0-21.0-0.12","prediction","","","",",",""
"null","<div style=""color:white; font-size:60px;"">+</div>","null","html-keyboard-response","616","1027057","0.0-21.0-1.12","fixation","","","","",""
"523","Stimuli/Hangul_F49.bmp","188","image-keyboard-response","617","1027583","0.0-21.0-2.12","c2_test",".","","","",","
"291","<p style=""color:white;""> Next Figure: Male or Female? </p>","188","html-keyboard-response","618","1027877","0.0-21.0-0.13","prediction","","","",",",""
"null","<div style=""color:white; font-size:60px;"">+</div>","null","html-keyboard-response","619","1028887","0.0-21.0-1.13","fixation","","","","",""
"1099","Stimuli/Hangul_M36.bmp","190","image-keyboard-response","620","1029989","0.0-21.0-2.13","c2_test",",","","","","."
"314","<p style=""color:white;""> Next Figure: Male or Female? </p>","190","html-keyboard-response","621","1030306","0.0-21.0-0.14","prediction","","","",".",""
"null","<div style=""color:white; font-size:60px;"">+</div>","null","html-keyboard-response","622","1031327","0.0-21.0-1.14","fixation","","","","",""
"915","Stimuli/Hangul_M47.bmp","188","image-keyboard-response","623","1032245","0.0-21.0-2.14","c2_test",",","","","",","
"393","<p style=""color:white;""> Next Figure: Male or Female? </p>","188","html-keyboard-response","624","1032637","0.0-21.0-0.15","prediction","","","",",",""
"null","<div style=""color:white; font-size:60px;"">+</div>","null","html-keyboard-response","625","1033656","0.0-21.0-1.15","fixation","","","","",""
"502","Stimuli/Hangul_M34.bmp","188","image-keyboard-response","626","1034160","0.0-21.0-2.15","c2_test",",","","","",","
"229","<p style=""color:white;""> Next Figure: Male or Female? </p>","188","html-keyboard-response","627","1034391","0.0-21.0-0.16","prediction","","","",",",""
"null","<div style=""color:white; font-size:60px;"">+</div>","null","html-keyboard-response","628","1035406","0.0-21.0-1.16","fixation","","","","",""
"591","Stimuli/Hangul_F35.bmp","188","image-keyboard-response","629","1035999","0.0-21.0-2.16","c2_test",".","","","",","
"213","<p style=""color:white;""> Next Figure: Male or Female? </p>","188","html-keyboard-response","630","1036216","0.0-21.0-0.17","prediction","","","",",",""
"null","<div style=""color:white; font-size:60px;"">+</div>","null","html-keyboard-response","631","1037236","0.0-21.0-1.17","fixation","","","","",""
"958","Stimuli/Hangul_M40.bmp","190","image-keyboard-response","632","1038197","0.0-21.0-2.17","c2_test",",","","","","."
"210","<p style=""color:white;""> Next Figure: Male or Female? </p>","190","html-keyboard-response","633","1038409","0.0-21.0-0.18","prediction","","","",".",""
"null","<div style=""color:white; font-size:60px;"">+</div>","null","html-keyboard-response","634","1039426","0.0-21.0-1.18","fixation","","","","",""
"468","Stimuli/Hangul_F46.bmp","188","image-keyboard-response","635","1039897","0.0-21.0-2.18","c2_test",".","","","",","
"293","<p style=""color:white;""> Next Figure: Male or Female? </p>","188","html-keyboard-response","636","1040193","0.0-21.0-0.19","prediction","","","",",",""
"null","<div style=""color:white; font-size:60px;"">+</div>","null","html-keyboard-response","637","1041207","0.0-21.0-1.19","fixation","","","","",""
"484","Stimuli/Hangul_F38.bmp","188","image-keyboard-response","638","1041692","0.0-21.0-2.19","c2_test",".","","","",","
"202","<p style=""color:white;""> Next Figure: Male or Female? </p>","188","html-keyboard-response","639","1041896","0.0-21.0-0.20","prediction","","","",",",""
"null","<div style=""color:white; font-size:60px;"">+</div>","null","html-keyboard-response","640","1042907","0.0-21.0-1.20","fixation","","","","",""
"492","Stimuli/Hangul_M48.bmp","188","image-keyboard-response","641","1043401","0.0-21.0-2.20","c2_test",",","","","",","
"214","<p style=""color:white;""> Next Figure: Male or Female? </p>","188","html-keyboard-response","642","1043619","0.0-21.0-0.21","prediction","","","",",",""
"null","<div style=""color:white; font-size:60px;"">+</div>","null","html-keyboard-response","643","1044635","0.0-21.0-1.21","fixation","","","","",""
"1133","Stimuli/Hangul_F37.bmp","188","image-keyboard-response","644","1045771","0.0-21.0-2.21","c2_test",".","","","",","
"180","<p style=""color:white;""> Next Figure: Male or Female? </p>","188","html-keyboard-response","645","1045955","0.0-21.0-0.22","prediction","","","",",",""
"null","<div style=""color:white; font-size:60px;"">+</div>","null","html-keyboard-response","646","1046966","0.0-21.0-1.22","fixation","","","","",""
"563","Stimuli/Hangul_M27.bmp","188","image-keyboard-response","647","1047532","0.0-21.0-2.22","c2_test",",","","","",","
"613","<p style=""color:white;""> Next Figure: Male or Female? </p>","188","html-keyboard-response","648","1048148","0.0-21.0-0.23","prediction","","","",",",""
"null","<div style=""color:white; font-size:60px;"">+</div>","null","html-keyboard-response","649","1049167","0.0-21.0-1.23","fixation","","","","",""
"389","Stimuli/Hangul_F25.bmp","190","image-keyboard-response","650","1049558","0.0-21.0-2.23","c2_test",".","","","","."
"360","<p style=""color:white;""> Next Figure: Male or Female? </p>","190","html-keyboard-response","651","1049921","0.0-21.0-0.24","prediction","","","",".",""
"null","<div style=""color:white; font-size:60px;"">+</div>","null","html-keyboard-response","652","1050926","0.0-21.0-1.24","fixation","","","","",""
"512","Stimuli/Hangul_M37.bmp","190","image-keyboard-response","653","1051441","0.0-21.0-2.24","c2_test",",","","","","."
"292","<p style=""color:white;""> Next Figure: Male or Female? </p>","190","html-keyboard-response","654","1051736","0.0-21.0-0.25","prediction","","","",".",""
"null","<div style=""color:white; font-size:60px;"">+</div>","null","html-keyboard-response","655","1052756","0.0-21.0-1.25","fixation","","","","",""
"1066","Stimuli/Hangul_M42.bmp","188","image-keyboard-response","656","1053824","0.0-21.0-2.25","c2_test",",","","","",","
"241","<p style=""color:white;""> Next Figure: Male or Female? </p>","188","html-keyboard-response","657","1054068","0.0-21.0-0.26","prediction","","","",",",""
"null","<div style=""color:white; font-size:60px;"">+</div>","null","html-keyboard-response","658","1055086","0.0-21.0-1.26","fixation","","","","",""
"1219","Stimuli/Hangul_M41.bmp","190","image-keyboard-response","659","1056308","0.0-21.0-2.26","c2_test",",","","","","."
"221","<p style=""color:white;""> Next Figure: Male or Female? </p>","190","html-keyboard-response","660","1056530","0.0-21.0-0.27","prediction","","","",".",""
"null","<div style=""color:white; font-size:60px;"">+</div>","null","html-keyboard-response","661","1057546","0.0-21.0-1.27","fixation","","","","",""
"637","Stimuli/Hangul_F42.bmp","188","image-keyboard-response","662","1058186","0.0-21.0-2.27","c2_test",".","","","",","
"192","<p style=""color:white;""> Next Figure: Male or Female? </p>","188","html-keyboard-response","663","1058381","0.0-21.0-0.28","prediction","","","",",",""
"null","<div style=""color:white; font-size:60px;"">+</div>","null","html-keyboard-response","664","1059387","0.0-21.0-1.28","fixation","","","","",""
"619","Stimuli/Hangul_F36.bmp","188","image-keyboard-response","665","1060008","0.0-21.0-2.28","c2_test",".","","","",","
"205","<p style=""color:white;""> Next Figure: Male or Female? </p>","188","html-keyboard-response","666","1060215","0.0-21.0-0.29","prediction","","","",",",""
"null","<div style=""color:white; font-size:60px;"">+</div>","null","html-keyboard-response","667","1061237","0.0-21.0-1.29","fixation","","","","",""
"682","Stimuli/Hangul_M35.bmp","188","image-keyboard-response","668","1061921","0.0-21.0-2.29","c2_test",",","","","",","
"184","<p style=""color:white;""> Next Figure: Male or Female? </p>","188","html-keyboard-response","669","1062107","0.0-21.0-0.30","prediction","","","",",",""
"null","<div style=""color:white; font-size:60px;"">+</div>","null","html-keyboard-response","670","1063111","0.0-21.0-1.30","fixation","","","","",""
"562","Stimuli/Hangul_F41.bmp","188","image-keyboard-response","671","1063676","0.0-21.0-2.30","c2_test",".","","","",","
"212","<p style=""color:white;""> Next Figure: Male or Female? </p>","188","html-keyboard-response","672","1063889","0.0-21.0-0.31","prediction","","","",",",""
"null","<div style=""color:white; font-size:60px;"">+</div>","null","html-keyboard-response","673","1064896","0.0-21.0-1.31","fixation","","","","",""
"798","Stimuli/Hangul_F43.bmp","188","image-keyboard-response","674","1065697","0.0-21.0-2.31","c2_test",".","","","",","
"238","<p style=""color:white;""> Next Figure: Male or Female? </p>","188","html-keyboard-response","675","1065938","0.0-21.0-0.32","prediction","","","",",",""
"null","<div style=""color:white; font-size:60px;"">+</div>","null","html-keyboard-response","676","1066946","0.0-21.0-1.32","fixation","","","","",""
"1706","Stimuli/Hangul_F44.bmp","190","image-keyboard-response","677","1068654","0.0-21.0-2.32","c2_test",".","","","","."
"718","<p style=""color:white;""> Next Figure: Male or Female? </p>","190","html-keyboard-response","678","1069376","0.0-21.0-0.33","prediction","","","",".",""
"null","<div style=""color:white; font-size:60px;"">+</div>","null","html-keyboard-response","679","1070378","0.0-21.0-1.33","fixation","","","","",""
"595","Stimuli/Hangul_M38.bmp","188","image-keyboard-response","680","1070977","0.0-21.0-2.33","c2_test",",","","","",","
"204","<p style=""color:white;""> Next Figure: Male or Female? </p>","188","html-keyboard-response","681","1071181","0.0-21.0-0.34","prediction","","","",",",""
"null","<div style=""color:white; font-size:60px;"">+</div>","null","html-keyboard-response","682","1072196","0.0-21.0-1.34","fixation","","","","",""
"696","Stimuli/Hangul_F48.bmp","188","image-keyboard-response","683","1072897","0.0-21.0-2.34","c2_test",".","","","",","
"240","<p style=""color:white;""> Next Figure: Male or Female? </p>","188","html-keyboard-response","684","1073139","0.0-21.0-0.35","prediction","","","",",",""
"null","<div style=""color:white; font-size:60px;"">+</div>","null","html-keyboard-response","685","1074146","0.0-21.0-1.35","fixation","","","","",""
"604","Stimuli/Hangul_M33.bmp","188","image-keyboard-response","686","1074752","0.0-21.0-2.35","c2_test",",","","","",","
"220","<p style=""color:white;""> Next Figure: Male or Female? </p>","188","html-keyboard-response","687","1074975","0.0-21.0-0.36","prediction","","","",",",""
"null","<div style=""color:white; font-size:60px;"">+</div>","null","html-keyboard-response","688","1075986","0.0-21.0-1.36","fixation","","","","",""
"758","Stimuli/Hangul_F30.bmp","188","image-keyboard-response","689","1076749","0.0-21.0-2.36","c2_test",".","","","",","
"214","<p style=""color:white;""> Next Figure: Male or Female? </p>","188","html-keyboard-response","690","1076965","0.0-21.0-0.37","prediction","","","",",",""
"null","<div style=""color:white; font-size:60px;"">+</div>","null","html-keyboard-response","691","1077976","0.0-21.0-1.37","fixation","","","","",""
"640","Stimuli/Hangul_M30.bmp","188","image-keyboard-response","692","1078619","0.0-21.0-2.37","c2_test",",","","","",","
"192","<p style=""color:white;""> Next Figure: Male or Female? </p>","188","html-keyboard-response","693","1078813","0.0-21.0-0.38","prediction","","","",",",""
