"rt","stimulus","key_press","trial_type","trial_index","time_elapsed","internal_node_id","test_part","correct_response","C1_train","C1","A","C2"
"1399.9250000342727","<p style=""color:white;"">Welcome to the experiment! Press any key to begin.</p>","32","html-keyboard-response","0","1412","0.0-0.0","","","","","",""
"4722.334999998566","<p style=""color:white;"">You will see a series of abstract figures. They are adaptations of signs in the Korean alphabet, but that is not important for this study. </p><p style=""color:white;"">Abstract figures sometimes have a more masculine or feminine shape. Here, each figure has already been assigned a gender as <q>Male</q> or <q>Female</q> by a panel of respondents in a pilot study. The respondents were not given specific instructions on how to do this, but were only told to use their intuition and to take into account the entire configuration of the stimulus. </p><p style=""color:white;"">Your task now is to guess the assigned gender of each figure. Please press the corresponding response keys to indicate your choice: </p><p style=""color:white;""> Male &#8594 <q>,</q> (comma)</p><p style=""color:white;""> Female &#8594 <q>.</q> (period)</p><p style=""color:white;"">Press either response keys to continue.</p>","190","html-keyboard-response","1","6136","0.0-1.0","","","","","",""
"1192.5150000024587","<p style=""color:white;"">Your choice is correct if it matches the gender assigned by the majority of respondents in the pilot study.</p> <p style=""color:white;"">For each correct choice you will receive 2 cents. There will be 200 trials divided into 4 blocks of 50 trials. You will be able to take a break after every 50 trials.</p> <p style=""color:white;"">Press the space bar to continue.</p>","32","html-keyboard-response","2","7329","0.0-2.0","","","","","",""
"1623.5449999803677","<p style=""color:white;"">Here are some examples.</p> <p style=""color:white;"">For each, guess whether the assigned figure is male-like or female-like and indicate your choice by pressing either response keys.</p> <p style=""color:white;"">Press the space bar to continue.</p>","32","html-keyboard-response","3","8954","0.0-3.0","","","","","",""
"null","<div style=""color:white; font-size:60px;"">+</div>","null","html-keyboard-response","4","11958","0.0-4.0-0.0","fixation","","","","",""
"1491.565000033006","Stimuli/Hangul_E0.bmp","190","image-keyboard-response","5","13454","0.0-4.0-1.0","c1_train",",",".","","",""
"null","<div style=""color:white; font-size:60px;"">+</div>","null","html-keyboard-response","6","14456","0.0-4.0-0.1","fixation","","","","",""
"1994.2499999888241","Stimuli/Hangul_E1.bmp","190","image-keyboard-response","7","16452","0.0-4.0-1.1","c1_train",",",".","","",""
"null","<div style=""color:white; font-size:60px;"">+</div>","null","html-keyboard-response","8","17454","0.0-4.0-0.2","fixation","","","","",""
"1744.5549999829382","Stimuli/Hangul_E2.bmp","190","image-keyboard-response","9","19199","0.0-4.0-1.2","c1_train",".",".","","",""
"1185.315000009723","<p style=""color:white;"">Let us begin! Press the space bar when you are ready to start block 1 of 4.</p> ","32","html-keyboard-response","10","20386","0.0-5.0","","","","","",""
"null","<div style=""color:white; font-size:60px;"">+</div>","null","html-keyboard-response","11","23392","0.0-6.0-0.0","fixation","","","","",""
"894.3749999743886","Stimuli/Hangul_F24.bmp","190","image-keyboard-response","12","24288","0.0-6.0-1.0","test",".","",".","",""
"null","<div style=""color:white; font-size:60px;"">+</div>","null","html-keyboard-response","13","25290","0.0-6.0-0.1","fixation","","","","",""
"1367.1299999696203","Stimuli/Hangul_M17.bmp","190","image-keyboard-response","14","26658","0.0-6.0-1.1","test",",","",".","",""
"null","<div style=""color:white; font-size:60px;"">+</div>","null","html-keyboard-response","15","27660","0.0-6.0-0.2","fixation","","","","",""
"1807.779999973718","Stimuli/Hangul_F17.bmp","190","image-keyboard-response","16","29469","0.0-6.0-1.2","test",".","",".","",""
"null","<div style=""color:white; font-size:60px;"">+</div>","null","html-keyboard-response","17","30472","0.0-6.0-0.3","fixation","","","","",""
"1317.6149999490008","Stimuli/Hangul_F15.bmp","190","image-keyboard-response","18","31791","0.0-6.0-1.3","test",".","",".","",""
"null","<div style=""color:white; font-size:60px;"">+</div>","null","html-keyboard-response","19","32793","0.0-6.0-0.4","fixation","","","","",""
"1393.8999999663793","Stimuli/Hangul_M8.bmp","188","image-keyboard-response","20","34188","0.0-6.0-1.4","test",",","",",","",""
"null","<div style=""color:white; font-size:60px;"">+</div>","null","html-keyboard-response","21","35190","0.0-6.0-0.5","fixation","","","","",""
"1304.4099999824539","Stimuli/Hangul_M19.bmp","190","image-keyboard-response","22","36496","0.0-6.0-1.5","test",",","",".","",""
"null","<div style=""color:white; font-size:60px;"">+</div>","null","html-keyboard-response","23","37499","0.0-6.0-0.6","fixation","","","","",""
"752.745000005234","Stimuli/Hangul_M22.bmp","188","image-keyboard-response","24","38253","0.0-6.0-1.6","test",",","",",","",""
"null","<div style=""color:white; font-size:60px;"">+</div>","null","html-keyboard-response","25","39257","0.0-6.0-0.7","fixation","","","","",""
"827.3649999755435","Stimuli/Hangul_M6.bmp","190","image-keyboard-response","26","40085","0.0-6.0-1.7","test",",","",".","",""
"null","<div style=""color:white; font-size:60px;"">+</div>","null","html-keyboard-response","27","41087","0.0-6.0-0.8","fixation","","","","",""
"833.5300000035204","Stimuli/Hangul_F16.bmp","188","image-keyboard-response","28","41921","0.0-6.0-1.8","test",".","",",","",""
"null","<div style=""color:white; font-size:60px;"">+</div>","null","html-keyboard-response","29","42927","0.0-6.0-0.9","fixation","","","","",""
"1190.3549999697134","Stimuli/Hangul_F5.bmp","188","image-keyboard-response","30","44119","0.0-6.0-1.9","test",".","",",","",""
"null","<div style=""color:white; font-size:60px;"">+</div>","null","html-keyboard-response","31","45120","0.0-6.0-0.10","fixation","","","","",""
"733.185000019148","Stimuli/Hangul_F1.bmp","188","image-keyboard-response","32","45854","0.0-6.0-1.10","test",".","",",","",""
"null","<div style=""color:white; font-size:60px;"">+</div>","null","html-keyboard-response","33","46856","0.0-6.0-0.11","fixation","","","","",""
"824.6999999973923","Stimuli/Hangul_M1.bmp","188","image-keyboard-response","34","47681","0.0-6.0-1.11","test",",","",",","",""
"null","<div style=""color:white; font-size:60px;"">+</div>","null","html-keyboard-response","35","48684","0.0-6.0-0.12","fixation","","","","",""
"1203.4249999560416","Stimuli/Hangul_F11.bmp","188","image-keyboard-response","36","49888","0.0-6.0-1.12","test",".","",",","",""
"null","<div style=""color:white; font-size:60px;"">+</div>","null","html-keyboard-response","37","50890","0.0-6.0-0.13","fixation","","","","",""
"446.30999997025356","Stimuli/Hangul_M16.bmp","190","image-keyboard-response","38","51338","0.0-6.0-1.13","test",",","",".","",""
"null","<div style=""color:white; font-size:60px;"">+</div>","null","html-keyboard-response","39","52340","0.0-6.0-0.14","fixation","","","","",""
"710.5050000245683","Stimuli/Hangul_F10.bmp","188","image-keyboard-response","40","53052","0.0-6.0-1.14","test",".","",",","",""
"null","<div style=""color:white; font-size:60px;"">+</div>","null","html-keyboard-response","41","54053","0.0-6.0-0.15","fixation","","","","",""
"413.34500000812113","Stimuli/Hangul_M0.bmp","188","image-keyboard-response","42","54467","0.0-6.0-1.15","test",",","",",","",""
"null","<div style=""color:white; font-size:60px;"">+</div>","null","html-keyboard-response","43","55471","0.0-6.0-0.16","fixation","","","","",""
"511.04999997187406","Stimuli/Hangul_F7.bmp","188","image-keyboard-response","44","55983","0.0-6.0-1.16","test",".","",",","",""
"null","<div style=""color:white; font-size:60px;"">+</div>","null","html-keyboard-response","45","56985","0.0-6.0-0.17","fixation","","","","",""
"587.9999999888241","Stimuli/Hangul_M20.bmp","190","image-keyboard-response","46","57574","0.0-6.0-1.17","test",",","",".","",""
"null","<div style=""color:white; font-size:60px;"">+</div>","null","html-keyboard-response","47","58576","0.0-6.0-0.18","fixation","","","","",""
"798.609999998007","Stimuli/Hangul_M7.bmp","188","image-keyboard-response","48","59376","0.0-6.0-1.18","test",",","",",","",""
"null","<div style=""color:white; font-size:60px;"">+</div>","null","html-keyboard-response","49","60377","0.0-6.0-0.19","fixation","","","","",""
"745.0049999752082","Stimuli/Hangul_F23.bmp","188","image-keyboard-response","50","61123","0.0-6.0-1.19","test",".","",",","",""
"null","<div style=""color:white; font-size:60px;"">+</div>","null","html-keyboard-response","51","62125","0.0-6.0-0.20","fixation","","","","",""
"839.0299999737181","Stimuli/Hangul_M24.bmp","188","image-keyboard-response","52","62966","0.0-6.0-1.20","test",",","",",","",""
"null","<div style=""color:white; font-size:60px;"">+</div>","null","html-keyboard-response","53","63968","0.0-6.0-0.21","fixation","","","","",""
"1734.6750000142492","Stimuli/Hangul_M4.bmp","188","image-keyboard-response","54","65704","0.0-6.0-1.21","test",",","",",","",""
"null","<div style=""color:white; font-size:60px;"">+</div>","null","html-keyboard-response","55","66705","0.0-6.0-0.22","fixation","","","","",""
"3547.5449999794364","Stimuli/Hangul_M15.bmp","188","image-keyboard-response","56","70254","0.0-6.0-1.22","test",",","",",","",""
"null","<div style=""color:white; font-size:60px;"">+</div>","null","html-keyboard-response","57","71255","0.0-6.0-0.23","fixation","","","","",""
"1225.2800000132993","Stimuli/Hangul_F0.bmp","190","image-keyboard-response","58","72482","0.0-6.0-1.23","test",".","",".","",""
"null","<div style=""color:white; font-size:60px;"">+</div>","null","html-keyboard-response","59","73485","0.0-6.0-0.24","fixation","","","","",""
"779.2750000371598","Stimuli/Hangul_M18.bmp","190","image-keyboard-response","60","74266","0.0-6.0-1.24","test",",","",".","",""
"null","<div style=""color:white; font-size:60px;"">+</div>","null","html-keyboard-response","61","75269","0.0-6.0-0.25","fixation","","","","",""
"778.5449999500997","Stimuli/Hangul_F12.bmp","188","image-keyboard-response","62","76049","0.0-6.0-1.25","test",".","",",","",""
"null","<div style=""color:white; font-size:60px;"">+</div>","null","html-keyboard-response","63","77050","0.0-6.0-0.26","fixation","","","","",""
"3883.1800000043586","Stimuli/Hangul_M14.bmp","190","image-keyboard-response","64","80935","0.0-6.0-1.26","test",",","",".","",""
"null","<div style=""color:white; font-size:60px;"">+</div>","null","html-keyboard-response","65","81936","0.0-6.0-0.27","fixation","","","","",""
"437.47499998426065","Stimuli/Hangul_M3.bmp","190","image-keyboard-response","66","82375","0.0-6.0-1.27","test",",","",".","",""
"null","<div style=""color:white; font-size:60px;"">+</div>","null","html-keyboard-response","67","83378","0.0-6.0-0.28","fixation","","","","",""
"1323.259999975562","Stimuli/Hangul_F3.bmp","190","image-keyboard-response","68","84703","0.0-6.0-1.28","test",".","",".","",""
"null","<div style=""color:white; font-size:60px;"">+</div>","null","html-keyboard-response","69","85705","0.0-6.0-0.29","fixation","","","","",""
"1998.6899999785237","Stimuli/Hangul_M13.bmp","190","image-keyboard-response","70","87705","0.0-6.0-1.29","test",",","",".","",""
"null","<div style=""color:white; font-size:60px;"">+</div>","null","html-keyboard-response","71","88706","0.0-6.0-0.30","fixation","","","","",""
"2236.6849999525584","Stimuli/Hangul_M23.bmp","190","image-keyboard-response","72","90944","0.0-6.0-1.30","test",",","",".","",""
"null","<div style=""color:white; font-size:60px;"">+</div>","null","html-keyboard-response","73","91950","0.0-6.0-0.31","fixation","","","","",""
"3904.0050000185147","Stimuli/Hangul_F6.bmp","190","image-keyboard-response","74","95855","0.0-6.0-1.31","test",".","",".","",""
"null","<div style=""color:white; font-size:60px;"">+</div>","null","html-keyboard-response","75","96857","0.0-6.0-0.32","fixation","","","","",""
"5012.4500000383705","Stimuli/Hangul_M2.bmp","190","image-keyboard-response","76","101871","0.0-6.0-1.32","test",",","",".","",""
"null","<div style=""color:white; font-size:60px;"">+</div>","null","html-keyboard-response","77","102872","0.0-6.0-0.33","fixation","","","","",""
"2655.830000003334","Stimuli/Hangul_F4.bmp","190","image-keyboard-response","78","105529","0.0-6.0-1.33","test",".","",".","",""
"null","<div style=""color:white; font-size:60px;"">+</div>","null","html-keyboard-response","79","106531","0.0-6.0-0.34","fixation","","","","",""
"2570.4900000127964","Stimuli/Hangul_F18.bmp","190","image-keyboard-response","80","109102","0.0-6.0-1.34","test",".","",".","",""
"null","<div style=""color:white; font-size:60px;"">+</div>","null","html-keyboard-response","81","110105","0.0-6.0-0.35","fixation","","","","",""
"507.68500001868233","Stimuli/Hangul_F21.bmp","190","image-keyboard-response","82","110616","0.0-6.0-1.35","test",".","",".","",""
"null","<div style=""color:white; font-size:60px;"">+</div>","null","html-keyboard-response","83","111618","0.0-6.0-0.36","fixation","","","","",""
"1974.5950000360608","Stimuli/Hangul_M21.bmp","188","image-keyboard-response","84","113593","0.0-6.0-1.36","test",",","",",","",""
"null","<div style=""color:white; font-size:60px;"">+</div>","null","html-keyboard-response","85","114595","0.0-6.0-0.37","fixation","","","","",""
"5527.634999947622","Stimuli/Hangul_F9.bmp","190","image-keyboard-response","86","120124","0.0-6.0-1.37","test",".","",".","",""
"null","<div style=""color:white; font-size:60px;"">+</div>","null","html-keyboard-response","87","121127","0.0-6.0-0.38","fixation","","","","",""
"2324.049999995623","Stimuli/Hangul_M5.bmp","188","image-keyboard-response","88","123457","0.0-6.0-1.38","test",",","",",","",""
"null","<div style=""color:white; font-size:60px;"">+</div>","null","html-keyboard-response","89","124479","0.0-6.0-0.39","fixation","","","","",""
"4386.500000022352","Stimuli/Hangul_F14.bmp","188","image-keyboard-response","90","128868","0.0-6.0-1.39","test",".","",",","",""
"null","<div style=""color:white; font-size:60px;"">+</div>","null","html-keyboard-response","91","129869","0.0-6.0-0.40","fixation","","","","",""
"1527.9549999977462","Stimuli/Hangul_F13.bmp","188","image-keyboard-response","92","131399","0.0-6.0-1.40","test",".","",",","",""
"null","<div style=""color:white; font-size:60px;"">+</div>","null","html-keyboard-response","93","132400","0.0-6.0-0.41","fixation","","","","",""
"2034.8050000029616","Stimuli/Hangul_M12.bmp","190","image-keyboard-response","94","134436","0.0-6.0-1.41","test",",","",".","",""
"null","<div style=""color:white; font-size:60px;"">+</div>","null","html-keyboard-response","95","135438","0.0-6.0-0.42","fixation","","","","",""
"1930.045000044629","Stimuli/Hangul_F20.bmp","188","image-keyboard-response","96","137370","0.0-6.0-1.42","test",".","",",","",""
"null","<div style=""color:white; font-size:60px;"">+</div>","null","html-keyboard-response","97","138371","0.0-6.0-0.43","fixation","","","","",""
"1717.1200000448152","Stimuli/Hangul_M11.bmp","190","image-keyboard-response","98","140090","0.0-6.0-1.43","test",",","",".","",""
"null","<div style=""color:white; font-size:60px;"">+</div>","null","html-keyboard-response","99","141091","0.0-6.0-0.44","fixation","","","","",""
"1926.7549999640323","Stimuli/Hangul_F19.bmp","190","image-keyboard-response","100","143019","0.0-6.0-1.44","test",".","",".","",""
"null","<div style=""color:white; font-size:60px;"">+</div>","null","html-keyboard-response","101","144021","0.0-6.0-0.45","fixation","","","","",""
"1851.7899999860674","Stimuli/Hangul_M10.bmp","190","image-keyboard-response","102","145877","0.0-6.0-1.45","test",",","",".","",""
"null","<div style=""color:white; font-size:60px;"">+</div>","null","html-keyboard-response","103","146878","0.0-6.0-0.46","fixation","","","","",""
"4703.244999982417","Stimuli/Hangul_F8.bmp","188","image-keyboard-response","104","151583","0.0-6.0-1.46","test",".","",",","",""
"null","<div style=""color:white; font-size:60px;"">+</div>","null","html-keyboard-response","105","152584","0.0-6.0-0.47","fixation","","","","",""
"500.995000009425","Stimuli/Hangul_F2.bmp","188","image-keyboard-response","106","153086","0.0-6.0-1.47","test",".","",",","",""
"null","<div style=""color:white; font-size:60px;"">+</div>","null","html-keyboard-response","107","154089","0.0-6.0-0.48","fixation","","","","",""
"2844.84000003431","Stimuli/Hangul_F22.bmp","188","image-keyboard-response","108","156938","0.0-6.0-1.48","test",".","",",","",""
"null","<div style=""color:white; font-size:60px;"">+</div>","null","html-keyboard-response","109","157939","0.0-6.0-0.49","fixation","","","","",""
"3854.634999996051","Stimuli/Hangul_M9.bmp","188","image-keyboard-response","110","161795","0.0-6.0-1.49","test",",","",",","",""
"20004.910000017844","<p style=""color:white;"">Good job, block 1 complete! Please take a moment to rest.</p> <p style=""color:white;"">When you are ready to continue with block 2 of 4, press the space bar.</p> ","32","html-keyboard-response","111","181801","0.0-7.0","","","","","",""
"null","<div style=""color:white; font-size:60px;"">+</div>","null","html-keyboard-response","112","184806","0.0-8.0-0.0","fixation","","","","",""
"265.40999999269843","Stimuli/Hangul_F42.bmp","190","image-keyboard-response","113","185073","0.0-8.0-1.0","test",".","",".","",""
"null","<div style=""color:white; font-size:60px;"">+</div>","null","html-keyboard-response","114","186076","0.0-8.0-0.1","fixation","","","","",""
"978.2399999676272","Stimuli/Hangul_F34.bmp","190","image-keyboard-response","115","187055","0.0-8.0-1.1","test",".","",".","",""
"null","<div style=""color:white; font-size:60px;"">+</div>","null","html-keyboard-response","116","188059","0.0-8.0-0.2","fixation","","","","",""
"1308.980000030715","Stimuli/Hangul_M46.bmp","188","image-keyboard-response","117","189369","0.0-8.0-1.2","test",",","",",","",""
"null","<div style=""color:white; font-size:60px;"">+</div>","null","html-keyboard-response","118","190372","0.0-8.0-0.3","fixation","","","","",""
"1392.0599999837577","Stimuli/Hangul_F43.bmp","188","image-keyboard-response","119","191766","0.0-8.0-1.3","test",".","",",","",""
"null","<div style=""color:white; font-size:60px;"">+</div>","null","html-keyboard-response","120","192768","0.0-8.0-0.4","fixation","","","","",""
"1386.724999989383","Stimuli/Hangul_F47.bmp","190","image-keyboard-response","121","194156","0.0-8.0-1.4","test",".","",".","",""
"null","<div style=""color:white; font-size:60px;"">+</div>","null","html-keyboard-response","122","195158","0.0-8.0-0.5","fixation","","","","",""
"1351.9450000021607","Stimuli/Hangul_F40.bmp","190","image-keyboard-response","123","196514","0.0-8.0-1.5","test",".","",".","",""
"null","<div style=""color:white; font-size:60px;"">+</div>","null","html-keyboard-response","124","197516","0.0-8.0-0.6","fixation","","","","",""
"943.3449999778531","Stimuli/Hangul_M30.bmp","188","image-keyboard-response","125","198461","0.0-8.0-1.6","test",",","",",","",""
"null","<div style=""color:white; font-size:60px;"">+</div>","null","html-keyboard-response","126","199465","0.0-8.0-0.7","fixation","","","","",""
"1239.1000000061467","Stimuli/Hangul_F25.bmp","190","image-keyboard-response","127","200707","0.0-8.0-1.7","test",".","",".","",""
"null","<div style=""color:white; font-size:60px;"">+</div>","null","html-keyboard-response","128","201710","0.0-8.0-0.8","fixation","","","","",""
"1319.6150000439957","Stimuli/Hangul_M25.bmp","188","image-keyboard-response","129","203031","0.0-8.0-1.8","test",",","",",","",""
"null","<div style=""color:white; font-size:60px;"">+</div>","null","html-keyboard-response","130","204033","0.0-8.0-0.9","fixation","","","","",""
"1004.9550000112504","Stimuli/Hangul_M42.bmp","188","image-keyboard-response","131","205039","0.0-8.0-1.9","test",",","",",","",""
"null","<div style=""color:white; font-size:60px;"">+</div>","null","html-keyboard-response","132","206042","0.0-8.0-0.10","fixation","","","","",""
"1465.4849999933504","Stimuli/Hangul_M45.bmp","188","image-keyboard-response","133","207508","0.0-8.0-1.10","test",",","",",","",""
"null","<div style=""color:white; font-size:60px;"">+</div>","null","html-keyboard-response","134","208510","0.0-8.0-0.11","fixation","","","","",""
"1411.8949999683537","Stimuli/Hangul_F46.bmp","188","image-keyboard-response","135","209923","0.0-8.0-1.11","test",".","",",","",""
"null","<div style=""color:white; font-size:60px;"">+</div>","null","html-keyboard-response","136","210925","0.0-8.0-0.12","fixation","","","","",""
"1378.7449999945238","Stimuli/Hangul_F36.bmp","188","image-keyboard-response","137","212305","0.0-8.0-1.12","test",".","",",","",""
"null","<div style=""color:white; font-size:60px;"">+</div>","null","html-keyboard-response","138","213307","0.0-8.0-0.13","fixation","","","","",""
"1012.6199999940582","Stimuli/Hangul_F38.bmp","190","image-keyboard-response","139","214320","0.0-8.0-1.13","test",".","",".","",""
"null","<div style=""color:white; font-size:60px;"">+</div>","null","html-keyboard-response","140","215322","0.0-8.0-0.14","fixation","","","","",""
"2338.9249999891035","Stimuli/Hangul_F45.bmp","188","image-keyboard-response","141","217662","0.0-8.0-1.14","test",".","",",","",""
"null","<div style=""color:white; font-size:60px;"">+</div>","null","html-keyboard-response","142","218663","0.0-8.0-0.15","fixation","","","","",""
"2554.8500000149943","Stimuli/Hangul_F39.bmp","188","image-keyboard-response","143","221219","0.0-8.0-1.15","test",".","",",","",""
"null","<div style=""color:white; font-size:60px;"">+</div>","null","html-keyboard-response","144","222225","0.0-8.0-0.16","fixation","","","","",""
"4009.2349999467842","Stimuli/Hangul_M36.bmp","188","image-keyboard-response","145","226235","0.0-8.0-1.16","test",",","",",","",""
"null","<div style=""color:white; font-size:60px;"">+</div>","null","html-keyboard-response","146","227237","0.0-8.0-0.17","fixation","","","","",""
"1785.7599999988452","Stimuli/Hangul_F32.bmp","188","image-keyboard-response","147","229024","0.0-8.0-1.17","test",".","",",","",""
"null","<div style=""color:white; font-size:60px;"">+</div>","null","html-keyboard-response","148","230027","0.0-8.0-0.18","fixation","","","","",""
"1566.5699999663047","Stimuli/Hangul_M39.bmp","190","image-keyboard-response","149","231594","0.0-8.0-1.18","test",",","",".","",""
"null","<div style=""color:white; font-size:60px;"">+</div>","null","html-keyboard-response","150","232596","0.0-8.0-0.19","fixation","","","","",""
"1523.0899999733083","Stimuli/Hangul_M40.bmp","188","image-keyboard-response","151","234120","0.0-8.0-1.19","test",",","",",","",""
"null","<div style=""color:white; font-size:60px;"">+</div>","null","html-keyboard-response","152","235123","0.0-8.0-0.20","fixation","","","","",""
"262.44999998016283","Stimuli/Hangul_M26.bmp","190","image-keyboard-response","153","235386","0.0-8.0-1.20","test",",","",".","",""
"null","<div style=""color:white; font-size:60px;"">+</div>","null","html-keyboard-response","154","236388","0.0-8.0-0.21","fixation","","","","",""
"1180.9550000471063","Stimuli/Hangul_M43.bmp","190","image-keyboard-response","155","237570","0.0-8.0-1.21","test",",","",".","",""
"null","<div style=""color:white; font-size:60px;"">+</div>","null","html-keyboard-response","156","238571","0.0-8.0-0.22","fixation","","","","",""
"1059.3799999915063","Stimuli/Hangul_M37.bmp","190","image-keyboard-response","157","239632","0.0-8.0-1.22","test",",","",".","",""
"null","<div style=""color:white; font-size:60px;"">+</div>","null","html-keyboard-response","158","240634","0.0-8.0-0.23","fixation","","","","",""
"1306.5799999749288","Stimuli/Hangul_M41.bmp","190","image-keyboard-response","159","241941","0.0-8.0-1.23","test",",","",".","",""
"null","<div style=""color:white; font-size:60px;"">+</div>","null","html-keyboard-response","160","242943","0.0-8.0-0.24","fixation","","","","",""
"1300.5349999875762","Stimuli/Hangul_M29.bmp","188","image-keyboard-response","161","244244","0.0-8.0-1.24","test",",","",",","",""
"null","<div style=""color:white; font-size:60px;"">+</div>","null","html-keyboard-response","162","245246","0.0-8.0-0.25","fixation","","","","",""
"2381.325000023935","Stimuli/Hangul_F33.bmp","188","image-keyboard-response","163","247635","0.0-8.0-1.25","test",".","",",","",""
"null","<div style=""color:white; font-size:60px;"">+</div>","null","html-keyboard-response","164","248637","0.0-8.0-0.26","fixation","","","","",""
"3167.7700000000186","Stimuli/Hangul_M38.bmp","188","image-keyboard-response","165","251806","0.0-8.0-1.26","test",",","",",","",""
"null","<div style=""color:white; font-size:60px;"">+</div>","null","html-keyboard-response","166","252808","0.0-8.0-0.27","fixation","","","","",""
"2051.350000023376","Stimuli/Hangul_M48.bmp","188","image-keyboard-response","167","254860","0.0-8.0-1.27","test",",","",",","",""
"null","<div style=""color:white; font-size:60px;"">+</div>","null","html-keyboard-response","168","255862","0.0-8.0-0.28","fixation","","","","",""
"4378.2000000355765","Stimuli/Hangul_M28.bmp","188","image-keyboard-response","169","260241","0.0-8.0-1.28","test",",","",",","",""
"null","<div style=""color:white; font-size:60px;"">+</div>","null","html-keyboard-response","170","261244","0.0-8.0-0.29","fixation","","","","",""
"736.9000000180677","Stimuli/Hangul_F35.bmp","188","image-keyboard-response","171","261982","0.0-8.0-1.29","test",".","",",","",""
"null","<div style=""color:white; font-size:60px;"">+</div>","null","html-keyboard-response","172","262984","0.0-8.0-0.30","fixation","","","","",""
"226.54500004136935","Stimuli/Hangul_M27.bmp","188","image-keyboard-response","173","263211","0.0-8.0-1.30","test",",","",",","",""
"null","<div style=""color:white; font-size:60px;"">+</div>","null","html-keyboard-response","174","264214","0.0-8.0-0.31","fixation","","","","",""
"885.5949999997392","Stimuli/Hangul_F31.bmp","190","image-keyboard-response","175","265101","0.0-8.0-1.31","test",".","",".","",""
"null","<div style=""color:white; font-size:60px;"">+</div>","null","html-keyboard-response","176","266102","0.0-8.0-0.32","fixation","","","","",""
"1697.405000042636","Stimuli/Hangul_M47.bmp","190","image-keyboard-response","177","267800","0.0-8.0-1.32","test",",","",".","",""
"null","<div style=""color:white; font-size:60px;"">+</div>","null","html-keyboard-response","178","268802","0.0-8.0-0.33","fixation","","","","",""
"2615.8399999840185","Stimuli/Hangul_M31.bmp","190","image-keyboard-response","179","271419","0.0-8.0-1.33","test",",","",".","",""
"null","<div style=""color:white; font-size:60px;"">+</div>","null","html-keyboard-response","180","272421","0.0-8.0-0.34","fixation","","","","",""
"1504.094999982044","Stimuli/Hangul_F44.bmp","188","image-keyboard-response","181","273926","0.0-8.0-1.34","test",".","",",","",""
"null","<div style=""color:white; font-size:60px;"">+</div>","null","html-keyboard-response","182","274928","0.0-8.0-0.35","fixation","","","","",""
"1764.2549999873154","Stimuli/Hangul_F29.bmp","188","image-keyboard-response","183","276693","0.0-8.0-1.35","test",".","",",","",""
"null","<div style=""color:white; font-size:60px;"">+</div>","null","html-keyboard-response","184","277695","0.0-8.0-0.36","fixation","","","","",""
"1660.390000033658","Stimuli/Hangul_M44.bmp","188","image-keyboard-response","185","279357","0.0-8.0-1.36","test",",","",",","",""
"null","<div style=""color:white; font-size:60px;"">+</div>","null","html-keyboard-response","186","280358","0.0-8.0-0.37","fixation","","","","",""
"1853.6749999620952","Stimuli/Hangul_F30.bmp","188","image-keyboard-response","187","282213","0.0-8.0-1.37","test",".","",",","",""
"null","<div style=""color:white; font-size:60px;"">+</div>","null","html-keyboard-response","188","283215","0.0-8.0-0.38","fixation","","","","",""
"1990.2599999913946","Stimuli/Hangul_F27.bmp","188","image-keyboard-response","189","285206","0.0-8.0-1.38","test",".","",",","",""
"null","<div style=""color:white; font-size:60px;"">+</div>","null","html-keyboard-response","190","286208","0.0-8.0-0.39","fixation","","","","",""
"1252.260000037495","Stimuli/Hangul_M33.bmp","188","image-keyboard-response","191","287462","0.0-8.0-1.39","test",",","",",","",""
"null","<div style=""color:white; font-size:60px;"">+</div>","null","html-keyboard-response","192","288464","0.0-8.0-0.40","fixation","","","","",""
"3404.790000000503","Stimuli/Hangul_F48.bmp","188","image-keyboard-response","193","291870","0.0-8.0-1.40","test",".","",",","",""
"null","<div style=""color:white; font-size:60px;"">+</div>","null","html-keyboard-response","194","292872","0.0-8.0-0.41","fixation","","","","",""
"2703.639999963343","Stimuli/Hangul_F41.bmp","188","image-keyboard-response","195","295576","0.0-8.0-1.41","test",".","",",","",""
"null","<div style=""color:white; font-size:60px;"">+</div>","null","html-keyboard-response","196","296578","0.0-8.0-0.42","fixation","","","","",""
"2271.629999973811","Stimuli/Hangul_F37.bmp","188","image-keyboard-response","197","298851","0.0-8.0-1.42","test",".","",",","",""
"null","<div style=""color:white; font-size:60px;"">+</div>","null","html-keyboard-response","198","299854","0.0-8.0-0.43","fixation","","","","",""
"2480.3200000314973","Stimuli/Hangul_M32.bmp","188","image-keyboard-response","199","302335","0.0-8.0-1.43","test",",","",",","",""
"null","<div style=""color:white; font-size:60px;"">+</div>","null","html-keyboard-response","200","303337","0.0-8.0-0.44","fixation","","","","",""
"4075.9950000210665","Stimuli/Hangul_F49.bmp","188","image-keyboard-response","201","307415","0.0-8.0-1.44","test",".","",",","",""
"null","<div style=""color:white; font-size:60px;"">+</div>","null","html-keyboard-response","202","308416","0.0-8.0-0.45","fixation","","","","",""
"1263.0800000042655","Stimuli/Hangul_M34.bmp","188","image-keyboard-response","203","309680","0.0-8.0-1.45","test",",","",",","",""
"null","<div style=""color:white; font-size:60px;"">+</div>","null","html-keyboard-response","204","310681","0.0-8.0-0.46","fixation","","","","",""
"743.9149999991059","Stimuli/Hangul_M49.bmp","188","image-keyboard-response","205","311427","0.0-8.0-1.46","test",",","",",","",""
"null","<div style=""color:white; font-size:60px;"">+</div>","null","html-keyboard-response","206","312430","0.0-8.0-0.47","fixation","","","","",""
"1993.209999985993","Stimuli/Hangul_F26.bmp","188","image-keyboard-response","207","314424","0.0-8.0-1.47","test",".","",",","",""
"null","<div style=""color:white; font-size:60px;"">+</div>","null","html-keyboard-response","208","315426","0.0-8.0-0.48","fixation","","","","",""
"826.8499999539927","Stimuli/Hangul_F28.bmp","188","image-keyboard-response","209","316254","0.0-8.0-1.48","test",".","",",","",""
"null","<div style=""color:white; font-size:60px;"">+</div>","null","html-keyboard-response","210","317255","0.0-8.0-0.49","fixation","","","","",""
"15.019999991636723","Stimuli/Hangul_M35.bmp","188","image-keyboard-response","211","317271","0.0-8.0-1.49","test",",","",",","",""
"1411.0400000354275","<p style=""color:white;"">Half way there! Please take a moment to rest.</p> <p style=""color:white;"">When you are ready to continue with block 3 of 4, press the space bar.</p> ","32","html-keyboard-response","212","318683","0.0-9.0","","","","","",""
"null","<div style=""color:white; font-size:60px;"">+</div>","null","html-keyboard-response","213","321687","0.0-10.0-0.0","fixation","","","","",""
"582.5499999918975","Stimuli/Hangul_F56.bmp","190","image-keyboard-response","214","322271","0.0-10.0-1.0","test",".","",".","",""
"null","<div style=""color:white; font-size:60px;"">+</div>","null","html-keyboard-response","215","323273","0.0-10.0-0.1","fixation","","","","",""
"1452.4749999982305","Stimuli/Hangul_M73.bmp","190","image-keyboard-response","216","324726","0.0-10.0-1.1","test",",","",".","",""
"null","<div style=""color:white; font-size:60px;"">+</div>","null","html-keyboard-response","217","325727","0.0-10.0-0.2","fixation","","","","",""
"800.2749999868684","Stimuli/Hangul_F72.bmp","188","image-keyboard-response","218","326529","0.0-10.0-1.2","test",".","",",","",""
"null","<div style=""color:white; font-size:60px;"">+</div>","null","html-keyboard-response","219","327531","0.0-10.0-0.3","fixation","","","","",""
"202.12999999057502","Stimuli/Hangul_F60.bmp","188","image-keyboard-response","220","327734","0.0-10.0-1.3","test",".","",",","",""
"null","<div style=""color:white; font-size:60px;"">+</div>","null","html-keyboard-response","221","328736","0.0-10.0-0.4","fixation","","","","",""
"1149.9150000163354","Stimuli/Hangul_F53.bmp","188","image-keyboard-response","222","329887","0.0-10.0-1.4","test",".","",",","",""
"null","<div style=""color:white; font-size:60px;"">+</div>","null","html-keyboard-response","223","330889","0.0-10.0-0.5","fixation","","","","",""
"2065.8350000157952","Stimuli/Hangul_F62.bmp","188","image-keyboard-response","224","332955","0.0-10.0-1.5","test",".","",",","",""
"null","<div style=""color:white; font-size:60px;"">+</div>","null","html-keyboard-response","225","333958","0.0-10.0-0.6","fixation","","","","",""
"1357.720000029076","Stimuli/Hangul_M70.bmp","190","image-keyboard-response","226","335317","0.0-10.0-1.6","test",",","",".","",""
"null","<div style=""color:white; font-size:60px;"">+</div>","null","html-keyboard-response","227","336320","0.0-10.0-0.7","fixation","","","","",""
"1490.6499999924563","Stimuli/Hangul_F69.bmp","190","image-keyboard-response","228","337811","0.0-10.0-1.7","test",".","",".","",""
"null","<div style=""color:white; font-size:60px;"">+</div>","null","html-keyboard-response","229","338813","0.0-10.0-0.8","fixation","","","","",""
"1200.7449999800883","Stimuli/Hangul_F71.bmp","190","image-keyboard-response","230","340015","0.0-10.0-1.8","test",".","",".","",""
"null","<div style=""color:white; font-size:60px;"">+</div>","null","html-keyboard-response","231","341017","0.0-10.0-0.9","fixation","","","","",""
"1406.3050000113435","Stimuli/Hangul_F64.bmp","190","image-keyboard-response","232","342424","0.0-10.0-1.9","test",".","",".","",""
"null","<div style=""color:white; font-size:60px;"">+</div>","null","html-keyboard-response","233","343426","0.0-10.0-0.10","fixation","","","","",""
"2723.5949999885634","Stimuli/Hangul_M72.bmp","190","image-keyboard-response","234","346150","0.0-10.0-1.10","test",",","",".","",""
"null","<div style=""color:white; font-size:60px;"">+</div>","null","html-keyboard-response","235","347152","0.0-10.0-0.11","fixation","","","","",""
"1925.870000035502","Stimuli/Hangul_M57.bmp","190","image-keyboard-response","236","349079","0.0-10.0-1.11","test",",","",".","",""
"null","<div style=""color:white; font-size:60px;"">+</div>","null","html-keyboard-response","237","350082","0.0-10.0-0.12","fixation","","","","",""
"1708.3149999962188","Stimuli/Hangul_M63.bmp","190","image-keyboard-response","238","351792","0.0-10.0-1.12","test",",","",".","",""
"null","<div style=""color:white; font-size:60px;"">+</div>","null","html-keyboard-response","239","352793","0.0-10.0-0.13","fixation","","","","",""
"1416.0000000265427","Stimuli/Hangul_M68.bmp","190","image-keyboard-response","240","354210","0.0-10.0-1.13","test",",","",".","",""
"null","<div style=""color:white; font-size:60px;"">+</div>","null","html-keyboard-response","241","355212","0.0-10.0-0.14","fixation","","","","",""
"1157.355000032112","Stimuli/Hangul_M58.bmp","188","image-keyboard-response","242","356371","0.0-10.0-1.14","test",",","",",","",""
"null","<div style=""color:white; font-size:60px;"">+</div>","null","html-keyboard-response","243","357372","0.0-10.0-0.15","fixation","","","","",""
"1686.5600000019185","Stimuli/Hangul_M66.bmp","190","image-keyboard-response","244","359060","0.0-10.0-1.15","test",",","",".","",""
"null","<div style=""color:white; font-size:60px;"">+</div>","null","html-keyboard-response","245","360062","0.0-10.0-0.16","fixation","","","","",""
"1198.030000028666","Stimuli/Hangul_F66.bmp","190","image-keyboard-response","246","361261","0.0-10.0-1.16","test",".","",".","",""
"null","<div style=""color:white; font-size:60px;"">+</div>","null","html-keyboard-response","247","362264","0.0-10.0-0.17","fixation","","","","",""
"2613.950000028126","Stimuli/Hangul_M55.bmp","190","image-keyboard-response","248","364879","0.0-10.0-1.17","test",",","",".","",""
"null","<div style=""color:white; font-size:60px;"">+</div>","null","html-keyboard-response","249","365882","0.0-10.0-0.18","fixation","","","","",""
"2343.5199999948964","Stimuli/Hangul_M67.bmp","190","image-keyboard-response","250","368226","0.0-10.0-1.18","test",",","",".","",""
"null","<div style=""color:white; font-size:60px;"">+</div>","null","html-keyboard-response","251","369228","0.0-10.0-0.19","fixation","","","","",""
"2843.1399999535643","Stimuli/Hangul_M74.bmp","188","image-keyboard-response","252","372072","0.0-10.0-1.19","test",",","",",","",""
"null","<div style=""color:white; font-size:60px;"">+</div>","null","html-keyboard-response","253","373074","0.0-10.0-0.20","fixation","","","","",""
"2212.4450000119396","Stimuli/Hangul_M71.bmp","188","image-keyboard-response","254","375288","0.0-10.0-1.20","test",",","",",","",""
"null","<div style=""color:white; font-size:60px;"">+</div>","null","html-keyboard-response","255","376290","0.0-10.0-0.21","fixation","","","","",""
"697.489999991376","Stimuli/Hangul_F68.bmp","188","image-keyboard-response","256","376989","0.0-10.0-1.21","test",".","",",","",""
"null","<div style=""color:white; font-size:60px;"">+</div>","null","html-keyboard-response","257","377991","0.0-10.0-0.22","fixation","","","","",""
"744.4200000027195","Stimuli/Hangul_F63.bmp","188","image-keyboard-response","258","378736","0.0-10.0-1.22","test",".","",",","",""
"null","<div style=""color:white; font-size:60px;"">+</div>","null","html-keyboard-response","259","379738","0.0-10.0-0.23","fixation","","","","",""
"2664.5750000025146","Stimuli/Hangul_F52.bmp","188","image-keyboard-response","260","382403","0.0-10.0-1.23","test",".","",",","",""
"null","<div style=""color:white; font-size:60px;"">+</div>","null","html-keyboard-response","261","383405","0.0-10.0-0.24","fixation","","","","",""
"985.0149999838322","Stimuli/Hangul_M60.bmp","188","image-keyboard-response","262","384390","0.0-10.0-1.24","test",",","",",","",""
"null","<div style=""color:white; font-size:60px;"">+</div>","null","html-keyboard-response","263","385392","0.0-10.0-0.25","fixation","","","","",""
"1013.5449999943376","Stimuli/Hangul_F73.bmp","188","image-keyboard-response","264","386407","0.0-10.0-1.25","test",".","",",","",""
"null","<div style=""color:white; font-size:60px;"">+</div>","null","html-keyboard-response","265","387408","0.0-10.0-0.26","fixation","","","","",""
"794.4100000313483","Stimuli/Hangul_M51.bmp","190","image-keyboard-response","266","388204","0.0-10.0-1.26","test",",","",".","",""
"null","<div style=""color:white; font-size:60px;"">+</div>","null","html-keyboard-response","267","389206","0.0-10.0-0.27","fixation","","","","",""
"448.8250000285916","Stimuli/Hangul_M56.bmp","190","image-keyboard-response","268","389656","0.0-10.0-1.27","test",",","",".","",""
"null","<div style=""color:white; font-size:60px;"">+</div>","null","html-keyboard-response","269","390658","0.0-10.0-0.28","fixation","","","","",""
"1362.6499999663793","Stimuli/Hangul_M52.bmp","190","image-keyboard-response","270","392022","0.0-10.0-1.28","test",",","",".","",""
"null","<div style=""color:white; font-size:60px;"">+</div>","null","html-keyboard-response","271","393024","0.0-10.0-0.29","fixation","","","","",""
"1403.0950000160374","Stimuli/Hangul_F65.bmp","190","image-keyboard-response","272","394428","0.0-10.0-1.29","test",".","",".","",""
"null","<div style=""color:white; font-size:60px;"">+</div>","null","html-keyboard-response","273","395430","0.0-10.0-0.30","fixation","","","","",""
"1059.5699999830686","Stimuli/Hangul_M59.bmp","190","image-keyboard-response","274","396491","0.0-10.0-1.30","test",",","",".","",""
"null","<div style=""color:white; font-size:60px;"">+</div>","null","html-keyboard-response","275","397493","0.0-10.0-0.31","fixation","","","","",""
"1664.5600000047125","Stimuli/Hangul_F59.bmp","188","image-keyboard-response","276","399158","0.0-10.0-1.31","test",".","",",","",""
"null","<div style=""color:white; font-size:60px;"">+</div>","null","html-keyboard-response","277","400160","0.0-10.0-0.32","fixation","","","","",""
"687.2849999926984","Stimuli/Hangul_F67.bmp","188","image-keyboard-response","278","400848","0.0-10.0-1.32","test",".","",",","",""
"null","<div style=""color:white; font-size:60px;"">+</div>","null","html-keyboard-response","279","401850","0.0-10.0-0.33","fixation","","","","",""
"530.7550000143237","Stimuli/Hangul_M69.bmp","188","image-keyboard-response","280","402382","0.0-10.0-1.33","test",",","",",","",""
"null","<div style=""color:white; font-size:60px;"">+</div>","null","html-keyboard-response","281","403384","0.0-10.0-0.34","fixation","","","","",""
"726.7449999926612","Stimuli/Hangul_M54.bmp","188","image-keyboard-response","282","404112","0.0-10.0-1.34","test",",","",",","",""
"null","<div style=""color:white; font-size:60px;"">+</div>","null","html-keyboard-response","283","405114","0.0-10.0-0.35","fixation","","","","",""
"908.4649999858811","Stimuli/Hangul_M50.bmp","190","image-keyboard-response","284","406024","0.0-10.0-1.35","test",",","",".","",""
"null","<div style=""color:white; font-size:60px;"">+</div>","null","html-keyboard-response","285","407025","0.0-10.0-0.36","fixation","","","","",""
"1375.289999996312","Stimuli/Hangul_F55.bmp","190","image-keyboard-response","286","408402","0.0-10.0-1.36","test",".","",".","",""
"null","<div style=""color:white; font-size:60px;"">+</div>","null","html-keyboard-response","287","409405","0.0-10.0-0.37","fixation","","","","",""
"1347.8749999776483","Stimuli/Hangul_F70.bmp","190","image-keyboard-response","288","410753","0.0-10.0-1.37","test",".","",".","",""
"null","<div style=""color:white; font-size:60px;"">+</div>","null","html-keyboard-response","289","411754","0.0-10.0-0.38","fixation","","","","",""
"1397.3799999803305","Stimuli/Hangul_M64.bmp","190","image-keyboard-response","290","413153","0.0-10.0-1.38","test",",","",".","",""
"null","<div style=""color:white; font-size:60px;"">+</div>","null","html-keyboard-response","291","414156","0.0-10.0-0.39","fixation","","","","",""
"2055.594999983441","Stimuli/Hangul_F51.bmp","188","image-keyboard-response","292","416213","0.0-10.0-1.39","test",".","",",","",""
"null","<div style=""color:white; font-size:60px;"">+</div>","null","html-keyboard-response","293","417214","0.0-10.0-0.40","fixation","","","","",""
"1782.3849999695085","Stimuli/Hangul_F54.bmp","188","image-keyboard-response","294","418998","0.0-10.0-1.40","test",".","",",","",""
"null","<div style=""color:white; font-size:60px;"">+</div>","null","html-keyboard-response","295","420000","0.0-10.0-0.41","fixation","","","","",""
"1216.939999954775","Stimuli/Hangul_F57.bmp","188","image-keyboard-response","296","421218","0.0-10.0-1.41","test",".","",",","",""
"null","<div style=""color:white; font-size:60px;"">+</div>","null","html-keyboard-response","297","422220","0.0-10.0-0.42","fixation","","","","",""
"1120.7350000040606","Stimuli/Hangul_M53.bmp","190","image-keyboard-response","298","423342","0.0-10.0-1.42","test",",","",".","",""
"null","<div style=""color:white; font-size:60px;"">+</div>","null","html-keyboard-response","299","424348","0.0-10.0-0.43","fixation","","","","",""
"650.0799999921583","Stimuli/Hangul_F58.bmp","190","image-keyboard-response","300","424999","0.0-10.0-1.43","test",".","",".","",""
"null","<div style=""color:white; font-size:60px;"">+</div>","null","html-keyboard-response","301","426001","0.0-10.0-0.44","fixation","","","","",""
"1801.4499999699183","Stimuli/Hangul_M62.bmp","190","image-keyboard-response","302","427804","0.0-10.0-1.44","test",",","",".","",""
"null","<div style=""color:white; font-size:60px;"">+</div>","null","html-keyboard-response","303","428805","0.0-10.0-0.45","fixation","","","","",""
"1690.355000027921","Stimuli/Hangul_M65.bmp","190","image-keyboard-response","304","430497","0.0-10.0-1.45","test",",","",".","",""
"null","<div style=""color:white; font-size:60px;"">+</div>","null","html-keyboard-response","305","431498","0.0-10.0-0.46","fixation","","","","",""
"1445.9049999713898","Stimuli/Hangul_F50.bmp","190","image-keyboard-response","306","432945","0.0-10.0-1.46","test",".","",".","",""
"null","<div style=""color:white; font-size:60px;"">+</div>","null","html-keyboard-response","307","433947","0.0-10.0-0.47","fixation","","","","",""
"1684.450000000652","Stimuli/Hangul_F61.bmp","190","image-keyboard-response","308","435632","0.0-10.0-1.47","test",".","",".","",""
"null","<div style=""color:white; font-size:60px;"">+</div>","null","html-keyboard-response","309","436634","0.0-10.0-0.48","fixation","","","","",""
"918.390000006184","Stimuli/Hangul_M61.bmp","190","image-keyboard-response","310","437553","0.0-10.0-1.48","test",",","",".","",""
"null","<div style=""color:white; font-size:60px;"">+</div>","null","html-keyboard-response","311","438555","0.0-10.0-0.49","fixation","","","","",""
"1333.020000020042","Stimuli/Hangul_F74.bmp","188","image-keyboard-response","312","439889","0.0-10.0-1.49","test",".","",",","",""
"7930.675000010524","<p style=""color:white;"">One more block to go! Please take a moment to rest.</p> <p style=""color:white;"">When you are ready to continue with block 4 of 4, press the space bar.</p> ","32","html-keyboard-response","313","447821","0.0-11.0","","","","","",""
"null","<div style=""color:white; font-size:60px;"">+</div>","null","html-keyboard-response","314","450826","0.0-12.0-0.0","fixation","","","","",""
"356.36500001419336","Stimuli/Hangul_M97.bmp","188","image-keyboard-response","315","451183","0.0-12.0-1.0","test",",","",",","",""
"null","<div style=""color:white; font-size:60px;"">+</div>","null","html-keyboard-response","316","452185","0.0-12.0-0.1","fixation","","","","",""
"1601.6099999542348","Stimuli/Hangul_F86.bmp","190","image-keyboard-response","317","453788","0.0-12.0-1.1","test",".","",".","",""
"null","<div style=""color:white; font-size:60px;"">+</div>","null","html-keyboard-response","318","454789","0.0-12.0-0.2","fixation","","","","",""
"865.4000000096858","Stimuli/Hangul_F78.bmp","190","image-keyboard-response","319","455656","0.0-12.0-1.2","test",".","",".","",""
"null","<div style=""color:white; font-size:60px;"">+</div>","null","html-keyboard-response","320","456659","0.0-12.0-0.3","fixation","","","","",""
"981.5400000079535","Stimuli/Hangul_F87.bmp","190","image-keyboard-response","321","457641","0.0-12.0-1.3","test",".","",".","",""
"null","<div style=""color:white; font-size:60px;"">+</div>","null","html-keyboard-response","322","458644","0.0-12.0-0.4","fixation","","","","",""
"258.48999997833744","Stimuli/Hangul_M79.bmp","190","image-keyboard-response","323","458903","0.0-12.0-1.4","test",",","",".","",""
"null","<div style=""color:white; font-size:60px;"">+</div>","null","html-keyboard-response","324","459904","0.0-12.0-0.5","fixation","","","","",""
"1653.1400000094436","Stimuli/Hangul_M91.bmp","190","image-keyboard-response","325","461558","0.0-12.0-1.5","test",",","",".","",""
"null","<div style=""color:white; font-size:60px;"">+</div>","null","html-keyboard-response","326","462560","0.0-12.0-0.6","fixation","","","","",""
"1410.2449999772944","Stimuli/Hangul_F99.bmp","190","image-keyboard-response","327","463971","0.0-12.0-1.6","test",".","",".","",""
"null","<div style=""color:white; font-size:60px;"">+</div>","null","html-keyboard-response","328","464973","0.0-12.0-0.7","fixation","","","","",""
"1915.19500000868","Stimuli/Hangul_F95.bmp","190","image-keyboard-response","329","466889","0.0-12.0-1.7","test",".","",".","",""
"null","<div style=""color:white; font-size:60px;"">+</div>","null","html-keyboard-response","330","467891","0.0-12.0-0.8","fixation","","","","",""
"1344.219999969937","Stimuli/Hangul_M94.bmp","190","image-keyboard-response","331","469236","0.0-12.0-1.8","test",",","",".","",""
"null","<div style=""color:white; font-size:60px;"">+</div>","null","html-keyboard-response","332","470239","0.0-12.0-0.9","fixation","","","","",""
"2086.554999987129","Stimuli/Hangul_M82.bmp","190","image-keyboard-response","333","472327","0.0-12.0-1.9","test",",","",".","",""
"null","<div style=""color:white; font-size:60px;"">+</div>","null","html-keyboard-response","334","473330","0.0-12.0-0.10","fixation","","","","",""
"1417.3000000300817","Stimuli/Hangul_F88.bmp","188","image-keyboard-response","335","474748","0.0-12.0-1.10","test",".","",",","",""
"null","<div style=""color:white; font-size:60px;"">+</div>","null","html-keyboard-response","336","475750","0.0-12.0-0.11","fixation","","","","",""
"1927.3699999903329","Stimuli/Hangul_M98.bmp","188","image-keyboard-response","337","477678","0.0-12.0-1.11","test",",","",",","",""
"null","<div style=""color:white; font-size:60px;"">+</div>","null","html-keyboard-response","338","478680","0.0-12.0-0.12","fixation","","","","",""
"3398.639999970328","Stimuli/Hangul_M80.bmp","188","image-keyboard-response","339","482080","0.0-12.0-1.12","test",",","",",","",""
"null","<div style=""color:white; font-size:60px;"">+</div>","null","html-keyboard-response","340","483082","0.0-12.0-0.13","fixation","","","","",""
"2550.5150000099093","Stimuli/Hangul_M92.bmp","190","image-keyboard-response","341","485634","0.0-12.0-1.13","test",",","",".","",""
"null","<div style=""color:white; font-size:60px;"">+</div>","null","html-keyboard-response","342","486635","0.0-12.0-0.14","fixation","","","","",""
"827.1150000509806","Stimuli/Hangul_F90.bmp","190","image-keyboard-response","343","487463","0.0-12.0-1.14","test",".","",".","",""
"null","<div style=""color:white; font-size:60px;"">+</div>","null","html-keyboard-response","344","488467","0.0-12.0-0.15","fixation","","","","",""
"1074.964999977965","Stimuli/Hangul_F75.bmp","188","image-keyboard-response","345","489544","0.0-12.0-1.15","test",".","",",","",""
"null","<div style=""color:white; font-size:60px;"">+</div>","null","html-keyboard-response","346","490546","0.0-12.0-0.16","fixation","","","","",""
"1496.0099999443628","Stimuli/Hangul_M88.bmp","190","image-keyboard-response","347","492043","0.0-12.0-1.16","test",",","",".","",""
"null","<div style=""color:white; font-size:60px;"">+</div>","null","html-keyboard-response","348","493044","0.0-12.0-0.17","fixation","","","","",""
"1677.6799999643117","Stimuli/Hangul_M78.bmp","190","image-keyboard-response","349","494723","0.0-12.0-1.17","test",",","",".","",""
"null","<div style=""color:white; font-size:60px;"">+</div>","null","html-keyboard-response","350","495725","0.0-12.0-0.18","fixation","","","","",""
"879.8399999504909","Stimuli/Hangul_M76.bmp","188","image-keyboard-response","351","496606","0.0-12.0-1.18","test",",","",",","",""
"null","<div style=""color:white; font-size:60px;"">+</div>","null","html-keyboard-response","352","497607","0.0-12.0-0.19","fixation","","","","",""
"1693.5250000096858","Stimuli/Hangul_F92.bmp","188","image-keyboard-response","353","499301","0.0-12.0-1.19","test",".","",",","",""
"null","<div style=""color:white; font-size:60px;"">+</div>","null","html-keyboard-response","354","500303","0.0-12.0-0.20","fixation","","","","",""
"2073.480000020936","Stimuli/Hangul_F80.bmp","188","image-keyboard-response","355","502377","0.0-12.0-1.20","test",".","",",","",""
"null","<div style=""color:white; font-size:60px;"">+</div>","null","html-keyboard-response","356","503379","0.0-12.0-0.21","fixation","","","","",""
"2064.170000026934","Stimuli/Hangul_M89.bmp","188","image-keyboard-response","357","505444","0.0-12.0-1.21","test",",","",",","",""
"null","<div style=""color:white; font-size:60px;"">+</div>","null","html-keyboard-response","358","506447","0.0-12.0-0.22","fixation","","","","",""
"1598.1949999695644","Stimuli/Hangul_F81.bmp","188","image-keyboard-response","359","508046","0.0-12.0-1.22","test",".","",",","",""
"null","<div style=""color:white; font-size:60px;"">+</div>","null","html-keyboard-response","360","509047","0.0-12.0-0.23","fixation","","","","",""
"1029.6800000360236","Stimuli/Hangul_F89.bmp","190","image-keyboard-response","361","510078","0.0-12.0-1.23","test",".","",".","",""
"null","<div style=""color:white; font-size:60px;"">+</div>","null","html-keyboard-response","362","511080","0.0-12.0-0.24","fixation","","","","",""
"1661.5449999808334","Stimuli/Hangul_M84.bmp","190","image-keyboard-response","363","512743","0.0-12.0-1.24","test",",","",".","",""
"null","<div style=""color:white; font-size:60px;"">+</div>","null","html-keyboard-response","364","513744","0.0-12.0-0.25","fixation","","","","",""
"1939.9650000268593","Stimuli/Hangul_M90.bmp","190","image-keyboard-response","365","515685","0.0-12.0-1.25","test",",","",".","",""
"null","<div style=""color:white; font-size:60px;"">+</div>","null","html-keyboard-response","366","516687","0.0-12.0-0.26","fixation","","","","",""
"2467.3900000052527","Stimuli/Hangul_F82.bmp","190","image-keyboard-response","367","519155","0.0-12.0-1.26","test",".","",".","",""
"null","<div style=""color:white; font-size:60px;"">+</div>","null","html-keyboard-response","368","520157","0.0-12.0-0.27","fixation","","","","",""
"1670.749999990221","Stimuli/Hangul_M81.bmp","188","image-keyboard-response","369","521829","0.0-12.0-1.27","test",",","",",","",""
"null","<div style=""color:white; font-size:60px;"">+</div>","null","html-keyboard-response","370","522831","0.0-12.0-0.28","fixation","","","","",""
"2622.38499999512","Stimuli/Hangul_F79.bmp","190","image-keyboard-response","371","525455","0.0-12.0-1.28","test",".","",".","",""
"null","<div style=""color:white; font-size:60px;"">+</div>","null","html-keyboard-response","372","526457","0.0-12.0-0.29","fixation","","","","",""
"1025.2300000283867","Stimuli/Hangul_F93.bmp","190","image-keyboard-response","373","527484","0.0-12.0-1.29","test",".","",".","",""
"null","<div style=""color:white; font-size:60px;"">+</div>","null","html-keyboard-response","374","528486","0.0-12.0-0.30","fixation","","","","",""
"2979.749999998603","Stimuli/Hangul_F98.bmp","188","image-keyboard-response","375","531467","0.0-12.0-1.30","test",".","",",","",""
"null","<div style=""color:white; font-size:60px;"">+</div>","null","html-keyboard-response","376","532468","0.0-12.0-0.31","fixation","","","","",""
"835.605000029318","Stimuli/Hangul_F84.bmp","188","image-keyboard-response","377","533305","0.0-12.0-1.31","test",".","",",","",""
"null","<div style=""color:white; font-size:60px;"">+</div>","null","html-keyboard-response","378","534308","0.0-12.0-0.32","fixation","","","","",""
"2057.6099999598227","Stimuli/Hangul_F97.bmp","188","image-keyboard-response","379","536366","0.0-12.0-1.32","test",".","",",","",""
"null","<div style=""color:white; font-size:60px;"">+</div>","null","html-keyboard-response","380","537368","0.0-12.0-0.33","fixation","","","","",""
"1158.2449999987148","Stimuli/Hangul_M86.bmp","190","image-keyboard-response","381","538527","0.0-12.0-1.33","test",",","",".","",""
"null","<div style=""color:white; font-size:60px;"">+</div>","null","html-keyboard-response","382","539530","0.0-12.0-0.34","fixation","","","","",""
"1520.9399999585003","Stimuli/Hangul_M99.bmp","190","image-keyboard-response","383","541052","0.0-12.0-1.34","test",",","",".","",""
"null","<div style=""color:white; font-size:60px;"">+</div>","null","html-keyboard-response","384","542054","0.0-12.0-0.35","fixation","","","","",""
"1956.01500000339","Stimuli/Hangul_M75.bmp","188","image-keyboard-response","385","544011","0.0-12.0-1.35","test",",","",",","",""
"null","<div style=""color:white; font-size:60px;"">+</div>","null","html-keyboard-response","386","545014","0.0-12.0-0.36","fixation","","","","",""
"1515.6350000179373","Stimuli/Hangul_F94.bmp","190","image-keyboard-response","387","546531","0.0-12.0-1.36","test",".","",".","",""
"null","<div style=""color:white; font-size:60px;"">+</div>","null","html-keyboard-response","388","547533","0.0-12.0-0.37","fixation","","","","",""
"1981.7700000130571","Stimuli/Hangul_F91.bmp","188","image-keyboard-response","389","549516","0.0-12.0-1.37","test",".","",",","",""
"null","<div style=""color:white; font-size:60px;"">+</div>","null","html-keyboard-response","390","550518","0.0-12.0-0.38","fixation","","","","",""
"2210.045000014361","Stimuli/Hangul_F76.bmp","188","image-keyboard-response","391","552729","0.0-12.0-1.38","test",".","",",","",""
"null","<div style=""color:white; font-size:60px;"">+</div>","null","html-keyboard-response","392","553731","0.0-12.0-0.39","fixation","","","","",""
"1422.019999998156","Stimuli/Hangul_M85.bmp","190","image-keyboard-response","393","555154","0.0-12.0-1.39","test",",","",".","",""
"null","<div style=""color:white; font-size:60px;"">+</div>","null","html-keyboard-response","394","556156","0.0-12.0-0.40","fixation","","","","",""
"2982.3099999921396","Stimuli/Hangul_M83.bmp","190","image-keyboard-response","395","559140","0.0-12.0-1.40","test",",","",".","",""
"null","<div style=""color:white; font-size:60px;"">+</div>","null","html-keyboard-response","396","560142","0.0-12.0-0.41","fixation","","","","",""
"1617.4100000062026","Stimuli/Hangul_M93.bmp","190","image-keyboard-response","397","561761","0.0-12.0-1.41","test",",","",".","",""
"null","<div style=""color:white; font-size:60px;"">+</div>","null","html-keyboard-response","398","562764","0.0-12.0-0.42","fixation","","","","",""
"1778.6500000511296","Stimuli/Hangul_F96.bmp","188","image-keyboard-response","399","564544","0.0-12.0-1.42","test",".","",",","",""
"null","<div style=""color:white; font-size:60px;"">+</div>","null","html-keyboard-response","400","565545","0.0-12.0-0.43","fixation","","","","",""
"1048.880000016652","Stimuli/Hangul_M87.bmp","188","image-keyboard-response","401","566595","0.0-12.0-1.43","test",",","",",","",""
"null","<div style=""color:white; font-size:60px;"">+</div>","null","html-keyboard-response","402","567597","0.0-12.0-0.44","fixation","","","","",""
"1042.8250000113621","Stimuli/Hangul_F85.bmp","188","image-keyboard-response","403","568641","0.0-12.0-1.44","test",".","",",","",""
"null","<div style=""color:white; font-size:60px;"">+</div>","null","html-keyboard-response","404","569642","0.0-12.0-0.45","fixation","","","","",""
"909.700000018347","Stimuli/Hangul_F77.bmp","190","image-keyboard-response","405","570553","0.0-12.0-1.45","test",".","",".","",""
"null","<div style=""color:white; font-size:60px;"">+</div>","null","html-keyboard-response","406","571554","0.0-12.0-0.46","fixation","","","","",""
"2807.6100000180304","Stimuli/Hangul_M95.bmp","190","image-keyboard-response","407","574363","0.0-12.0-1.46","test",",","",".","",""
"null","<div style=""color:white; font-size:60px;"">+</div>","null","html-keyboard-response","408","575366","0.0-12.0-0.47","fixation","","","","",""
"4288.874999969266","Stimuli/Hangul_F83.bmp","190","image-keyboard-response","409","579656","0.0-12.0-1.47","test",".","",".","",""
"null","<div style=""color:white; font-size:60px;"">+</div>","null","html-keyboard-response","410","580657","0.0-12.0-0.48","fixation","","","","",""
"4470.6850000075065","Stimuli/Hangul_M96.bmp","190","image-keyboard-response","411","585129","0.0-12.0-1.48","test",",","",".","",""
"null","<div style=""color:white; font-size:60px;"">+</div>","null","html-keyboard-response","412","586131","0.0-12.0-0.49","fixation","","","","",""
"2839.529999997467","Stimuli/Hangul_M77.bmp","190","image-keyboard-response","413","588972","0.0-12.0-1.49","test",",","",".","",""
"5376.589999999851","<p style=""color:white;"">Phase I of the experiment is complete.</p> <p style=""color:white;"">Press the space bar to proceed to Phase II of the experiment.</p> ","32","html-keyboard-response","414","594349","0.0-13.0","","","","","",""
"28591.805000032764","<p style=""color:white;"">Now we are interested in how well you can predict patterns in the series of figures. You will be asked to predict whether the next figure in the series is more male-like or female-like. When you see the <q>Next Figure</q> prompt, press the corresponding response keys to indicate your prediction: </p><p style=""color:white;""> Male &#8594 <q>,</q> (comma)</p><p style=""color:white;""> Female &#8594 <q>.</q> (period)</p><p style=""color:white;"">The actual figure will then appear on the screen. After you see the figure, please guess the assigned gender with response keys. </p><p style=""color:white;"">As before, you will receive 2 cents for correctly classifying each figure.</p><p style=""color:white;"">Press either response keys to continue.</p>","188","html-keyboard-response","415","624944","0.0-14.0","","","","","",""
"12513.98499996867","<p style=""color:white;"">PREDICTION BONUS</p> <p style=""color:white;"">Your prediction accuracy is the total number of correct predictions you make over the 200 trials.</p> <p style=""color:white;"">In addition to the 2 cents per correct figure classification, you have the chance to receive a bonus of 40 dollars IF your accuracy is above average relative to previous participants.</p><p style=""color:white;"">If your accuracy is below average relative to previous participants, then you will not receive the 40 dollar bonus.</p><p style=""color:white;"">Press the space bar to continue.</p>","32","html-keyboard-response","416","637458","0.0-15.0","","","","","",""
"4257.625000027474","<p style=""color:white;"">Here are some examples.</p> <p style=""color:white;"">For each, predict whether the next figure looks more male-like or female-like. Then, when the figure appears, guess whether it looks more male-like or female-like and indicate your choice.</p> <p style=""color:white;"">Press the space bar to continue.</p>","32","html-keyboard-response","417","641717","0.0-16.0","","","","","",""
"4586.550000007264","<p style=""color:white;""> Next Figure: Male or Female? </p>","188","html-keyboard-response","418","648306","0.0-17.0-0.0","prediction_train","","","",",",""
"null","<div style=""color:white; font-size:60px;"">+</div>","null","html-keyboard-response","419","649308","0.0-17.0-1.0","fixation","","","","",""
"494.23999997088686","Stimuli/Hangul_E1.bmp","190","image-keyboard-response","420","649803","0.0-17.0-2.0","c2_train",",","","","","."
"888.0849999841303","<p style=""color:white;""> Next Figure: Male or Female? </p>","190","html-keyboard-response","421","650692","0.0-17.0-0.1","prediction_train","","","",".",""
"null","<div style=""color:white; font-size:60px;"">+</div>","null","html-keyboard-response","422","651693","0.0-17.0-1.1","fixation","","","","",""
"305.6649999925867","Stimuli/Hangul_E0.bmp","188","image-keyboard-response","423","652000","0.0-17.0-2.1","c2_train",",","","","",","
"2152.509999985341","<p style=""color:white;""> Next Figure: Male or Female? </p>","188","html-keyboard-response","424","654153","0.0-17.0-0.2","prediction_train","","","",",",""
"null","<div style=""color:white; font-size:60px;"">+</div>","null","html-keyboard-response","425","655155","0.0-17.0-1.2","fixation","","","","",""
"264.5049999700859","Stimuli/Hangul_E2.bmp","190","image-keyboard-response","426","655421","0.0-17.0-2.2","c2_train",".","","","","."
"1959.484999999404","<p style=""color:white;"">Let us begin! Press the space bar when you are ready to start block 1 of 4.</p> ","32","html-keyboard-response","427","657381","0.0-18.0","","","","","",""
"448.7000000081025","<p style=""color:white;""> Next Figure: Male or Female? </p>","190","html-keyboard-response","428","659832","0.0-19.0-0.0","prediction","","","",".",""
"null","<div style=""color:white; font-size:60px;"">+</div>","null","html-keyboard-response","429","660834","0.0-19.0-1.0","fixation","","","","",""
"405.0649999990128","Stimuli/Hangul_F12.bmp","190","image-keyboard-response","430","661241","0.0-19.0-2.0","c2_test",".","","","","."
"866.5000000037253","<p style=""color:white;""> Next Figure: Male or Female? </p>","190","html-keyboard-response","431","662108","0.0-19.0-0.1","prediction","","","",".",""
"null","<div style=""color:white; font-size:60px;"">+</div>","null","html-keyboard-response","432","663110","0.0-19.0-1.1","fixation","","","","",""
"106.4699999988079","Stimuli/Hangul_M15.bmp","188","image-keyboard-response","433","663217","0.0-19.0-2.1","c2_test",",","","","",","
"610.6300000101328","<p style=""color:white;""> Next Figure: Male or Female? </p>","188","html-keyboard-response","434","663830","0.0-19.0-0.2","prediction","","","",",",""
"null","<div style=""color:white; font-size:60px;"">+</div>","null","html-keyboard-response","435","664832","0.0-19.0-1.2","fixation","","","","",""
"273.64499995019287","Stimuli/Hangul_F14.bmp","188","image-keyboard-response","436","665106","0.0-19.0-2.2","c2_test",".","","","",","
"937.8500000457279","<p style=""color:white;""> Next Figure: Male or Female? </p>","190","html-keyboard-response","437","666045","0.0-19.0-0.3","prediction","","","",".",""
"null","<div style=""color:white; font-size:60px;"">+</div>","null","html-keyboard-response","438","667047","0.0-19.0-1.3","fixation","","","","",""
"204.12000000942498","Stimuli/Hangul_F7.bmp","190","image-keyboard-response","439","667253","0.0-19.0-2.3","c2_test",".","","","","."
"978.0549999559298","<p style=""color:white;""> Next Figure: Male or Female? </p>","188","html-keyboard-response","440","668232","0.0-19.0-0.4","prediction","","","",",",""
"null","<div style=""color:white; font-size:60px;"">+</div>","null","html-keyboard-response","441","669234","0.0-19.0-1.4","fixation","","","","",""
"343.0600000428967","Stimuli/Hangul_M16.bmp","188","image-keyboard-response","442","669578","0.0-19.0-2.4","c2_test",",","","","",","
"1385.6500000110827","<p style=""color:white;""> Next Figure: Male or Female? </p>","188","html-keyboard-response","443","670965","0.0-19.0-0.5","prediction","","","",",",""
"null","<div style=""color:white; font-size:60px;"">+</div>","null","html-keyboard-response","444","671967","0.0-19.0-1.5","fixation","","","","",""
"44.94500003056601","Stimuli/Hangul_M24.bmp","188","image-keyboard-response","445","672013","0.0-19.0-2.5","c2_test",",","","","",","
"853.7449999712408","<p style=""color:white;""> Next Figure: Male or Female? </p>","188","html-keyboard-response","446","672868","0.0-19.0-0.6","prediction","","","",",",""
"null","<div style=""color:white; font-size:60px;"">+</div>","null","html-keyboard-response","447","673869","0.0-19.0-1.6","fixation","","","","",""
"483.28000004403293","Stimuli/Hangul_M20.bmp","188","image-keyboard-response","448","674353","0.0-19.0-2.6","c2_test",",","","","",","
"965.9799999790266","<p style=""color:white;""> Next Figure: Male or Female? </p>","188","html-keyboard-response","449","675320","0.0-19.0-0.7","prediction","","","",",",""
"null","<div style=""color:white; font-size:60px;"">+</div>","null","html-keyboard-response","450","676323","0.0-19.0-1.7","fixation","","","","",""
"320.17500000074506","Stimuli/Hangul_F21.bmp","188","image-keyboard-response","451","676644","0.0-19.0-2.7","c2_test",".","","","",","
"661.0300000174902","<p style=""color:white;""> Next Figure: Male or Female? </p>","188","html-keyboard-response","452","677306","0.0-19.0-0.8","prediction","","","",",",""
"null","<div style=""color:white; font-size:60px;"">+</div>","null","html-keyboard-response","453","678309","0.0-19.0-1.8","fixation","","","","",""
"273.5349999857135","Stimuli/Hangul_M2.bmp","190","image-keyboard-response","454","678583","0.0-19.0-2.8","c2_test",",","","","","."
"635.7350000180304","<p style=""color:white;""> Next Figure: Male or Female? </p>","190","html-keyboard-response","455","679220","0.0-19.0-0.9","prediction","","","",".",""
"null","<div style=""color:white; font-size:60px;"">+</div>","null","html-keyboard-response","456","680222","0.0-19.0-1.9","fixation","","","","",""
"81.85499999672174","Stimuli/Hangul_F9.bmp","190","image-keyboard-response","457","680305","0.0-19.0-2.9","c2_test",".","","","","."
"2213.3949999697506","<p style=""color:white;""> Next Figure: Male or Female? </p>","188","html-keyboard-response","458","682519","0.0-19.0-0.10","prediction","","","",",",""
"null","<div style=""color:white; font-size:60px;"">+</div>","null","html-keyboard-response","459","683522","0.0-19.0-1.10","fixation","","","","",""
"171.34499998064712","Stimuli/Hangul_M0.bmp","188","image-keyboard-response","460","683694","0.0-19.0-2.10","c2_test",",","","","",","
"588.2899999851361","<p style=""color:white;""> Next Figure: Male or Female? </p>","188","html-keyboard-response","461","684283","0.0-19.0-0.11","prediction","","","",",",""
"null","<div style=""color:white; font-size:60px;"">+</div>","null","html-keyboard-response","462","685285","0.0-19.0-1.11","fixation","","","","",""
"439.0300000086427","Stimuli/Hangul_F15.bmp","188","image-keyboard-response","463","685725","0.0-19.0-2.11","c2_test",".","","","",","
"1494.1450000042096","<p style=""color:white;""> Next Figure: Male or Female? </p>","188","html-keyboard-response","464","687221","0.0-19.0-0.12","prediction","","","",",",""
"null","<div style=""color:white; font-size:60px;"">+</div>","null","html-keyboard-response","465","688223","0.0-19.0-1.12","fixation","","","","",""
"441.9900000211783","Stimuli/Hangul_F23.bmp","188","image-keyboard-response","466","688666","0.0-19.0-2.12","c2_test",".","","","",","
"440.6849999795668","<p style=""color:white;""> Next Figure: Male or Female? </p>","188","html-keyboard-response","467","689108","0.0-19.0-0.13","prediction","","","",",",""
"null","<div style=""color:white; font-size:60px;"">+</div>","null","html-keyboard-response","468","690110","0.0-19.0-1.13","fixation","","","","",""
"788.1449999986216","Stimuli/Hangul_F18.bmp","188","image-keyboard-response","469","690899","0.0-19.0-2.13","c2_test",".","","","",","
"493.1450000149198","<p style=""color:white;""> Next Figure: Male or Female? </p>","190","html-keyboard-response","470","691394","0.0-19.0-0.14","prediction","","","",".",""
"null","<div style=""color:white; font-size:60px;"">+</div>","null","html-keyboard-response","471","692397","0.0-19.0-1.14","fixation","","","","",""
"177.76499997125939","Stimuli/Hangul_F1.bmp","190","image-keyboard-response","472","692575","0.0-19.0-2.14","c2_test",".","","","","."
"501.5150000108406","<p style=""color:white;""> Next Figure: Male or Female? </p>","190","html-keyboard-response","473","693078","0.0-19.0-0.15","prediction","","","",".",""
"null","<div style=""color:white; font-size:60px;"">+</div>","null","html-keyboard-response","474","694080","0.0-19.0-1.15","fixation","","","","",""
"306.71000003349036","Stimuli/Hangul_F24.bmp","190","image-keyboard-response","475","694387","0.0-19.0-2.15","c2_test",".","","","","."
"529.515000001993","<p style=""color:white;""> Next Figure: Male or Female? </p>","190","html-keyboard-response","476","694918","0.0-19.0-0.16","prediction","","","",".",""
"null","<div style=""color:white; font-size:60px;"">+</div>","null","html-keyboard-response","477","695920","0.0-19.0-1.16","fixation","","","","",""
"371.9750000163913","Stimuli/Hangul_M23.bmp","190","image-keyboard-response","478","696293","0.0-19.0-2.16","c2_test",",","","","","."
"2042.0799999847077","<p style=""color:white;""> Next Figure: Male or Female? </p>","188","html-keyboard-response","479","698337","0.0-19.0-0.17","prediction","","","",",",""
"null","<div style=""color:white; font-size:60px;"">+</div>","null","html-keyboard-response","480","699339","0.0-19.0-1.17","fixation","","","","",""
"1699.3449999717996","Stimuli/Hangul_M17.bmp","190","image-keyboard-response","481","701040","0.0-19.0-2.17","c2_test",",","","","","."
"551.134999957867","<p style=""color:white;""> Next Figure: Male or Female? </p>","190","html-keyboard-response","482","701592","0.0-19.0-0.18","prediction","","","",".",""
"null","<div style=""color:white; font-size:60px;"">+</div>","null","html-keyboard-response","483","702593","0.0-19.0-1.18","fixation","","","","",""
"342.27999998256564","Stimuli/Hangul_F5.bmp","190","image-keyboard-response","484","702937","0.0-19.0-2.18","c2_test",".","","","","."
"420.07499997271225","<p style=""color:white;""> Next Figure: Male or Female? </p>","188","html-keyboard-response","485","703358","0.0-19.0-0.19","prediction","","","",",",""
"null","<div style=""color:white; font-size:60px;"">+</div>","null","html-keyboard-response","486","704360","0.0-19.0-1.19","fixation","","","","",""
"388.93000001553446","Stimuli/Hangul_F19.bmp","188","image-keyboard-response","487","704750","0.0-19.0-2.19","c2_test",".","","","",","
"1513.2499999599531","<p style=""color:white;""> Next Figure: Male or Female? </p>","188","html-keyboard-response","488","706264","0.0-19.0-0.20","prediction","","","",",",""
"null","<div style=""color:white; font-size:60px;"">+</div>","null","html-keyboard-response","489","707266","0.0-19.0-1.20","fixation","","","","",""
"386.9050000212155","Stimuli/Hangul_F2.bmp","188","image-keyboard-response","490","707654","0.0-19.0-2.20","c2_test",".","","","",","
"2935.42500003241","<p style=""color:white;""> Next Figure: Male or Female? </p>","190","html-keyboard-response","491","710590","0.0-19.0-0.21","prediction","","","",".",""
"null","<div style=""color:white; font-size:60px;"">+</div>","null","html-keyboard-response","492","711592","0.0-19.0-1.21","fixation","","","","",""
"394.6900000446476","Stimuli/Hangul_M11.bmp","190","image-keyboard-response","493","711988","0.0-19.0-2.21","c2_test",",","","","","."
"1760.4949999949895","<p style=""color:white;""> Next Figure: Male or Female? </p>","188","html-keyboard-response","494","713750","0.0-19.0-0.22","prediction","","","",",",""
"null","<div style=""color:white; font-size:60px;"">+</div>","null","html-keyboard-response","495","714751","0.0-19.0-1.22","fixation","","","","",""
"262.6649999874644","Stimuli/Hangul_M18.bmp","188","image-keyboard-response","496","715015","0.0-19.0-2.22","c2_test",",","","","",","
"2581.9200000260025","<p style=""color:white;""> Next Figure: Male or Female? </p>","190","html-keyboard-response","497","717598","0.0-19.0-0.23","prediction","","","",".",""
"null","<div style=""color:white; font-size:60px;"">+</div>","null","html-keyboard-response","498","718599","0.0-19.0-1.23","fixation","","","","",""
"448.5800000256859","Stimuli/Hangul_M13.bmp","190","image-keyboard-response","499","719049","0.0-19.0-2.23","c2_test",",","","","","."
"499.6699999901466","<p style=""color:white;""> Next Figure: Male or Female? </p>","190","html-keyboard-response","500","719550","0.0-19.0-0.24","prediction","","","",".",""
"null","<div style=""color:white; font-size:60px;"">+</div>","null","html-keyboard-response","501","720553","0.0-19.0-1.24","fixation","","","","",""
"449.32499999413267","Stimuli/Hangul_F0.bmp","188","image-keyboard-response","502","721003","0.0-19.0-2.24","c2_test",".","","","",","
"1351.8499999772757","<p style=""color:white;""> Next Figure: Male or Female? </p>","188","html-keyboard-response","503","722356","0.0-19.0-0.25","prediction","","","",",",""
"null","<div style=""color:white; font-size:60px;"">+</div>","null","html-keyboard-response","504","723358","0.0-19.0-1.25","fixation","","","","",""
"286.35499998927116","Stimuli/Hangul_M3.bmp","188","image-keyboard-response","505","723646","0.0-19.0-2.25","c2_test",",","","","",","
"2195.7900000270456","<p style=""color:white;""> Next Figure: Male or Female? </p>","188","html-keyboard-response","506","725843","0.0-19.0-0.26","prediction","","","",",",""
"null","<div style=""color:white; font-size:60px;"">+</div>","null","html-keyboard-response","507","726845","0.0-19.0-1.26","fixation","","","","",""
"362.3350000125356","Stimuli/Hangul_F13.bmp","190","image-keyboard-response","508","727209","0.0-19.0-2.26","c2_test",".","","","","."
"3318.0149999679998","<p style=""color:white;""> Next Figure: Male or Female? </p>","188","html-keyboard-response","509","730528","0.0-19.0-0.27","prediction","","","",",",""
"null","<div style=""color:white; font-size:60px;"">+</div>","null","html-keyboard-response","510","731529","0.0-19.0-1.27","fixation","","","","",""
"591.0650000441819","Stimuli/Hangul_M8.bmp","188","image-keyboard-response","511","732122","0.0-19.0-2.27","c2_test",",","","","",","
"745.1499999733642","<p style=""color:white;""> Next Figure: Male or Female? </p>","188","html-keyboard-response","512","732868","0.0-19.0-0.28","prediction","","","",",",""
"null","<div style=""color:white; font-size:60px;"">+</div>","null","html-keyboard-response","513","733870","0.0-19.0-1.28","fixation","","","","",""
"485.6300000101328","Stimuli/Hangul_M22.bmp","190","image-keyboard-response","514","734357","0.0-19.0-2.28","c2_test",",","","","","."
"590.1399999856949","<p style=""color:white;""> Next Figure: Male or Female? </p>","190","html-keyboard-response","515","734948","0.0-19.0-0.29","prediction","","","",".",""
"null","<div style=""color:white; font-size:60px;"">+</div>","null","html-keyboard-response","516","735951","0.0-19.0-1.29","fixation","","","","",""
"230.32499995315447","Stimuli/Hangul_M21.bmp","188","image-keyboard-response","517","736183","0.0-19.0-2.29","c2_test",",","","","",","
"520.1700000325218","<p style=""color:white;""> Next Figure: Male or Female? </p>","190","html-keyboard-response","518","736704","0.0-19.0-0.30","prediction","","","",".",""
"null","<div style=""color:white; font-size:60px;"">+</div>","null","html-keyboard-response","519","737705","0.0-19.0-1.30","fixation","","","","",""
"406.7800000193529","Stimuli/Hangul_M4.bmp","190","image-keyboard-response","520","738113","0.0-19.0-2.30","c2_test",",","","","","."
"441.2000000011176","<p style=""color:white;""> Next Figure: Male or Female? </p>","190","html-keyboard-response","521","738555","0.0-19.0-0.31","prediction","","","",".",""
"null","<div style=""color:white; font-size:60px;"">+</div>","null","html-keyboard-response","522","739558","0.0-19.0-1.31","fixation","","","","",""
"721.2099999887869","Stimuli/Hangul_F16.bmp","190","image-keyboard-response","523","740280","0.0-19.0-2.31","c2_test",".","","","","."
"805.6349999969825","<p style=""color:white;""> Next Figure: Male or Female? </p>","190","html-keyboard-response","524","741087","0.0-19.0-0.32","prediction","","","",".",""
"null","<div style=""color:white; font-size:60px;"">+</div>","null","html-keyboard-response","525","742089","0.0-19.0-1.32","fixation","","","","",""
"526.4949999982491","Stimuli/Hangul_F8.bmp","188","image-keyboard-response","526","742616","0.0-19.0-2.32","c2_test",".","","","",","
"1016.8450000346638","<p style=""color:white;""> Next Figure: Male or Female? </p>","188","html-keyboard-response","527","743634","0.0-19.0-0.33","prediction","","","",",",""
"null","<div style=""color:white; font-size:60px;"">+</div>","null","html-keyboard-response","528","744636","0.0-19.0-1.33","fixation","","","","",""
"389.4999999902211","Stimuli/Hangul_F10.bmp","188","image-keyboard-response","529","745026","0.0-19.0-2.33","c2_test",".","","","",","
"845.9049999946728","<p style=""color:white;""> Next Figure: Male or Female? </p>","188","html-keyboard-response","530","745873","0.0-19.0-0.34","prediction","","","",",",""
"null","<div style=""color:white; font-size:60px;"">+</div>","null","html-keyboard-response","531","746874","0.0-19.0-1.34","fixation","","","","",""
"430.9099999954924","Stimuli/Hangul_M10.bmp","188","image-keyboard-response","532","747306","0.0-19.0-2.34","c2_test",",","","","",","
"1446.3600000017323","<p style=""color:white;""> Next Figure: Male or Female? </p>","188","html-keyboard-response","533","748754","0.0-19.0-0.35","prediction","","","",",",""
"null","<div style=""color:white; font-size:60px;"">+</div>","null","html-keyboard-response","534","749756","0.0-19.0-1.35","fixation","","","","",""
"417.44499997003004","Stimuli/Hangul_F20.bmp","188","image-keyboard-response","535","750175","0.0-19.0-2.35","c2_test",".","","","",","
"759.3149999738671","<p style=""color:white;""> Next Figure: Male or Female? </p>","190","html-keyboard-response","536","750935","0.0-19.0-0.36","prediction","","","",".",""
"null","<div style=""color:white; font-size:60px;"">+</div>","null","html-keyboard-response","537","751937","0.0-19.0-1.36","fixation","","","","",""
"776.1099999770522","Stimuli/Hangul_M7.bmp","190","image-keyboard-response","538","752715","0.0-19.0-2.36","c2_test",",","","","","."
"554.2350000469014","<p style=""color:white;""> Next Figure: Male or Female? </p>","190","html-keyboard-response","539","753270","0.0-19.0-0.37","prediction","","","",".",""
"null","<div style=""color:white; font-size:60px;"">+</div>","null","html-keyboard-response","540","754271","0.0-19.0-1.37","fixation","","","","",""
"467.07000001333654","Stimuli/Hangul_M1.bmp","190","image-keyboard-response","541","754740","0.0-19.0-2.37","c2_test",",","","","","."
"792.3799999989569","<p style=""color:white;""> Next Figure: Male or Female? </p>","190","html-keyboard-response","542","755533","0.0-19.0-0.38","prediction","","","",".",""
"null","<div style=""color:white; font-size:60px;"">+</div>","null","html-keyboard-response","543","756534","0.0-19.0-1.38","fixation","","","","",""
"493.0099999764934","Stimuli/Hangul_F22.bmp","190","image-keyboard-response","544","757028","0.0-19.0-2.38","c2_test",".","","","","."
"537.4050000100397","<p style=""color:white;""> Next Figure: Male or Female? </p>","190","html-keyboard-response","545","757566","0.0-19.0-0.39","prediction","","","",".",""
"null","<div style=""color:white; font-size:60px;"">+</div>","null","html-keyboard-response","546","758568","0.0-19.0-1.39","fixation","","","","",""
"230.13999999966472","Stimuli/Hangul_M5.bmp","190","image-keyboard-response","547","758800","0.0-19.0-2.39","c2_test",",","","","","."
"639.1699999803677","<p style=""color:white;""> Next Figure: Male or Female? </p>","188","html-keyboard-response","548","759440","0.0-19.0-0.40","prediction","","","",",",""
"null","<div style=""color:white; font-size:60px;"">+</div>","null","html-keyboard-response","549","760441","0.0-19.0-1.40","fixation","","","","",""
"587.4849999672733","Stimuli/Hangul_F6.bmp","188","image-keyboard-response","550","761030","0.0-19.0-2.40","c2_test",".","","","",","
"594.9450000189245","<p style=""color:white;""> Next Figure: Male or Female? </p>","188","html-keyboard-response","551","761626","0.0-19.0-0.41","prediction","","","",",",""
"null","<div style=""color:white; font-size:60px;"">+</div>","null","html-keyboard-response","552","762628","0.0-19.0-1.41","fixation","","","","",""
"2248.959999997169","Stimuli/Hangul_M9.bmp","190","image-keyboard-response","553","764878","0.0-19.0-2.41","c2_test",",","","","","."
"527.8299999772571","<p style=""color:white;""> Next Figure: Male or Female? </p>","190","html-keyboard-response","554","765406","0.0-19.0-0.42","prediction","","","",".",""
"null","<div style=""color:white; font-size:60px;"">+</div>","null","html-keyboard-response","555","766409","0.0-19.0-1.42","fixation","","","","",""
"532.2149999556132","Stimuli/Hangul_F4.bmp","188","image-keyboard-response","556","766942","0.0-19.0-2.42","c2_test",".","","","",","
"1534.574999997858","<p style=""color:white;""> Next Figure: Male or Female? </p>","188","html-keyboard-response","557","768478","0.0-19.0-0.43","prediction","","","",",",""
"null","<div style=""color:white; font-size:60px;"">+</div>","null","html-keyboard-response","558","769479","0.0-19.0-1.43","fixation","","","","",""
"72.93999998364598","Stimuli/Hangul_F11.bmp","188","image-keyboard-response","559","769553","0.0-19.0-2.43","c2_test",".","","","",","
"390.15499997185543","<p style=""color:white;""> Next Figure: Male or Female? </p>","188","html-keyboard-response","560","769944","0.0-19.0-0.44","prediction","","","",",",""
"null","<div style=""color:white; font-size:60px;"">+</div>","null","html-keyboard-response","561","770946","0.0-19.0-1.44","fixation","","","","",""
"403.6100000375882","Stimuli/Hangul_M14.bmp","188","image-keyboard-response","562","771351","0.0-19.0-2.44","c2_test",",","","","",","
"1440.6150000286289","<p style=""color:white;""> Next Figure: Male or Female? </p>","188","html-keyboard-response","563","772794","0.0-19.0-0.45","prediction","","","",",",""
"null","<div style=""color:white; font-size:60px;"">+</div>","null","html-keyboard-response","564","773795","0.0-19.0-1.45","fixation","","","","",""
"442.67999997828156","Stimuli/Hangul_M6.bmp","188","image-keyboard-response","565","774239","0.0-19.0-2.45","c2_test",",","","","",","
"1211.814999987837","<p style=""color:white;""> Next Figure: Male or Female? </p>","190","html-keyboard-response","566","775452","0.0-19.0-0.46","prediction","","","",".",""
"null","<div style=""color:white; font-size:60px;"">+</div>","null","html-keyboard-response","567","776454","0.0-19.0-1.46","fixation","","","","",""
"465.5299999867566","Stimuli/Hangul_F17.bmp","190","image-keyboard-response","568","776921","0.0-19.0-2.46","c2_test",".","","","","."
"733.814999985043","<p style=""color:white;""> Next Figure: Male or Female? </p>","190","html-keyboard-response","569","777656","0.0-19.0-0.47","prediction","","","",".",""
"null","<div style=""color:white; font-size:60px;"">+</div>","null","html-keyboard-response","570","778657","0.0-19.0-1.47","fixation","","","","",""
"478.5099999862723","Stimuli/Hangul_M12.bmp","190","image-keyboard-response","571","779137","0.0-19.0-2.47","c2_test",",","","","","."
"511.50000002235174","<p style=""color:white;""> Next Figure: Male or Female? </p>","190","html-keyboard-response","572","779649","0.0-19.0-0.48","prediction","","","",".",""
"null","<div style=""color:white; font-size:60px;"">+</div>","null","html-keyboard-response","573","780652","0.0-19.0-1.48","fixation","","","","",""
"1206.2400000286289","Stimuli/Hangul_F3.bmp","190","image-keyboard-response","574","781859","0.0-19.0-2.48","c2_test",".","","","","."
"388.2449999800883","<p style=""color:white;""> Next Figure: Male or Female? </p>","190","html-keyboard-response","575","782248","0.0-19.0-0.49","prediction","","","",".",""
"null","<div style=""color:white; font-size:60px;"">+</div>","null","html-keyboard-response","576","783250","0.0-19.0-1.49","fixation","","","","",""
"410.730000003241","Stimuli/Hangul_M19.bmp","188","image-keyboard-response","577","783661","0.0-19.0-2.49","c2_test",",","","","",","
"69825.7899999735","<p style=""color:white;"">Good job, block 1 complete! Please take a moment to rest.</p> <p style=""color:white;"">When you are ready to continue with block 2 of 4, press the space bar.</p> ","32","html-keyboard-response","578","853489","0.0-20.0","","","","","",""
"412.7650000154972","<p style=""color:white;""> Next Figure: Male or Female? </p>","188","html-keyboard-response","579","855905","0.0-21.0-0.0","prediction","","","",",",""
"null","<div style=""color:white; font-size:60px;"">+</div>","null","html-keyboard-response","580","856907","0.0-21.0-1.0","fixation","","","","",""
"452.4849999579601","Stimuli/Hangul_M46.bmp","188","image-keyboard-response","581","857361","0.0-21.0-2.0","c2_test",",","","","",","
"891.925000003539","<p style=""color:white;""> Next Figure: Male or Female? </p>","188","html-keyboard-response","582","858254","0.0-21.0-0.1","prediction","","","",",",""
"null","<div style=""color:white; font-size:60px;"">+</div>","null","html-keyboard-response","583","859256","0.0-21.0-1.1","fixation","","","","",""
"480.72499997215346","Stimuli/Hangul_M38.bmp","190","image-keyboard-response","584","859737","0.0-21.0-2.1","c2_test",",","","","","."
"2588.2600000477396","<p style=""color:white;""> Next Figure: Male or Female? </p>","190","html-keyboard-response","585","862327","0.0-21.0-0.2","prediction","","","",".",""
"null","<div style=""color:white; font-size:60px;"">+</div>","null","html-keyboard-response","586","863328","0.0-21.0-1.2","fixation","","","","",""
"181.77500000456348","Stimuli/Hangul_F27.bmp","190","image-keyboard-response","587","863511","0.0-21.0-2.2","c2_test",".","","","","."
"2045.4749999917112","<p style=""color:white;""> Next Figure: Male or Female? </p>","188","html-keyboard-response","588","865559","0.0-21.0-0.3","prediction","","","",",",""
"null","<div style=""color:white; font-size:60px;"">+</div>","null","html-keyboard-response","589","866560","0.0-21.0-1.3","fixation","","","","",""
"174.2649999796413","Stimuli/Hangul_M31.bmp","188","image-keyboard-response","590","866736","0.0-21.0-2.3","c2_test",",","","","",","
"766.5699999779463","<p style=""color:white;""> Next Figure: Male or Female? </p>","188","html-keyboard-response","591","867503","0.0-21.0-0.4","prediction","","","",",",""
"null","<div style=""color:white; font-size:60px;"">+</div>","null","html-keyboard-response","592","868504","0.0-21.0-1.4","fixation","","","","",""
"422.84499999368563","Stimuli/Hangul_F49.bmp","188","image-keyboard-response","593","868928","0.0-21.0-2.4","c2_test",".","","","",","
"883.4299999871291","<p style=""color:white;""> Next Figure: Male or Female? </p>","188","html-keyboard-response","594","869813","0.0-21.0-0.5","prediction","","","",",",""
"null","<div style=""color:white; font-size:60px;"">+</div>","null","html-keyboard-response","595","870815","0.0-21.0-1.5","fixation","","","","",""
"471.18999995291233","Stimuli/Hangul_F32.bmp","188","image-keyboard-response","596","871287","0.0-21.0-2.5","c2_test",".","","","",","
"2134.8199999774806","<p style=""color:white;""> Next Figure: Male or Female? </p>","190","html-keyboard-response","597","873423","0.0-21.0-0.6","prediction","","","",".",""
"null","<div style=""color:white; font-size:60px;"">+</div>","null","html-keyboard-response","598","874425","0.0-21.0-1.6","fixation","","","","",""
"2722.379999991972","Stimuli/Hangul_M49.bmp","190","image-keyboard-response","599","877149","0.0-21.0-2.6","c2_test",",","","","","."
"488.63499995786697","<p style=""color:white;""> Next Figure: Male or Female? </p>","190","html-keyboard-response","600","877638","0.0-21.0-0.7","prediction","","","",".",""
"null","<div style=""color:white; font-size:60px;"">+</div>","null","html-keyboard-response","601","878639","0.0-21.0-1.7","fixation","","","","",""
"625.8399999933317","Stimuli/Hangul_F26.bmp","190","image-keyboard-response","602","879266","0.0-21.0-2.7","c2_test",".","","","","."
"460.7700000051409","<p style=""color:white;""> Next Figure: Male or Female? </p>","190","html-keyboard-response","603","879729","0.0-21.0-0.8","prediction","","","",".",""
"null","<div style=""color:white; font-size:60px;"">+</div>","null","html-keyboard-response","604","880731","0.0-21.0-1.8","fixation","","","","",""
"529.2950000148267","Stimuli/Hangul_M28.bmp","190","image-keyboard-response","605","881261","0.0-21.0-2.8","c2_test",",","","","","."
"551.8900000024587","<p style=""color:white;""> Next Figure: Male or Female? </p>","188","html-keyboard-response","606","881814","0.0-21.0-0.9","prediction","","","",",",""
"null","<div style=""color:white; font-size:60px;"">+</div>","null","html-keyboard-response","607","882817","0.0-21.0-1.9","fixation","","","","",""
"633.7599999969825","Stimuli/Hangul_M36.bmp","188","image-keyboard-response","608","883451","0.0-21.0-2.9","c2_test",",","","","",","
"2553.810000012163","<p style=""color:white;""> Next Figure: Male or Female? </p>","188","html-keyboard-response","609","886007","0.0-21.0-0.10","prediction","","","",",",""
"null","<div style=""color:white; font-size:60px;"">+</div>","null","html-keyboard-response","610","887009","0.0-21.0-1.10","fixation","","","","",""
"718.2400000165217","Stimuli/Hangul_M26.bmp","188","image-keyboard-response","611","887728","0.0-21.0-2.10","c2_test",",","","","",","
"1786.4249999984168","<p style=""color:white;""> Next Figure: Male or Female? </p>","188","html-keyboard-response","612","889516","0.0-21.0-0.11","prediction","","","",",",""
"null","<div style=""color:white; font-size:60px;"">+</div>","null","html-keyboard-response","613","890517","0.0-21.0-1.11","fixation","","","","",""
"617.2950000036508","Stimuli/Hangul_F43.bmp","188","image-keyboard-response","614","891136","0.0-21.0-2.11","c2_test",".","","","",","
"623.5849999939092","<p style=""color:white;""> Next Figure: Male or Female? </p>","188","html-keyboard-response","615","891760","0.0-21.0-0.12","prediction","","","",",",""
"null","<div style=""color:white; font-size:60px;"">+</div>","null","html-keyboard-response","616","892762","0.0-21.0-1.12","fixation","","","","",""
"287.26500004995614","Stimuli/Hangul_F36.bmp","190","image-keyboard-response","617","893050","0.0-21.0-2.12","c2_test",".","","","","."
"502.0449999719858","<p style=""color:white;""> Next Figure: Male or Female? </p>","190","html-keyboard-response","618","893553","0.0-21.0-0.13","prediction","","","",".",""
"null","<div style=""color:white; font-size:60px;"">+</div>","null","html-keyboard-response","619","894556","0.0-21.0-1.13","fixation","","","","",""
"594.7700000251643","Stimuli/Hangul_F35.bmp","190","image-keyboard-response","620","895152","0.0-21.0-2.13","c2_test",".","","","","."
"2660.199999983888","<p style=""color:white;""> Next Figure: Male or Female? </p>","190","html-keyboard-response","621","897813","0.0-21.0-0.14","prediction","","","",".",""
"null","<div style=""color:white; font-size:60px;"">+</div>","null","html-keyboard-response","622","898814","0.0-21.0-1.14","fixation","","","","",""
"100.99000000627711","Stimuli/Hangul_M43.bmp","190","image-keyboard-response","623","898916","0.0-21.0-2.14","c2_test",",","","","","."
"526.5950000029989","<p style=""color:white;""> Next Figure: Male or Female? </p>","190","html-keyboard-response","624","899444","0.0-21.0-0.15","prediction","","","",".",""
"null","<div style=""color:white; font-size:60px;"">+</div>","null","html-keyboard-response","625","900446","0.0-21.0-1.15","fixation","","","","",""
"463.98999996017665","Stimuli/Hangul_M47.bmp","190","image-keyboard-response","626","900912","0.0-21.0-2.15","c2_test",",","","","","."
"519.3250000011176","<p style=""color:white;""> Next Figure: Male or Female? </p>","190","html-keyboard-response","627","901432","0.0-21.0-0.16","prediction","","","",".",""
"null","<div style=""color:white; font-size:60px;"">+</div>","null","html-keyboard-response","628","902435","0.0-21.0-1.16","fixation","","","","",""
"2802.0549999782816","Stimuli/Hangul_M25.bmp","188","image-keyboard-response","629","905238","0.0-21.0-2.16","c2_test",",","","","",","
"8.710000023711473","<p style=""color:white;""> Next Figure: Male or Female? </p>","190","html-keyboard-response","630","905247","0.0-21.0-0.17","prediction","","","",".",""
"null","<div style=""color:white; font-size:60px;"">+</div>","null","html-keyboard-response","631","906250","0.0-21.0-1.17","fixation","","","","",""
"1717.6899999612942","Stimuli/Hangul_F28.bmp","188","image-keyboard-response","632","907969","0.0-21.0-2.17","c2_test",".","","","",","
"411.75000002840534","<p style=""color:white;""> Next Figure: Male or Female? </p>","188","html-keyboard-response","633","908382","0.0-21.0-0.18","prediction","","","",",",""
"null","<div style=""color:white; font-size:60px;"">+</div>","null","html-keyboard-response","634","909385","0.0-21.0-1.18","fixation","","","","",""
"1650.6550000049174","Stimuli/Hangul_M29.bmp","188","image-keyboard-response","635","911036","0.0-21.0-2.18","c2_test",",","","","",","
"387.87000003503636","<p style=""color:white;""> Next Figure: Male or Female? </p>","188","html-keyboard-response","636","911425","0.0-21.0-0.19","prediction","","","",",",""
"null","<div style=""color:white; font-size:60px;"">+</div>","null","html-keyboard-response","637","912427","0.0-21.0-1.19","fixation","","","","",""
"544.3300000042655","Stimuli/Hangul_M30.bmp","188","image-keyboard-response","638","912973","0.0-21.0-2.19","c2_test",",","","","",","
"449.9199999845587","<p style=""color:white;""> Next Figure: Male or Female? </p>","188","html-keyboard-response","639","913424","0.0-21.0-0.20","prediction","","","",",",""
"null","<div style=""color:white; font-size:60px;"">+</div>","null","html-keyboard-response","640","914426","0.0-21.0-1.20","fixation","","","","",""
"370.54500001249835","Stimuli/Hangul_M35.bmp","188","image-keyboard-response","641","914798","0.0-21.0-2.20","c2_test",",","","","",","
"4256.739999982528","<p style=""color:white;""> Next Figure: Male or Female? </p>","188","html-keyboard-response","642","919055","0.0-21.0-0.21","prediction","","","",",",""
"null","<div style=""color:white; font-size:60px;"">+</div>","null","html-keyboard-response","643","920057","0.0-21.0-1.21","fixation","","","","",""
"106.75000003539026","Stimuli/Hangul_F42.bmp","188","image-keyboard-response","644","920165","0.0-21.0-2.21","c2_test",".","","","",","
"445.2750000054948","<p style=""color:white;""> Next Figure: Male or Female? </p>","188","html-keyboard-response","645","920611","0.0-21.0-0.22","prediction","","","",",",""
"null","<div style=""color:white; font-size:60px;"">+</div>","null","html-keyboard-response","646","921613","0.0-21.0-1.22","fixation","","","","",""
"486.31499998737127","Stimuli/Hangul_F39.bmp","188","image-keyboard-response","647","922100","0.0-21.0-2.22","c2_test",".","","","",","
"361.18999996688217","<p style=""color:white;""> Next Figure: Male or Female? </p>","188","html-keyboard-response","648","922463","0.0-21.0-0.23","prediction","","","",",",""
"null","<div style=""color:white; font-size:60px;"">+</div>","null","html-keyboard-response","649","923465","0.0-21.0-1.23","fixation","","","","",""
"70.84500003838912","Stimuli/Hangul_M41.bmp","188","image-keyboard-response","650","923536","0.0-21.0-2.23","c2_test",",","","","",","
"220.97000002395362","<p style=""color:white;""> Next Figure: Male or Female? </p>","188","html-keyboard-response","651","923759","0.0-21.0-0.24","prediction","","","",",",""
"null","<div style=""color:white; font-size:60px;"">+</div>","null","html-keyboard-response","652","924760","0.0-21.0-1.24","fixation","","","","",""
"360.1199999684468","Stimuli/Hangul_M40.bmp","190","image-keyboard-response","653","925121","0.0-21.0-2.24","c2_test",",","","","","."
"370.885000040289","<p style=""color:white;""> Next Figure: Male or Female? </p>","190","html-keyboard-response","654","925494","0.0-21.0-0.25","prediction","","","",".",""
"null","<div style=""color:white; font-size:60px;"">+</div>","null","html-keyboard-response","655","926496","0.0-21.0-1.25","fixation","","","","",""
"183.42000001575798","Stimuli/Hangul_F37.bmp","190","image-keyboard-response","656","926680","0.0-21.0-2.25","c2_test",".","","","","."
"874.8699999996461","<p style=""color:white;""> Next Figure: Male or Female? </p>","190","html-keyboard-response","657","927556","0.0-21.0-0.26","prediction","","","",".",""
