"rt","stimulus","key_press","trial_type","trial_index","time_elapsed","internal_node_id","test_part","correct_response","C1_train","C1","A","C2"
"561401.8749999814","<p style=""color:white;"">Welcome to the experiment! Press any key to begin.</p>","32","html-keyboard-response","0","561409","0.0-0.0","","","","","",""
"44314.54999977723","<p style=""color:white;"">You will see a series of abstract figures. They are adaptations of signs in the Korean alphabet, but that is not important for this study. </p><p style=""color:white;"">Abstract figures sometimes have a more masculine or feminine shape. Here, each figure has already been assigned a gender as <q>Male</q> or <q>Female</q> by a panel of respondents in a pilot study. The respondents were not given specific instructions on how to do this, but were only told to use their intuition and to take into account the entire configuration of the stimulus. </p><p style=""color:white;"">Your task now is to guess the assigned gender of each figure. Please press the corresponding response keys to indicate your choice: </p><p style=""color:white;""> Male &#8594 <q>,</q> (comma)</p><p style=""color:white;""> Female &#8594 <q>.</q> (period)</p><p style=""color:white;"">Press either response keys to continue.</p>","190","html-keyboard-response","1","605728","0.0-1.0","","","","","",""
"11060.694999992847","<p style=""color:white;"">Your choice is correct if it matches the gender assigned by the majority of respondents in the pilot study.</p> <p style=""color:white;"">For each correct choice you will receive 2 cents. There will be 200 trials divided into 4 blocks of 50 trials. You will be able to take a break after every 50 trials.</p> <p style=""color:white;"">Press the space bar to continue.</p>","32","html-keyboard-response","2","616791","0.0-2.0","","","","","",""
"5068.479999899864","<p style=""color:white;"">Here are some examples.</p> <p style=""color:white;"">For each, guess whether the assigned figure is male-like or female-like and indicate your choice by pressing either response keys.</p> <p style=""color:white;"">Press the space bar to continue.</p>","32","html-keyboard-response","3","621861","0.0-3.0","","","","","",""
"null","<div style=""color:white; font-size:60px;"">+</div>","null","html-keyboard-response","4","624865","0.0-4.0-0.0","fixation","","","","",""
"2992.405000142753","Stimuli/Hangul_E1.bmp","190","image-keyboard-response","5","627862","0.0-4.0-1.0","c1_train",",",".","","",""
"null","<div style=""color:white; font-size:60px;"">+</div>","null","html-keyboard-response","6","628864","0.0-4.0-0.1","fixation","","","","",""
"3442.629999946803","Stimuli/Hangul_E2.bmp","188","image-keyboard-response","7","632308","0.0-4.0-1.1","c1_train",".",",","","",""
"null","<div style=""color:white; font-size:60px;"">+</div>","null","html-keyboard-response","8","633310","0.0-4.0-0.2","fixation","","","","",""
"2779.4299996457994","Stimuli/Hangul_E0.bmp","188","image-keyboard-response","9","636093","0.0-4.0-1.2","c1_train",",",",","","",""
"8270.404999610037","<p style=""color:white;"">Let us begin! Press the space bar when you are ready to start block 1 of 4.</p> ","32","html-keyboard-response","10","644365","0.0-5.0","","","","","",""
"null","<div style=""color:white; font-size:60px;"">+</div>","null","html-keyboard-response","11","647370","0.0-6.0-0.0","fixation","","","","",""
"2311.2400001846254","Stimuli/Hangul_F15.bmp","190","image-keyboard-response","12","649685","0.0-6.0-1.0","test",".","",".","",""
"null","<div style=""color:white; font-size:60px;"">+</div>","null","html-keyboard-response","13","650688","0.0-6.0-0.1","fixation","","","","",""
"2146.7900001443923","Stimuli/Hangul_M12.bmp","188","image-keyboard-response","14","652836","0.0-6.0-1.1","test",",","",",","",""
"null","<div style=""color:white; font-size:60px;"">+</div>","null","html-keyboard-response","15","653838","0.0-6.0-0.2","fixation","","","","",""
"2380.850000306964","Stimuli/Hangul_F4.bmp","190","image-keyboard-response","16","656221","0.0-6.0-1.2","test",".","",".","",""
"null","<div style=""color:white; font-size:60px;"">+</div>","null","html-keyboard-response","17","657224","0.0-6.0-0.3","fixation","","","","",""
"3626.6149999573827","Stimuli/Hangul_F13.bmp","188","image-keyboard-response","18","660852","0.0-6.0-1.3","test",".","",",","",""
"null","<div style=""color:white; font-size:60px;"">+</div>","null","html-keyboard-response","19","661856","0.0-6.0-0.4","fixation","","","","",""
"2497.5649998523295","Stimuli/Hangul_F24.bmp","188","image-keyboard-response","20","664356","0.0-6.0-1.4","test",".","",",","",""
"null","<div style=""color:white; font-size:60px;"">+</div>","null","html-keyboard-response","21","665359","0.0-6.0-0.5","fixation","","","","",""
"4166.395000182092","Stimuli/Hangul_F21.bmp","190","image-keyboard-response","22","669526","0.0-6.0-1.5","test",".","",".","",""
"null","<div style=""color:white; font-size:60px;"">+</div>","null","html-keyboard-response","23","670529","0.0-6.0-0.6","fixation","","","","",""
"3328.7700000219047","Stimuli/Hangul_M9.bmp","188","image-keyboard-response","24","673861","0.0-6.0-1.6","test",",","",",","",""
"null","<div style=""color:white; font-size:60px;"">+</div>","null","html-keyboard-response","25","674886","0.0-6.0-0.7","fixation","","","","",""
"2145.130000077188","Stimuli/Hangul_M8.bmp","188","image-keyboard-response","26","677037","0.0-6.0-1.7","test",",","",",","",""
"null","<div style=""color:white; font-size:60px;"">+</div>","null","html-keyboard-response","27","678039","0.0-6.0-0.8","fixation","","","","",""
"2444.2449999041855","Stimuli/Hangul_M4.bmp","190","image-keyboard-response","28","680485","0.0-6.0-1.8","test",",","",".","",""
"null","<div style=""color:white; font-size:60px;"">+</div>","null","html-keyboard-response","29","681486","0.0-6.0-0.9","fixation","","","","",""
"3667.730000335723","Stimuli/Hangul_F6.bmp","190","image-keyboard-response","30","685157","0.0-6.0-1.9","test",".","",".","",""
"null","<div style=""color:white; font-size:60px;"">+</div>","null","html-keyboard-response","31","686159","0.0-6.0-0.10","fixation","","","","",""
"3042.024999856949","Stimuli/Hangul_M19.bmp","190","image-keyboard-response","32","689204","0.0-6.0-1.10","test",",","",".","",""
"null","<div style=""color:white; font-size:60px;"">+</div>","null","html-keyboard-response","33","690206","0.0-6.0-0.11","fixation","","","","",""
"3685.9750002622604","Stimuli/Hangul_M17.bmp","188","image-keyboard-response","34","693893","0.0-6.0-1.11","test",",","",",","",""
"null","<div style=""color:white; font-size:60px;"">+</div>","null","html-keyboard-response","35","694896","0.0-6.0-0.12","fixation","","","","",""
"1914.6750001236796","Stimuli/Hangul_M10.bmp","188","image-keyboard-response","36","696813","0.0-6.0-1.12","test",",","",",","",""
"null","<div style=""color:white; font-size:60px;"">+</div>","null","html-keyboard-response","37","697815","0.0-6.0-0.13","fixation","","","","",""
"2371.8449999578297","Stimuli/Hangul_F23.bmp","188","image-keyboard-response","38","700188","0.0-6.0-1.13","test",".","",",","",""
"null","<div style=""color:white; font-size:60px;"">+</div>","null","html-keyboard-response","39","701190","0.0-6.0-0.14","fixation","","","","",""
"3110.3949998505414","Stimuli/Hangul_F5.bmp","188","image-keyboard-response","40","704303","0.0-6.0-1.14","test",".","",",","",""
"null","<div style=""color:white; font-size:60px;"">+</div>","null","html-keyboard-response","41","705305","0.0-6.0-0.15","fixation","","","","",""
"3609.4849999062717","Stimuli/Hangul_F18.bmp","190","image-keyboard-response","42","708917","0.0-6.0-1.15","test",".","",".","",""
"null","<div style=""color:white; font-size:60px;"">+</div>","null","html-keyboard-response","43","709919","0.0-6.0-0.16","fixation","","","","",""
"3420.004999730736","Stimuli/Hangul_M16.bmp","188","image-keyboard-response","44","713341","0.0-6.0-1.16","test",",","",",","",""
"null","<div style=""color:white; font-size:60px;"">+</div>","null","html-keyboard-response","45","714344","0.0-6.0-0.17","fixation","","","","",""
"2099.510000087321","Stimuli/Hangul_F8.bmp","190","image-keyboard-response","46","716446","0.0-6.0-1.17","test",".","",".","",""
"null","<div style=""color:white; font-size:60px;"">+</div>","null","html-keyboard-response","47","717449","0.0-6.0-0.18","fixation","","","","",""
"4771.019999869168","Stimuli/Hangul_M23.bmp","190","image-keyboard-response","48","722221","0.0-6.0-1.18","test",",","",".","",""
"null","<div style=""color:white; font-size:60px;"">+</div>","null","html-keyboard-response","49","723224","0.0-6.0-0.19","fixation","","","","",""
"3908.405000343919","Stimuli/Hangul_M3.bmp","188","image-keyboard-response","50","727135","0.0-6.0-1.19","test",",","",",","",""
"null","<div style=""color:white; font-size:60px;"">+</div>","null","html-keyboard-response","51","728138","0.0-6.0-0.20","fixation","","","","",""
"2096.8900001607835","Stimuli/Hangul_M1.bmp","188","image-keyboard-response","52","730237","0.0-6.0-1.20","test",",","",",","",""
"null","<div style=""color:white; font-size:60px;"">+</div>","null","html-keyboard-response","53","731240","0.0-6.0-0.21","fixation","","","","",""
"3994.3699999712408","Stimuli/Hangul_F3.bmp","190","image-keyboard-response","54","735237","0.0-6.0-1.21","test",".","",".","",""
"null","<div style=""color:white; font-size:60px;"">+</div>","null","html-keyboard-response","55","736240","0.0-6.0-0.22","fixation","","","","",""
"4100.294999778271","Stimuli/Hangul_F17.bmp","188","image-keyboard-response","56","740342","0.0-6.0-1.22","test",".","",",","",""
"null","<div style=""color:white; font-size:60px;"">+</div>","null","html-keyboard-response","57","741345","0.0-6.0-0.23","fixation","","","","",""
"2113.4049999527633","Stimuli/Hangul_F1.bmp","190","image-keyboard-response","58","743461","0.0-6.0-1.23","test",".","",".","",""
"null","<div style=""color:white; font-size:60px;"">+</div>","null","html-keyboard-response","59","744464","0.0-6.0-0.24","fixation","","","","",""
"2380.6000002659857","Stimuli/Hangul_F11.bmp","190","image-keyboard-response","60","746845","0.0-6.0-1.24","test",".","",".","",""
"null","<div style=""color:white; font-size:60px;"">+</div>","null","html-keyboard-response","61","747848","0.0-6.0-0.25","fixation","","","","",""
"2394.4399999454618","Stimuli/Hangul_F2.bmp","190","image-keyboard-response","62","750245","0.0-6.0-1.25","test",".","",".","",""
"null","<div style=""color:white; font-size:60px;"">+</div>","null","html-keyboard-response","63","751248","0.0-6.0-0.26","fixation","","","","",""
"2404.569999780506","Stimuli/Hangul_F19.bmp","190","image-keyboard-response","64","753654","0.0-6.0-1.26","test",".","",".","",""
"null","<div style=""color:white; font-size:60px;"">+</div>","null","html-keyboard-response","65","754657","0.0-6.0-0.27","fixation","","","","",""
"2041.8350002728403","Stimuli/Hangul_F16.bmp","188","image-keyboard-response","66","756701","0.0-6.0-1.27","test",".","",",","",""
"null","<div style=""color:white; font-size:60px;"">+</div>","null","html-keyboard-response","67","757703","0.0-6.0-0.28","fixation","","","","",""
"3659.334999974817","Stimuli/Hangul_F0.bmp","188","image-keyboard-response","68","761365","0.0-6.0-1.28","test",".","",",","",""
"null","<div style=""color:white; font-size:60px;"">+</div>","null","html-keyboard-response","69","762372","0.0-6.0-0.29","fixation","","","","",""
"2143.8649999909103","Stimuli/Hangul_M5.bmp","190","image-keyboard-response","70","764518","0.0-6.0-1.29","test",",","",".","",""
"null","<div style=""color:white; font-size:60px;"">+</div>","null","html-keyboard-response","71","765520","0.0-6.0-0.30","fixation","","","","",""
"2906.450000125915","Stimuli/Hangul_M7.bmp","190","image-keyboard-response","72","768428","0.0-6.0-1.30","test",",","",".","",""
"null","<div style=""color:white; font-size:60px;"">+</div>","null","html-keyboard-response","73","769430","0.0-6.0-0.31","fixation","","","","",""
"3436.524999793619","Stimuli/Hangul_M24.bmp","190","image-keyboard-response","74","772869","0.0-6.0-1.31","test",",","",".","",""
"null","<div style=""color:white; font-size:60px;"">+</div>","null","html-keyboard-response","75","773872","0.0-6.0-0.32","fixation","","","","",""
"2915.870000142604","Stimuli/Hangul_M15.bmp","190","image-keyboard-response","76","776790","0.0-6.0-1.32","test",",","",".","",""
"null","<div style=""color:white; font-size:60px;"">+</div>","null","html-keyboard-response","77","777794","0.0-6.0-0.33","fixation","","","","",""
"2353.114999830723","Stimuli/Hangul_F20.bmp","190","image-keyboard-response","78","780149","0.0-6.0-1.33","test",".","",".","",""
"null","<div style=""color:white; font-size:60px;"">+</div>","null","html-keyboard-response","79","781151","0.0-6.0-0.34","fixation","","","","",""
"2100.0800002366304","Stimuli/Hangul_M6.bmp","188","image-keyboard-response","80","783252","0.0-6.0-1.34","test",",","",",","",""
"null","<div style=""color:white; font-size:60px;"">+</div>","null","html-keyboard-response","81","784254","0.0-6.0-0.35","fixation","","","","",""
"1965.0499997660518","Stimuli/Hangul_F22.bmp","190","image-keyboard-response","82","786220","0.0-6.0-1.35","test",".","",".","",""
"null","<div style=""color:white; font-size:60px;"">+</div>","null","html-keyboard-response","83","787222","0.0-6.0-0.36","fixation","","","","",""
"1975.6200001575053","Stimuli/Hangul_M11.bmp","188","image-keyboard-response","84","789199","0.0-6.0-1.36","test",",","",",","",""
"null","<div style=""color:white; font-size:60px;"">+</div>","null","html-keyboard-response","85","790201","0.0-6.0-0.37","fixation","","","","",""
"2897.425000090152","Stimuli/Hangul_M21.bmp","188","image-keyboard-response","86","793101","0.0-6.0-1.37","test",",","",",","",""
"null","<div style=""color:white; font-size:60px;"">+</div>","null","html-keyboard-response","87","794105","0.0-6.0-0.38","fixation","","","","",""
"3481.4249998889863","Stimuli/Hangul_F7.bmp","188","image-keyboard-response","88","797589","0.0-6.0-1.38","test",".","",",","",""
"null","<div style=""color:white; font-size:60px;"">+</div>","null","html-keyboard-response","89","798592","0.0-6.0-0.39","fixation","","","","",""
"2107.6650000177324","Stimuli/Hangul_M18.bmp","188","image-keyboard-response","90","800701","0.0-6.0-1.39","test",",","",",","",""
"null","<div style=""color:white; font-size:60px;"">+</div>","null","html-keyboard-response","91","801704","0.0-6.0-0.40","fixation","","","","",""
"4306.259999983013","Stimuli/Hangul_M0.bmp","188","image-keyboard-response","92","806013","0.0-6.0-1.40","test",",","",",","",""
"null","<div style=""color:white; font-size:60px;"">+</div>","null","html-keyboard-response","93","807015","0.0-6.0-0.41","fixation","","","","",""
"4074.754999950528","Stimuli/Hangul_F9.bmp","190","image-keyboard-response","94","811093","0.0-6.0-1.41","test",".","",".","",""
"null","<div style=""color:white; font-size:60px;"">+</div>","null","html-keyboard-response","95","812094","0.0-6.0-0.42","fixation","","","","",""
"2412.3250003904104","Stimuli/Hangul_M22.bmp","190","image-keyboard-response","96","814509","0.0-6.0-1.42","test",",","",".","",""
"null","<div style=""color:white; font-size:60px;"">+</div>","null","html-keyboard-response","97","815511","0.0-6.0-0.43","fixation","","","","",""
"2348.6199998296797","Stimuli/Hangul_M2.bmp","190","image-keyboard-response","98","817861","0.0-6.0-1.43","test",",","",".","",""
"null","<div style=""color:white; font-size:60px;"">+</div>","null","html-keyboard-response","99","818863","0.0-6.0-0.44","fixation","","","","",""
"2300.3600002266467","Stimuli/Hangul_F10.bmp","190","image-keyboard-response","100","821166","0.0-6.0-1.44","test",".","",".","",""
"null","<div style=""color:white; font-size:60px;"">+</div>","null","html-keyboard-response","101","822169","0.0-6.0-0.45","fixation","","","","",""
"2504.484999924898","Stimuli/Hangul_M20.bmp","190","image-keyboard-response","102","824677","0.0-6.0-1.45","test",",","",".","",""
"null","<div style=""color:white; font-size:60px;"">+</div>","null","html-keyboard-response","103","825680","0.0-6.0-0.46","fixation","","","","",""
"2643.724999856204","Stimuli/Hangul_F12.bmp","190","image-keyboard-response","104","828324","0.0-6.0-1.46","test",".","",".","",""
"null","<div style=""color:white; font-size:60px;"">+</div>","null","html-keyboard-response","105","829326","0.0-6.0-0.47","fixation","","","","",""
"2013.2650001905859","Stimuli/Hangul_M14.bmp","188","image-keyboard-response","106","831342","0.0-6.0-1.47","test",",","",",","",""
"null","<div style=""color:white; font-size:60px;"">+</div>","null","html-keyboard-response","107","832344","0.0-6.0-0.48","fixation","","","","",""
"2331.009999848902","Stimuli/Hangul_F14.bmp","190","image-keyboard-response","108","834677","0.0-6.0-1.48","test",".","",".","",""
"null","<div style=""color:white; font-size:60px;"">+</div>","null","html-keyboard-response","109","835680","0.0-6.0-0.49","fixation","","","","",""
"3811.439999844879","Stimuli/Hangul_M13.bmp","188","image-keyboard-response","110","839493","0.0-6.0-1.49","test",",","",",","",""
"4031.090000178665","<p style=""color:white;"">Good job, block 1 complete! Please take a moment to rest.</p> <p style=""color:white;"">When you are ready to continue with block 2 of 4, press the space bar.</p> ","32","html-keyboard-response","111","843526","0.0-7.0","","","","","",""
"null","<div style=""color:white; font-size:60px;"">+</div>","null","html-keyboard-response","112","846530","0.0-8.0-0.0","fixation","","","","",""
"2023.9850003272295","Stimuli/Hangul_M41.bmp","190","image-keyboard-response","113","848557","0.0-8.0-1.0","test",",","",".","",""
"null","<div style=""color:white; font-size:60px;"">+</div>","null","html-keyboard-response","114","849559","0.0-8.0-0.1","fixation","","","","",""
"2716.275000013411","Stimuli/Hangul_M37.bmp","188","image-keyboard-response","115","852277","0.0-8.0-1.1","test",",","",",","",""
"null","<div style=""color:white; font-size:60px;"">+</div>","null","html-keyboard-response","116","853279","0.0-8.0-0.2","fixation","","","","",""
"2124.1649999283254","Stimuli/Hangul_M27.bmp","188","image-keyboard-response","117","855406","0.0-8.0-1.2","test",",","",",","",""
"null","<div style=""color:white; font-size:60px;"">+</div>","null","html-keyboard-response","118","856409","0.0-8.0-0.3","fixation","","","","",""
"3090.0949998758733","Stimuli/Hangul_M38.bmp","190","image-keyboard-response","119","859501","0.0-8.0-1.3","test",",","",".","",""
"null","<div style=""color:white; font-size:60px;"">+</div>","null","html-keyboard-response","120","860504","0.0-8.0-0.4","fixation","","","","",""
"1957.9449999146163","Stimuli/Hangul_F37.bmp","190","image-keyboard-response","121","862469","0.0-8.0-1.4","test",".","",".","",""
"null","<div style=""color:white; font-size:60px;"">+</div>","null","html-keyboard-response","122","863474","0.0-8.0-0.5","fixation","","","","",""
"2473.950000014156","Stimuli/Hangul_F38.bmp","190","image-keyboard-response","123","865950","0.0-8.0-1.5","test",".","",".","",""
"null","<div style=""color:white; font-size:60px;"">+</div>","null","html-keyboard-response","124","866953","0.0-8.0-0.6","fixation","","","","",""
"2786.8349999189377","Stimuli/Hangul_M45.bmp","190","image-keyboard-response","125","869740","0.0-8.0-1.6","test",",","",".","",""
"null","<div style=""color:white; font-size:60px;"">+</div>","null","html-keyboard-response","126","870742","0.0-8.0-0.7","fixation","","","","",""
"2293.1900001131","Stimuli/Hangul_M33.bmp","188","image-keyboard-response","127","873037","0.0-8.0-1.7","test",",","",",","",""
"null","<div style=""color:white; font-size:60px;"">+</div>","null","html-keyboard-response","128","874039","0.0-8.0-0.8","fixation","","","","",""
"3726.1199997738004","Stimuli/Hangul_F44.bmp","190","image-keyboard-response","129","877767","0.0-8.0-1.8","test",".","",".","",""
"null","<div style=""color:white; font-size:60px;"">+</div>","null","html-keyboard-response","130","878769","0.0-8.0-0.9","fixation","","","","",""
"2601.6750000417233","Stimuli/Hangul_F35.bmp","190","image-keyboard-response","131","881373","0.0-8.0-1.9","test",".","",".","",""
"null","<div style=""color:white; font-size:60px;"">+</div>","null","html-keyboard-response","132","882376","0.0-8.0-0.10","fixation","","","","",""
"2731.980000156909","Stimuli/Hangul_M31.bmp","188","image-keyboard-response","133","885109","0.0-8.0-1.10","test",",","",",","",""
"null","<div style=""color:white; font-size:60px;"">+</div>","null","html-keyboard-response","134","886112","0.0-8.0-0.11","fixation","","","","",""
"3500.004999805242","Stimuli/Hangul_M28.bmp","190","image-keyboard-response","135","889615","0.0-8.0-1.11","test",",","",".","",""
"null","<div style=""color:white; font-size:60px;"">+</div>","null","html-keyboard-response","136","890617","0.0-8.0-0.12","fixation","","","","",""
"3025.595000013709","Stimuli/Hangul_M35.bmp","188","image-keyboard-response","137","893645","0.0-8.0-1.12","test",",","",",","",""
"null","<div style=""color:white; font-size:60px;"">+</div>","null","html-keyboard-response","138","894649","0.0-8.0-0.13","fixation","","","","",""
"3498.0199998244643","Stimuli/Hangul_F40.bmp","188","image-keyboard-response","139","898149","0.0-8.0-1.13","test",".","",",","",""
"null","<div style=""color:white; font-size:60px;"">+</div>","null","html-keyboard-response","140","899151","0.0-8.0-0.14","fixation","","","","",""
"2299.2100003175437","Stimuli/Hangul_M40.bmp","188","image-keyboard-response","141","901453","0.0-8.0-1.14","test",",","",",","",""
"null","<div style=""color:white; font-size:60px;"">+</div>","null","html-keyboard-response","142","902455","0.0-8.0-0.15","fixation","","","","",""
"3236.4399996586144","Stimuli/Hangul_M36.bmp","188","image-keyboard-response","143","905693","0.0-8.0-1.15","test",",","",",","",""
"null","<div style=""color:white; font-size:60px;"">+</div>","null","html-keyboard-response","144","906696","0.0-8.0-0.16","fixation","","","","",""
"3594.9550000950694","Stimuli/Hangul_F47.bmp","188","image-keyboard-response","145","910293","0.0-8.0-1.16","test",".","",",","",""
"null","<div style=""color:white; font-size:60px;"">+</div>","null","html-keyboard-response","146","911296","0.0-8.0-0.17","fixation","","","","",""
"2443.3699999935925","Stimuli/Hangul_M34.bmp","188","image-keyboard-response","147","913743","0.0-8.0-1.17","test",",","",",","",""
"null","<div style=""color:white; font-size:60px;"">+</div>","null","html-keyboard-response","148","914745","0.0-8.0-0.18","fixation","","","","",""
"4602.979999966919","Stimuli/Hangul_F27.bmp","188","image-keyboard-response","149","919349","0.0-8.0-1.18","test",".","",",","",""
"null","<div style=""color:white; font-size:60px;"">+</div>","null","html-keyboard-response","150","920351","0.0-8.0-0.19","fixation","","","","",""
"2204.149999655783","Stimuli/Hangul_M26.bmp","188","image-keyboard-response","151","922557","0.0-8.0-1.19","test",",","",",","",""
"null","<div style=""color:white; font-size:60px;"">+</div>","null","html-keyboard-response","152","923559","0.0-8.0-0.20","fixation","","","","",""
"2461.8999999947846","Stimuli/Hangul_M42.bmp","188","image-keyboard-response","153","926022","0.0-8.0-1.20","test",",","",",","",""
"null","<div style=""color:white; font-size:60px;"">+</div>","null","html-keyboard-response","154","927024","0.0-8.0-0.21","fixation","","","","",""
"3810.2600001730025","Stimuli/Hangul_M47.bmp","188","image-keyboard-response","155","930837","0.0-8.0-1.21","test",",","",",","",""
"null","<div style=""color:white; font-size:60px;"">+</div>","null","html-keyboard-response","156","931840","0.0-8.0-0.22","fixation","","","","",""
"2202.6599999517202","Stimuli/Hangul_F26.bmp","188","image-keyboard-response","157","934045","0.0-8.0-1.22","test",".","",",","",""
"null","<div style=""color:white; font-size:60px;"">+</div>","null","html-keyboard-response","158","935049","0.0-8.0-0.23","fixation","","","","",""
"2330.2050000056624","Stimuli/Hangul_F25.bmp","188","image-keyboard-response","159","937381","0.0-8.0-1.23","test",".","",",","",""
"null","<div style=""color:white; font-size:60px;"">+</div>","null","html-keyboard-response","160","938384","0.0-8.0-0.24","fixation","","","","",""
"3347.550000064075","Stimuli/Hangul_M44.bmp","190","image-keyboard-response","161","941733","0.0-8.0-1.24","test",",","",".","",""
"null","<div style=""color:white; font-size:60px;"">+</div>","null","html-keyboard-response","162","942735","0.0-8.0-0.25","fixation","","","","",""
"2276.060000061989","Stimuli/Hangul_M32.bmp","188","image-keyboard-response","163","945013","0.0-8.0-1.25","test",",","",",","",""
"null","<div style=""color:white; font-size:60px;"">+</div>","null","html-keyboard-response","164","946015","0.0-8.0-0.26","fixation","","","","",""
"2014.0899997204542","Stimuli/Hangul_F31.bmp","190","image-keyboard-response","165","948030","0.0-8.0-1.26","test",".","",".","",""
"null","<div style=""color:white; font-size:60px;"">+</div>","null","html-keyboard-response","166","949033","0.0-8.0-0.27","fixation","","","","",""
"2321.7050000093877","Stimuli/Hangul_M43.bmp","190","image-keyboard-response","167","951357","0.0-8.0-1.27","test",",","",".","",""
"null","<div style=""color:white; font-size:60px;"">+</div>","null","html-keyboard-response","168","952359","0.0-8.0-0.28","fixation","","","","",""
"2876.9999998621643","Stimuli/Hangul_M30.bmp","190","image-keyboard-response","169","955237","0.0-8.0-1.28","test",",","",".","",""
"null","<div style=""color:white; font-size:60px;"">+</div>","null","html-keyboard-response","170","956240","0.0-8.0-0.29","fixation","","","","",""
"3204.874999821186","Stimuli/Hangul_M39.bmp","190","image-keyboard-response","171","959446","0.0-8.0-1.29","test",",","",".","",""
"null","<div style=""color:white; font-size:60px;"">+</div>","null","html-keyboard-response","172","960448","0.0-8.0-0.30","fixation","","","","",""
"4250.989999622107","Stimuli/Hangul_F41.bmp","188","image-keyboard-response","173","964701","0.0-8.0-1.30","test",".","",",","",""
"null","<div style=""color:white; font-size:60px;"">+</div>","null","html-keyboard-response","174","965704","0.0-8.0-0.31","fixation","","","","",""
"1969.5000001229346","Stimuli/Hangul_F34.bmp","190","image-keyboard-response","175","967676","0.0-8.0-1.31","test",".","",".","",""
"null","<div style=""color:white; font-size:60px;"">+</div>","null","html-keyboard-response","176","968679","0.0-8.0-0.32","fixation","","","","",""
"1925.1999999396503","Stimuli/Hangul_F39.bmp","190","image-keyboard-response","177","970606","0.0-8.0-1.32","test",".","",".","",""
"null","<div style=""color:white; font-size:60px;"">+</div>","null","html-keyboard-response","178","971609","0.0-8.0-0.33","fixation","","","","",""
"3585.74500028044","Stimuli/Hangul_F28.bmp","188","image-keyboard-response","179","975197","0.0-8.0-1.33","test",".","",",","",""
"null","<div style=""color:white; font-size:60px;"">+</div>","null","html-keyboard-response","180","976199","0.0-8.0-0.34","fixation","","","","",""
"2603.5750000737607","Stimuli/Hangul_M48.bmp","188","image-keyboard-response","181","978805","0.0-8.0-1.34","test",",","",",","",""
"null","<div style=""color:white; font-size:60px;"">+</div>","null","html-keyboard-response","182","979808","0.0-8.0-0.35","fixation","","","","",""
"2459.479999728501","Stimuli/Hangul_F45.bmp","188","image-keyboard-response","183","982270","0.0-8.0-1.35","test",".","",",","",""
"null","<div style=""color:white; font-size:60px;"">+</div>","null","html-keyboard-response","184","983273","0.0-8.0-0.36","fixation","","","","",""
"2057.0700000971556","Stimuli/Hangul_F42.bmp","190","image-keyboard-response","185","985333","0.0-8.0-1.36","test",".","",".","",""
"null","<div style=""color:white; font-size:60px;"">+</div>","null","html-keyboard-response","186","986337","0.0-8.0-0.37","fixation","","","","",""
"3314.1350001096725","Stimuli/Hangul_F48.bmp","188","image-keyboard-response","187","989653","0.0-8.0-1.37","test",".","",",","",""
"null","<div style=""color:white; font-size:60px;"">+</div>","null","html-keyboard-response","188","990655","0.0-8.0-0.38","fixation","","","","",""
"3644.5449995808303","Stimuli/Hangul_F43.bmp","190","image-keyboard-response","189","994302","0.0-8.0-1.38","test",".","",".","",""
"null","<div style=""color:white; font-size:60px;"">+</div>","null","html-keyboard-response","190","995308","0.0-8.0-0.39","fixation","","","","",""
"3214.6800002083182","Stimuli/Hangul_F49.bmp","190","image-keyboard-response","191","998525","0.0-8.0-1.39","test",".","",".","",""
"null","<div style=""color:white; font-size:60px;"">+</div>","null","html-keyboard-response","192","999528","0.0-8.0-0.40","fixation","","","","",""
"5907.970000058413","Stimuli/Hangul_M46.bmp","188","image-keyboard-response","193","1005438","0.0-8.0-1.40","test",",","",",","",""
"null","<div style=""color:white; font-size:60px;"">+</div>","null","html-keyboard-response","194","1006440","0.0-8.0-0.41","fixation","","","","",""
"2017.4149996601045","Stimuli/Hangul_F30.bmp","190","image-keyboard-response","195","1008461","0.0-8.0-1.41","test",".","",".","",""
"null","<div style=""color:white; font-size:60px;"">+</div>","null","html-keyboard-response","196","1009462","0.0-8.0-0.42","fixation","","","","",""
"2077.3050002753735","Stimuli/Hangul_M29.bmp","188","image-keyboard-response","197","1011541","0.0-8.0-1.42","test",",","",",","",""
"null","<div style=""color:white; font-size:60px;"">+</div>","null","html-keyboard-response","198","1012544","0.0-8.0-0.43","fixation","","","","",""
"2315.0049997493625","Stimuli/Hangul_M25.bmp","188","image-keyboard-response","199","1014861","0.0-8.0-1.43","test",",","",",","",""
"null","<div style=""color:white; font-size:60px;"">+</div>","null","html-keyboard-response","200","1015863","0.0-8.0-0.44","fixation","","","","",""
"3342.049999628216","Stimuli/Hangul_F46.bmp","188","image-keyboard-response","201","1019206","0.0-8.0-1.44","test",".","",",","",""
"null","<div style=""color:white; font-size:60px;"">+</div>","null","html-keyboard-response","202","1020208","0.0-8.0-0.45","fixation","","","","",""
"2058.344999793917","Stimuli/Hangul_F32.bmp","190","image-keyboard-response","203","1022269","0.0-8.0-1.45","test",".","",".","",""
"null","<div style=""color:white; font-size:60px;"">+</div>","null","html-keyboard-response","204","1023271","0.0-8.0-0.46","fixation","","","","",""
"3483.955000061542","Stimuli/Hangul_M49.bmp","188","image-keyboard-response","205","1026757","0.0-8.0-1.46","test",",","",",","",""
"null","<div style=""color:white; font-size:60px;"">+</div>","null","html-keyboard-response","206","1027760","0.0-8.0-0.47","fixation","","","","",""
"1914.004999678582","Stimuli/Hangul_F29.bmp","190","image-keyboard-response","207","1029676","0.0-8.0-1.47","test",".","",".","",""
"null","<div style=""color:white; font-size:60px;"">+</div>","null","html-keyboard-response","208","1030679","0.0-8.0-0.48","fixation","","","","",""
"1891.7849999852479","Stimuli/Hangul_F33.bmp","190","image-keyboard-response","209","1032573","0.0-8.0-1.48","test",".","",".","",""
"null","<div style=""color:white; font-size:60px;"">+</div>","null","html-keyboard-response","210","1033576","0.0-8.0-0.49","fixation","","","","",""
"2243.819999974221","Stimuli/Hangul_F36.bmp","188","image-keyboard-response","211","1035821","0.0-8.0-1.49","test",".","",",","",""
"3702.1099999547005","<p style=""color:white;"">Half way there! Please take a moment to rest.</p> <p style=""color:white;"">When you are ready to continue with block 3 of 4, press the space bar.</p> ","32","html-keyboard-response","212","1039525","0.0-9.0","","","","","",""
"null","<div style=""color:white; font-size:60px;"">+</div>","null","html-keyboard-response","213","1042529","0.0-10.0-0.0","fixation","","","","",""
"1858.9550000615418","Stimuli/Hangul_F51.bmp","190","image-keyboard-response","214","1044391","0.0-10.0-1.0","test",".","",".","",""
"null","<div style=""color:white; font-size:60px;"">+</div>","null","html-keyboard-response","215","1045393","0.0-10.0-0.1","fixation","","","","",""
"2354.049999732524","Stimuli/Hangul_F70.bmp","188","image-keyboard-response","216","1047748","0.0-10.0-1.1","test",".","",",","",""
"null","<div style=""color:white; font-size:60px;"">+</div>","null","html-keyboard-response","217","1048749","0.0-10.0-0.2","fixation","","","","",""
"5926.6900001093745","Stimuli/Hangul_M66.bmp","188","image-keyboard-response","218","1054677","0.0-10.0-1.2","test",",","",",","",""
"null","<div style=""color:white; font-size:60px;"">+</div>","null","html-keyboard-response","219","1055680","0.0-10.0-0.3","fixation","","","","",""
"2546.100000385195","Stimuli/Hangul_F53.bmp","190","image-keyboard-response","220","1058228","0.0-10.0-1.3","test",".","",".","",""
"null","<div style=""color:white; font-size:60px;"">+</div>","null","html-keyboard-response","221","1059230","0.0-10.0-0.4","fixation","","","","",""
"2612.729999702424","Stimuli/Hangul_M74.bmp","188","image-keyboard-response","222","1061844","0.0-10.0-1.4","test",",","",",","",""
"null","<div style=""color:white; font-size:60px;"">+</div>","null","html-keyboard-response","223","1062848","0.0-10.0-0.5","fixation","","","","",""
"2442.3200003802776","Stimuli/Hangul_F61.bmp","188","image-keyboard-response","224","1065293","0.0-10.0-1.5","test",".","",",","",""
"null","<div style=""color:white; font-size:60px;"">+</div>","null","html-keyboard-response","225","1066294","0.0-10.0-0.6","fixation","","","","",""
"4004.410000052303","Stimuli/Hangul_M61.bmp","190","image-keyboard-response","226","1070300","0.0-10.0-1.6","test",",","",".","",""
"null","<div style=""color:white; font-size:60px;"">+</div>","null","html-keyboard-response","227","1071302","0.0-10.0-0.7","fixation","","","","",""
"3204.874999821186","Stimuli/Hangul_F60.bmp","190","image-keyboard-response","228","1074509","0.0-10.0-1.7","test",".","",".","",""
"null","<div style=""color:white; font-size:60px;"">+</div>","null","html-keyboard-response","229","1075512","0.0-10.0-0.8","fixation","","","","",""
"5019.005000125617","Stimuli/Hangul_F52.bmp","188","image-keyboard-response","230","1080534","0.0-10.0-1.8","test",".","",",","",""
"null","<div style=""color:white; font-size:60px;"">+</div>","null","html-keyboard-response","231","1081537","0.0-10.0-0.9","fixation","","","","",""
"2409.1999996453524","Stimuli/Hangul_F72.bmp","188","image-keyboard-response","232","1083949","0.0-10.0-1.9","test",".","",",","",""
"null","<div style=""color:white; font-size:60px;"">+</div>","null","html-keyboard-response","233","1084950","0.0-10.0-0.10","fixation","","","","",""
"2172.65999969095","Stimuli/Hangul_F74.bmp","190","image-keyboard-response","234","1087124","0.0-10.0-1.10","test",".","",".","",""
"null","<div style=""color:white; font-size:60px;"">+</div>","null","html-keyboard-response","235","1088127","0.0-10.0-0.11","fixation","","","","",""
"2668.2949997484684","Stimuli/Hangul_M58.bmp","188","image-keyboard-response","236","1090798","0.0-10.0-1.11","test",",","",",","",""
"null","<div style=""color:white; font-size:60px;"">+</div>","null","html-keyboard-response","237","1091800","0.0-10.0-0.12","fixation","","","","",""
"1905.4649998433888","Stimuli/Hangul_F73.bmp","190","image-keyboard-response","238","1093708","0.0-10.0-1.12","test",".","",".","",""
"null","<div style=""color:white; font-size:60px;"">+</div>","null","html-keyboard-response","239","1094710","0.0-10.0-0.13","fixation","","","","",""
"5589.0450002625585","Stimuli/Hangul_M56.bmp","188","image-keyboard-response","240","1100301","0.0-10.0-1.13","test",",","",",","",""
"null","<div style=""color:white; font-size:60px;"">+</div>","null","html-keyboard-response","241","1101304","0.0-10.0-0.14","fixation","","","","",""
"3049.684999976307","Stimuli/Hangul_M53.bmp","188","image-keyboard-response","242","1104357","0.0-10.0-1.14","test",",","",",","",""
"null","<div style=""color:white; font-size:60px;"">+</div>","null","html-keyboard-response","243","1105358","0.0-10.0-0.15","fixation","","","","",""
"2060.089999809861","Stimuli/Hangul_F63.bmp","188","image-keyboard-response","244","1107421","0.0-10.0-1.15","test",".","",",","",""
"null","<div style=""color:white; font-size:60px;"">+</div>","null","html-keyboard-response","245","1108424","0.0-10.0-0.16","fixation","","","","",""
"2100.109999999404","Stimuli/Hangul_M67.bmp","190","image-keyboard-response","246","1110525","0.0-10.0-1.16","test",",","",".","",""
"null","<div style=""color:white; font-size:60px;"">+</div>","null","html-keyboard-response","247","1111527","0.0-10.0-0.17","fixation","","","","",""
"2578.935000114143","Stimuli/Hangul_M54.bmp","190","image-keyboard-response","248","1114109","0.0-10.0-1.17","test",",","",".","",""
"null","<div style=""color:white; font-size:60px;"">+</div>","null","html-keyboard-response","249","1115111","0.0-10.0-0.18","fixation","","","","",""
"3773.6200001090765","Stimuli/Hangul_M63.bmp","188","image-keyboard-response","250","1118887","0.0-10.0-1.18","test",",","",",","",""
"null","<div style=""color:white; font-size:60px;"">+</div>","null","html-keyboard-response","251","1119888","0.0-10.0-0.19","fixation","","","","",""
"2976.6400000080466","Stimuli/Hangul_M72.bmp","188","image-keyboard-response","252","1122869","0.0-10.0-1.19","test",",","",",","",""
"null","<div style=""color:white; font-size:60px;"">+</div>","null","html-keyboard-response","253","1123871","0.0-10.0-0.20","fixation","","","","",""
"3732.360000256449","Stimuli/Hangul_M51.bmp","188","image-keyboard-response","254","1127605","0.0-10.0-1.20","test",",","",",","",""
"null","<div style=""color:white; font-size:60px;"">+</div>","null","html-keyboard-response","255","1128608","0.0-10.0-0.21","fixation","","","","",""
"2954.5100000686944","Stimuli/Hangul_M62.bmp","188","image-keyboard-response","256","1131565","0.0-10.0-1.21","test",",","",",","",""
"null","<div style=""color:white; font-size:60px;"">+</div>","null","html-keyboard-response","257","1132568","0.0-10.0-0.22","fixation","","","","",""
"2275.2200001850724","Stimuli/Hangul_M64.bmp","190","image-keyboard-response","258","1134844","0.0-10.0-1.22","test",",","",".","",""
"null","<div style=""color:white; font-size:60px;"">+</div>","null","html-keyboard-response","259","1135846","0.0-10.0-0.23","fixation","","","","",""
"2860.190000385046","Stimuli/Hangul_F50.bmp","190","image-keyboard-response","260","1138709","0.0-10.0-1.23","test",".","",".","",""
"null","<div style=""color:white; font-size:60px;"">+</div>","null","html-keyboard-response","261","1139711","0.0-10.0-0.24","fixation","","","","",""
"2636.089999694377","Stimuli/Hangul_M68.bmp","188","image-keyboard-response","262","1142350","0.0-10.0-1.24","test",",","",",","",""
"null","<div style=""color:white; font-size:60px;"">+</div>","null","html-keyboard-response","263","1143352","0.0-10.0-0.25","fixation","","","","",""
"3069.9649997986853","Stimuli/Hangul_F56.bmp","190","image-keyboard-response","264","1146429","0.0-10.0-1.25","test",".","",".","",""
"null","<div style=""color:white; font-size:60px;"">+</div>","null","html-keyboard-response","265","1147431","0.0-10.0-0.26","fixation","","","","",""
"4883.169999811798","Stimuli/Hangul_F67.bmp","188","image-keyboard-response","266","1152317","0.0-10.0-1.26","test",".","",",","",""
"null","<div style=""color:white; font-size:60px;"">+</div>","null","html-keyboard-response","267","1153319","0.0-10.0-0.27","fixation","","","","",""
"1940.4450003057718","Stimuli/Hangul_F59.bmp","190","image-keyboard-response","268","1155262","0.0-10.0-1.27","test",".","",".","",""
"null","<div style=""color:white; font-size:60px;"">+</div>","null","html-keyboard-response","269","1156265","0.0-10.0-0.28","fixation","","","","",""
"4090.855000074953","Stimuli/Hangul_M50.bmp","190","image-keyboard-response","270","1160357","0.0-10.0-1.28","test",",","",".","",""
"null","<div style=""color:white; font-size:60px;"">+</div>","null","html-keyboard-response","271","1161361","0.0-10.0-0.29","fixation","","","","",""
"2441.41500024125","Stimuli/Hangul_M65.bmp","190","image-keyboard-response","272","1163804","0.0-10.0-1.29","test",",","",".","",""
"null","<div style=""color:white; font-size:60px;"">+</div>","null","html-keyboard-response","273","1164806","0.0-10.0-0.30","fixation","","","","",""
"2366.3350003771484","Stimuli/Hangul_F54.bmp","190","image-keyboard-response","274","1167174","0.0-10.0-1.30","test",".","",".","",""
"null","<div style=""color:white; font-size:60px;"">+</div>","null","html-keyboard-response","275","1168176","0.0-10.0-0.31","fixation","","","","",""
"3009.7850002348423","Stimuli/Hangul_M52.bmp","188","image-keyboard-response","276","1171188","0.0-10.0-1.31","test",",","",",","",""
"null","<div style=""color:white; font-size:60px;"">+</div>","null","html-keyboard-response","277","1172190","0.0-10.0-0.32","fixation","","","","",""
"3243.9900003373623","Stimuli/Hangul_M71.bmp","188","image-keyboard-response","278","1175436","0.0-10.0-1.32","test",",","",",","",""
"null","<div style=""color:white; font-size:60px;"">+</div>","null","html-keyboard-response","279","1176438","0.0-10.0-0.33","fixation","","","","",""
"2380.1599997095764","Stimuli/Hangul_M57.bmp","188","image-keyboard-response","280","1178820","0.0-10.0-1.33","test",",","",",","",""
"null","<div style=""color:white; font-size:60px;"">+</div>","null","html-keyboard-response","281","1179821","0.0-10.0-0.34","fixation","","","","",""
"3084.640000015497","Stimuli/Hangul_F68.bmp","190","image-keyboard-response","282","1182908","0.0-10.0-1.34","test",".","",".","",""
"null","<div style=""color:white; font-size:60px;"">+</div>","null","html-keyboard-response","283","1183910","0.0-10.0-0.35","fixation","","","","",""
"2459.4250000081956","Stimuli/Hangul_F65.bmp","190","image-keyboard-response","284","1186372","0.0-10.0-1.35","test",".","",".","",""
"null","<div style=""color:white; font-size:60px;"">+</div>","null","html-keyboard-response","285","1187375","0.0-10.0-0.36","fixation","","","","",""
"2763.224999886006","Stimuli/Hangul_M55.bmp","190","image-keyboard-response","286","1190141","0.0-10.0-1.36","test",",","",".","",""
"null","<div style=""color:white; font-size:60px;"">+</div>","null","html-keyboard-response","287","1191144","0.0-10.0-0.37","fixation","","","","",""
"2234.5900000073016","Stimuli/Hangul_F55.bmp","188","image-keyboard-response","288","1193380","0.0-10.0-1.37","test",".","",",","",""
"null","<div style=""color:white; font-size:60px;"">+</div>","null","html-keyboard-response","289","1194383","0.0-10.0-0.38","fixation","","","","",""
"2387.1600003913045","Stimuli/Hangul_M70.bmp","188","image-keyboard-response","290","1196773","0.0-10.0-1.38","test",",","",",","",""
"null","<div style=""color:white; font-size:60px;"">+</div>","null","html-keyboard-response","291","1197774","0.0-10.0-0.39","fixation","","","","",""
"2789.1400000080466","Stimuli/Hangul_M73.bmp","188","image-keyboard-response","292","1200566","0.0-10.0-1.39","test",",","",",","",""
"null","<div style=""color:white; font-size:60px;"">+</div>","null","html-keyboard-response","293","1201569","0.0-10.0-0.40","fixation","","","","",""
"2256.634999997914","Stimuli/Hangul_M59.bmp","188","image-keyboard-response","294","1203828","0.0-10.0-1.40","test",",","",",","",""
"null","<div style=""color:white; font-size:60px;"">+</div>","null","html-keyboard-response","295","1204830","0.0-10.0-0.41","fixation","","","","",""
"1780.1750004291534","Stimuli/Hangul_F64.bmp","190","image-keyboard-response","296","1206612","0.0-10.0-1.41","test",".","",".","",""
"null","<div style=""color:white; font-size:60px;"">+</div>","null","html-keyboard-response","297","1207613","0.0-10.0-0.42","fixation","","","","",""
"3054.9399997107685","Stimuli/Hangul_F57.bmp","190","image-keyboard-response","298","1210669","0.0-10.0-1.42","test",".","",".","",""
"null","<div style=""color:white; font-size:60px;"">+</div>","null","html-keyboard-response","299","1211672","0.0-10.0-0.43","fixation","","","","",""
"2170.189999975264","Stimuli/Hangul_F71.bmp","190","image-keyboard-response","300","1213844","0.0-10.0-1.43","test",".","",".","",""
"null","<div style=""color:white; font-size:60px;"">+</div>","null","html-keyboard-response","301","1214847","0.0-10.0-0.44","fixation","","","","",""
"1867.3700001090765","Stimuli/Hangul_F66.bmp","190","image-keyboard-response","302","1216716","0.0-10.0-1.44","test",".","",".","",""
"null","<div style=""color:white; font-size:60px;"">+</div>","null","html-keyboard-response","303","1217719","0.0-10.0-0.45","fixation","","","","",""
"4380.31499972567","Stimuli/Hangul_F62.bmp","190","image-keyboard-response","304","1222102","0.0-10.0-1.45","test",".","",".","",""
"null","<div style=""color:white; font-size:60px;"">+</div>","null","html-keyboard-response","305","1223105","0.0-10.0-0.46","fixation","","","","",""
"2120.1050002127886","Stimuli/Hangul_M69.bmp","188","image-keyboard-response","306","1225228","0.0-10.0-1.46","test",",","",",","",""
"null","<div style=""color:white; font-size:60px;"">+</div>","null","html-keyboard-response","307","1226230","0.0-10.0-0.47","fixation","","","","",""
"2780.079999938607","Stimuli/Hangul_F58.bmp","188","image-keyboard-response","308","1229012","0.0-10.0-1.47","test",".","",",","",""
"null","<div style=""color:white; font-size:60px;"">+</div>","null","html-keyboard-response","309","1230015","0.0-10.0-0.48","fixation","","","","",""
"2516.410000156611","Stimuli/Hangul_F69.bmp","190","image-keyboard-response","310","1232534","0.0-10.0-1.48","test",".","",".","",""
"null","<div style=""color:white; font-size:60px;"">+</div>","null","html-keyboard-response","311","1233537","0.0-10.0-0.49","fixation","","","","",""
"2073.8650001585484","Stimuli/Hangul_M60.bmp","188","image-keyboard-response","312","1235613","0.0-10.0-1.49","test",",","",",","",""
"34350.325000006706","<p style=""color:white;"">One more block to go! Please take a moment to rest.</p> <p style=""color:white;"">When you are ready to continue with block 4 of 4, press the space bar.</p> ","32","html-keyboard-response","313","1269965","0.0-11.0","","","","","",""
"null","<div style=""color:white; font-size:60px;"">+</div>","null","html-keyboard-response","314","1272968","0.0-12.0-0.0","fixation","","","","",""
"3321.864999830723","Stimuli/Hangul_M79.bmp","188","image-keyboard-response","315","1276293","0.0-12.0-1.0","test",",","",",","",""
"null","<div style=""color:white; font-size:60px;"">+</div>","null","html-keyboard-response","316","1277295","0.0-12.0-0.1","fixation","","","","",""
"2067.1149999834597","Stimuli/Hangul_M83.bmp","188","image-keyboard-response","317","1279365","0.0-12.0-1.1","test",",","",",","",""
"null","<div style=""color:white; font-size:60px;"">+</div>","null","html-keyboard-response","318","1280368","0.0-12.0-0.2","fixation","","","","",""
"2036.3949998281896","Stimuli/Hangul_M95.bmp","188","image-keyboard-response","319","1282406","0.0-12.0-1.2","test",",","",",","",""
"null","<div style=""color:white; font-size:60px;"">+</div>","null","html-keyboard-response","320","1283408","0.0-12.0-0.3","fixation","","","","",""
"1770.2700002118945","Stimuli/Hangul_F80.bmp","190","image-keyboard-response","321","1285181","0.0-12.0-1.3","test",".","",".","",""
"null","<div style=""color:white; font-size:60px;"">+</div>","null","html-keyboard-response","322","1286184","0.0-12.0-0.4","fixation","","","","",""
"1634.794999845326","Stimuli/Hangul_F75.bmp","190","image-keyboard-response","323","1287820","0.0-12.0-1.4","test",".","",".","",""
"null","<div style=""color:white; font-size:60px;"">+</div>","null","html-keyboard-response","324","1288822","0.0-12.0-0.5","fixation","","","","",""
"1917.3949998803437","Stimuli/Hangul_F97.bmp","190","image-keyboard-response","325","1290741","0.0-12.0-1.5","test",".","",".","",""
"null","<div style=""color:white; font-size:60px;"">+</div>","null","html-keyboard-response","326","1291744","0.0-12.0-0.6","fixation","","","","",""
"3555.6749999523163","Stimuli/Hangul_F99.bmp","188","image-keyboard-response","327","1295302","0.0-12.0-1.6","test",".","",",","",""
"null","<div style=""color:white; font-size:60px;"">+</div>","null","html-keyboard-response","328","1296305","0.0-12.0-0.7","fixation","","","","",""
"1833.0099997110665","Stimuli/Hangul_F93.bmp","190","image-keyboard-response","329","1298141","0.0-12.0-1.7","test",".","",".","",""
"null","<div style=""color:white; font-size:60px;"">+</div>","null","html-keyboard-response","330","1299144","0.0-12.0-0.8","fixation","","","","",""
"2609.5949998125434","Stimuli/Hangul_F84.bmp","190","image-keyboard-response","331","1301757","0.0-12.0-1.8","test",".","",".","",""
"null","<div style=""color:white; font-size:60px;"">+</div>","null","html-keyboard-response","332","1302760","0.0-12.0-0.9","fixation","","","","",""
"2168.810000177473","Stimuli/Hangul_M94.bmp","188","image-keyboard-response","333","1304933","0.0-12.0-1.9","test",",","",",","",""
"null","<div style=""color:white; font-size:60px;"">+</div>","null","html-keyboard-response","334","1305936","0.0-12.0-0.10","fixation","","","","",""
"3250.3150003030896","Stimuli/Hangul_F90.bmp","188","image-keyboard-response","335","1309189","0.0-12.0-1.10","test",".","",",","",""
"null","<div style=""color:white; font-size:60px;"">+</div>","null","html-keyboard-response","336","1310190","0.0-12.0-0.11","fixation","","","","",""
"3090.9899999387562","Stimuli/Hangul_F88.bmp","190","image-keyboard-response","337","1313285","0.0-12.0-1.11","test",".","",".","",""
"null","<div style=""color:white; font-size:60px;"">+</div>","null","html-keyboard-response","338","1314290","0.0-12.0-0.12","fixation","","","","",""
"1727.4149996228516","Stimuli/Hangul_F81.bmp","190","image-keyboard-response","339","1316020","0.0-12.0-1.12","test",".","",".","",""
"null","<div style=""color:white; font-size:60px;"">+</div>","null","html-keyboard-response","340","1317023","0.0-12.0-0.13","fixation","","","","",""
"1931.4649999141693","Stimuli/Hangul_M81.bmp","188","image-keyboard-response","341","1318957","0.0-12.0-1.13","test",",","",",","",""
"null","<div style=""color:white; font-size:60px;"">+</div>","null","html-keyboard-response","342","1319959","0.0-12.0-0.14","fixation","","","","",""
"1972.8449997492135","Stimuli/Hangul_M76.bmp","188","image-keyboard-response","343","1321934","0.0-12.0-1.14","test",",","",",","",""
"null","<div style=""color:white; font-size:60px;"">+</div>","null","html-keyboard-response","344","1322937","0.0-12.0-0.15","fixation","","","","",""
"1754.054999910295","Stimuli/Hangul_F96.bmp","190","image-keyboard-response","345","1324693","0.0-12.0-1.15","test",".","",".","",""
"null","<div style=""color:white; font-size:60px;"">+</div>","null","html-keyboard-response","346","1325695","0.0-12.0-0.16","fixation","","","","",""
"1699.1200000047684","Stimuli/Hangul_F87.bmp","190","image-keyboard-response","347","1327397","0.0-12.0-1.16","test",".","",".","",""
"null","<div style=""color:white; font-size:60px;"">+</div>","null","html-keyboard-response","348","1328399","0.0-12.0-0.17","fixation","","","","",""
"2211.795000359416","Stimuli/Hangul_M78.bmp","188","image-keyboard-response","349","1330612","0.0-12.0-1.17","test",",","",",","",""
"null","<div style=""color:white; font-size:60px;"">+</div>","null","html-keyboard-response","350","1331614","0.0-12.0-0.18","fixation","","","","",""
"1733.405000064522","Stimuli/Hangul_F86.bmp","190","image-keyboard-response","351","1333350","0.0-12.0-1.18","test",".","",".","",""
"null","<div style=""color:white; font-size:60px;"">+</div>","null","html-keyboard-response","352","1334352","0.0-12.0-0.19","fixation","","","","",""
"3306.760000064969","Stimuli/Hangul_M97.bmp","190","image-keyboard-response","353","1337661","0.0-12.0-1.19","test",",","",".","",""
"null","<div style=""color:white; font-size:60px;"">+</div>","null","html-keyboard-response","354","1338663","0.0-12.0-0.20","fixation","","","","",""
"3642.050000373274","Stimuli/Hangul_M82.bmp","190","image-keyboard-response","355","1342308","0.0-12.0-1.20","test",",","",".","",""
"null","<div style=""color:white; font-size:60px;"">+</div>","null","html-keyboard-response","356","1343311","0.0-12.0-0.21","fixation","","","","",""
"4420.779999811202","Stimuli/Hangul_M85.bmp","188","image-keyboard-response","357","1347734","0.0-12.0-1.21","test",",","",",","",""
"null","<div style=""color:white; font-size:60px;"">+</div>","null","html-keyboard-response","358","1348736","0.0-12.0-0.22","fixation","","","","",""
"1754.5350003056228","Stimuli/Hangul_F79.bmp","190","image-keyboard-response","359","1350493","0.0-12.0-1.22","test",".","",".","",""
"null","<div style=""color:white; font-size:60px;"">+</div>","null","html-keyboard-response","360","1351495","0.0-12.0-0.23","fixation","","","","",""
"2826.6050000675023","Stimuli/Hangul_M77.bmp","188","image-keyboard-response","361","1354324","0.0-12.0-1.23","test",",","",",","",""
"null","<div style=""color:white; font-size:60px;"">+</div>","null","html-keyboard-response","362","1355326","0.0-12.0-0.24","fixation","","","","",""
"2165.175000205636","Stimuli/Hangul_M93.bmp","188","image-keyboard-response","363","1357492","0.0-12.0-1.24","test",",","",",","",""
"null","<div style=""color:white; font-size:60px;"">+</div>","null","html-keyboard-response","364","1358495","0.0-12.0-0.25","fixation","","","","",""
"1669.505000114441","Stimuli/Hangul_F82.bmp","190","image-keyboard-response","365","1360166","0.0-12.0-1.25","test",".","",".","",""
"null","<div style=""color:white; font-size:60px;"">+</div>","null","html-keyboard-response","366","1361168","0.0-12.0-0.26","fixation","","","","",""
"1634.444999974221","Stimuli/Hangul_F95.bmp","190","image-keyboard-response","367","1362804","0.0-12.0-1.26","test",".","",".","",""
"null","<div style=""color:white; font-size:60px;"">+</div>","null","html-keyboard-response","368","1363807","0.0-12.0-0.27","fixation","","","","",""
"3049.98500039801","Stimuli/Hangul_M91.bmp","188","image-keyboard-response","369","1366860","0.0-12.0-1.27","test",",","",",","",""
"null","<div style=""color:white; font-size:60px;"">+</div>","null","html-keyboard-response","370","1367862","0.0-12.0-0.28","fixation","","","","",""
"2013.234999962151","Stimuli/Hangul_F92.bmp","190","image-keyboard-response","371","1369877","0.0-12.0-1.28","test",".","",".","",""
"null","<div style=""color:white; font-size:60px;"">+</div>","null","html-keyboard-response","372","1370880","0.0-12.0-0.29","fixation","","","","",""
"1764.1600002534688","Stimuli/Hangul_M87.bmp","190","image-keyboard-response","373","1372645","0.0-12.0-1.29","test",",","",".","",""
"null","<div style=""color:white; font-size:60px;"">+</div>","null","html-keyboard-response","374","1373648","0.0-12.0-0.30","fixation","","","","",""
"2537.595000118017","Stimuli/Hangul_M86.bmp","188","image-keyboard-response","375","1376188","0.0-12.0-1.30","test",",","",",","",""
"null","<div style=""color:white; font-size:60px;"">+</div>","null","html-keyboard-response","376","1377190","0.0-12.0-0.31","fixation","","","","",""
"1596.6799999587238","Stimuli/Hangul_F78.bmp","190","image-keyboard-response","377","1378789","0.0-12.0-1.31","test",".","",".","",""
"null","<div style=""color:white; font-size:60px;"">+</div>","null","html-keyboard-response","378","1379791","0.0-12.0-0.32","fixation","","","","",""
"2322.2650000825524","Stimuli/Hangul_F91.bmp","190","image-keyboard-response","379","1382116","0.0-12.0-1.32","test",".","",".","",""
"null","<div style=""color:white; font-size:60px;"">+</div>","null","html-keyboard-response","380","1383119","0.0-12.0-0.33","fixation","","","","",""
"1637.1599999256432","Stimuli/Hangul_M84.bmp","190","image-keyboard-response","381","1384758","0.0-12.0-1.33","test",",","",".","",""
"null","<div style=""color:white; font-size:60px;"">+</div>","null","html-keyboard-response","382","1385760","0.0-12.0-0.34","fixation","","","","",""
"1618.0600002408028","Stimuli/Hangul_F85.bmp","190","image-keyboard-response","383","1387381","0.0-12.0-1.34","test",".","",".","",""
"null","<div style=""color:white; font-size:60px;"">+</div>","null","html-keyboard-response","384","1388384","0.0-12.0-0.35","fixation","","","","",""
"3499.119999818504","Stimuli/Hangul_M80.bmp","188","image-keyboard-response","385","1391884","0.0-12.0-1.35","test",",","",",","",""
"null","<div style=""color:white; font-size:60px;"">+</div>","null","html-keyboard-response","386","1392885","0.0-12.0-0.36","fixation","","","","",""
"4270.045000128448","Stimuli/Hangul_M96.bmp","190","image-keyboard-response","387","1397158","0.0-12.0-1.36","test",",","",".","",""
"null","<div style=""color:white; font-size:60px;"">+</div>","null","html-keyboard-response","388","1398161","0.0-12.0-0.37","fixation","","","","",""
"2488.424999639392","Stimuli/Hangul_M75.bmp","188","image-keyboard-response","389","1400653","0.0-12.0-1.37","test",",","",",","",""
"null","<div style=""color:white; font-size:60px;"">+</div>","null","html-keyboard-response","390","1401656","0.0-12.0-0.38","fixation","","","","",""
"1714.9849999696016","Stimuli/Hangul_F98.bmp","190","image-keyboard-response","391","1403372","0.0-12.0-1.38","test",".","",".","",""
"null","<div style=""color:white; font-size:60px;"">+</div>","null","html-keyboard-response","392","1404374","0.0-12.0-0.39","fixation","","","","",""
"3053.855000063777","Stimuli/Hangul_M89.bmp","188","image-keyboard-response","393","1407430","0.0-12.0-1.39","test",",","",",","",""
"null","<div style=""color:white; font-size:60px;"">+</div>","null","html-keyboard-response","394","1408432","0.0-12.0-0.40","fixation","","","","",""
"1785.919999703765","Stimuli/Hangul_F76.bmp","190","image-keyboard-response","395","1410221","0.0-12.0-1.40","test",".","",".","",""
"null","<div style=""color:white; font-size:60px;"">+</div>","null","html-keyboard-response","396","1411223","0.0-12.0-0.41","fixation","","","","",""
"1780.5300001055002","Stimuli/Hangul_F77.bmp","190","image-keyboard-response","397","1413005","0.0-12.0-1.41","test",".","",".","",""
"null","<div style=""color:white; font-size:60px;"">+</div>","null","html-keyboard-response","398","1414008","0.0-12.0-0.42","fixation","","","","",""
"1883.02499987185","Stimuli/Hangul_M90.bmp","188","image-keyboard-response","399","1415893","0.0-12.0-1.42","test",",","",",","",""
"null","<div style=""color:white; font-size:60px;"">+</div>","null","html-keyboard-response","400","1416895","0.0-12.0-0.43","fixation","","","","",""
"1699.9900001101196","Stimuli/Hangul_F89.bmp","190","image-keyboard-response","401","1418598","0.0-12.0-1.43","test",".","",".","",""
"null","<div style=""color:white; font-size:60px;"">+</div>","null","html-keyboard-response","402","1419600","0.0-12.0-0.44","fixation","","","","",""
"1626.854999922216","Stimuli/Hangul_F94.bmp","190","image-keyboard-response","403","1421229","0.0-12.0-1.44","test",".","",".","",""
"null","<div style=""color:white; font-size:60px;"">+</div>","null","html-keyboard-response","404","1422231","0.0-12.0-0.45","fixation","","","","",""
"1625.7449998520315","Stimuli/Hangul_F83.bmp","190","image-keyboard-response","405","1423860","0.0-12.0-1.45","test",".","",".","",""
"null","<div style=""color:white; font-size:60px;"">+</div>","null","html-keyboard-response","406","1424862","0.0-12.0-0.46","fixation","","","","",""
"3076.7800002358854","Stimuli/Hangul_M88.bmp","188","image-keyboard-response","407","1427941","0.0-12.0-1.46","test",",","",",","",""
"null","<div style=""color:white; font-size:60px;"">+</div>","null","html-keyboard-response","408","1428944","0.0-12.0-0.47","fixation","","","","",""
"3643.4200000949204","Stimuli/Hangul_M98.bmp","188","image-keyboard-response","409","1432590","0.0-12.0-1.47","test",",","",",","",""
"null","<div style=""color:white; font-size:60px;"">+</div>","null","html-keyboard-response","410","1433593","0.0-12.0-0.48","fixation","","","","",""
"3431.8699999712408","Stimuli/Hangul_M99.bmp","188","image-keyboard-response","411","1437028","0.0-12.0-1.48","test",",","",",","",""
"null","<div style=""color:white; font-size:60px;"">+</div>","null","html-keyboard-response","412","1438031","0.0-12.0-0.49","fixation","","","","",""
"2041.0150000825524","Stimuli/Hangul_M92.bmp","188","image-keyboard-response","413","1440076","0.0-12.0-1.49","test",",","",",","",""
"2642.590000294149","<p style=""color:white;"">Phase I of the experiment is complete.</p> <p style=""color:white;"">Press the space bar to proceed to Phase II of the experiment.</p> ","32","html-keyboard-response","414","1442721","0.0-13.0","","","","","",""
"18586.74499997869","<p style=""color:white;"">Now we are interested in how well you can predict patterns in the series of figures. You will be asked to predict whether the next figure in the series is more male-like or female-like. When you see the <q>Next Figure</q> prompt, press the corresponding response keys to indicate your prediction: </p><p style=""color:white;""> Male &#8594 <q>,</q> (comma)</p><p style=""color:white;""> Female &#8594 <q>.</q> (period)</p><p style=""color:white;"">The actual figure will then appear on the screen. After you see the figure, please guess the assigned gender with response keys. </p><p style=""color:white;"">As before, you will receive 2 cents for correctly classifying each figure.</p><p style=""color:white;"">Press either response keys to continue.</p>","190","html-keyboard-response","415","1463311","0.0-14.0","","","","","",""
"15941.085000056773","<p style=""color:white;"">PREDICTION BONUS</p> <p style=""color:white;"">Your prediction accuracy is the total number of correct predictions you make over the 200 trials.</p> <p style=""color:white;"">In addition to the 2 cents per correct figure classification, you have the chance to receive a bonus of 40 dollars IF your accuracy is above average relative to previous participants.</p><p style=""color:white;"">If your accuracy is below average relative to previous participants, then you will not receive the 40 dollar bonus.</p><p style=""color:white;"">Press the space bar to continue.</p>","32","html-keyboard-response","416","1479253","0.0-15.0","","","","","",""
"20887.190000154078","<p style=""color:white;"">Here are some examples.</p> <p style=""color:white;"">For each, predict whether the next figure looks more male-like or female-like. Then, when the figure appears, guess whether it looks more male-like or female-like and indicate your choice.</p> <p style=""color:white;"">Press the space bar to continue.</p>","32","html-keyboard-response","417","1500142","0.0-16.0","","","","","",""
"4700.104999821633","<p style=""color:white;""> Next Figure: Male or Female? </p>","190","html-keyboard-response","418","1506844","0.0-17.0-0.0","prediction_train","","","",".",""
"null","<div style=""color:white; font-size:60px;"">+</div>","null","html-keyboard-response","419","1507847","0.0-17.0-1.0","fixation","","","","",""
"3939.7299997508526","Stimuli/Hangul_E1.bmp","188","image-keyboard-response","420","1511790","0.0-17.0-2.0","c2_train",",","","","",","
"1420.6150001846254","<p style=""color:white;""> Next Figure: Male or Female? </p>","188","html-keyboard-response","421","1513212","0.0-17.0-0.1","prediction_train","","","",",",""
"null","<div style=""color:white; font-size:60px;"">+</div>","null","html-keyboard-response","422","1514216","0.0-17.0-1.1","fixation","","","","",""
"2369.959999807179","Stimuli/Hangul_E2.bmp","190","image-keyboard-response","423","1516588","0.0-17.0-2.1","c2_train",".","","","","."
"1358.7199999019504","<p style=""color:white;""> Next Figure: Male or Female? </p>","190","html-keyboard-response","424","1517948","0.0-17.0-0.2","prediction_train","","","",".",""
"null","<div style=""color:white; font-size:60px;"">+</div>","null","html-keyboard-response","425","1518952","0.0-17.0-1.2","fixation","","","","",""
"3539.474999997765","Stimuli/Hangul_E0.bmp","188","image-keyboard-response","426","1522493","0.0-17.0-2.2","c2_train",",","","","",","
"5940.57000009343","<p style=""color:white;"">Let us begin! Press the space bar when you are ready to start block 1 of 4.</p> ","32","html-keyboard-response","427","1528436","0.0-18.0","","","","","",""
"798.0700000189245","<p style=""color:white;""> Next Figure: Male or Female? </p>","190","html-keyboard-response","428","1531236","0.0-19.0-0.0","prediction","","","",".",""
"null","<div style=""color:white; font-size:60px;"">+</div>","null","html-keyboard-response","429","1532240","0.0-19.0-1.0","fixation","","","","",""
"1963.5749999433756","Stimuli/Hangul_M17.bmp","188","image-keyboard-response","430","1534206","0.0-19.0-2.0","c2_test",",","","","",","
"1348.509999923408","<p style=""color:white;""> Next Figure: Male or Female? </p>","188","html-keyboard-response","431","1535556","0.0-19.0-0.1","prediction","","","",",",""
"null","<div style=""color:white; font-size:60px;"">+</div>","null","html-keyboard-response","432","1536558","0.0-19.0-1.1","fixation","","","","",""
"2730.3700000047684","Stimuli/Hangul_M12.bmp","188","image-keyboard-response","433","1539292","0.0-19.0-2.1","c2_test",",","","","",","
"1408.2399997860193","<p style=""color:white;""> Next Figure: Male or Female? </p>","188","html-keyboard-response","434","1540701","0.0-19.0-0.2","prediction","","","",",",""
"null","<div style=""color:white; font-size:60px;"">+</div>","null","html-keyboard-response","435","1541703","0.0-19.0-1.2","fixation","","","","",""
"2252.820000052452","Stimuli/Hangul_M10.bmp","188","image-keyboard-response","436","1543957","0.0-19.0-2.2","c2_test",",","","","",","
"1152.2650001570582","<p style=""color:white;""> Next Figure: Male or Female? </p>","188","html-keyboard-response","437","1545110","0.0-19.0-0.3","prediction","","","",",",""
"null","<div style=""color:white; font-size:60px;"">+</div>","null","html-keyboard-response","438","1546113","0.0-19.0-1.3","fixation","","","","",""
"2744.4649999961257","Stimuli/Hangul_M4.bmp","188","image-keyboard-response","439","1548860","0.0-19.0-2.3","c2_test",",","","","",","
"863.8550001196563","<p style=""color:white;""> Next Figure: Male or Female? </p>","188","html-keyboard-response","440","1549725","0.0-19.0-0.4","prediction","","","",",",""
"null","<div style=""color:white; font-size:60px;"">+</div>","null","html-keyboard-response","441","1550728","0.0-19.0-1.4","fixation","","","","",""
"1050.0750001519918","Stimuli/Hangul_F11.bmp","188","image-keyboard-response","442","1551781","0.0-19.0-2.4","c2_test",".","","","",","
"854.4649998657405","<p style=""color:white;""> Next Figure: Male or Female? </p>","188","html-keyboard-response","443","1552637","0.0-19.0-0.5","prediction","","","",",",""
"null","<div style=""color:white; font-size:60px;"">+</div>","null","html-keyboard-response","444","1553639","0.0-19.0-1.5","fixation","","","","",""
"1196.2899998761714","Stimuli/Hangul_M23.bmp","188","image-keyboard-response","445","1554837","0.0-19.0-2.5","c2_test",",","","","",","
"1063.5500000789762","<p style=""color:white;""> Next Figure: Male or Female? </p>","190","html-keyboard-response","446","1555901","0.0-19.0-0.6","prediction","","","",".",""
"null","<div style=""color:white; font-size:60px;"">+</div>","null","html-keyboard-response","447","1556903","0.0-19.0-1.6","fixation","","","","",""
"1003.9249998517334","Stimuli/Hangul_M13.bmp","188","image-keyboard-response","448","1557909","0.0-19.0-2.6","c2_test",",","","","",","
"830.4349998943508","<p style=""color:white;""> Next Figure: Male or Female? </p>","188","html-keyboard-response","449","1558741","0.0-19.0-0.7","prediction","","","",",",""
"null","<div style=""color:white; font-size:60px;"">+</div>","null","html-keyboard-response","450","1559743","0.0-19.0-1.7","fixation","","","","",""
"1125.1300000585616","Stimuli/Hangul_F20.bmp","188","image-keyboard-response","451","1560869","0.0-19.0-2.7","c2_test",".","","","",","
"782.0499995723367","<p style=""color:white;""> Next Figure: Male or Female? </p>","188","html-keyboard-response","452","1561653","0.0-19.0-0.8","prediction","","","",",",""
"null","<div style=""color:white; font-size:60px;"">+</div>","null","html-keyboard-response","453","1562655","0.0-19.0-1.8","fixation","","","","",""
"1962.5849998556077","Stimuli/Hangul_F21.bmp","190","image-keyboard-response","454","1564620","0.0-19.0-2.8","c2_test",".","","","","."
"959.0150001458824","<p style=""color:white;""> Next Figure: Male or Female? </p>","190","html-keyboard-response","455","1565580","0.0-19.0-0.9","prediction","","","",".",""
"null","<div style=""color:white; font-size:60px;"">+</div>","null","html-keyboard-response","456","1566582","0.0-19.0-1.9","fixation","","","","",""
"790.4599998146296","Stimuli/Hangul_F10.bmp","190","image-keyboard-response","457","1567375","0.0-19.0-2.9","c2_test",".","","","","."
"1036.8499998003244","<p style=""color:white;""> Next Figure: Male or Female? </p>","190","html-keyboard-response","458","1568413","0.0-19.0-0.10","prediction","","","",".",""
"null","<div style=""color:white; font-size:60px;"">+</div>","null","html-keyboard-response","459","1569415","0.0-19.0-1.10","fixation","","","","",""
"2444.560000207275","Stimuli/Hangul_F23.bmp","190","image-keyboard-response","460","1571861","0.0-19.0-2.10","c2_test",".","","","","."
"1429.6949999406934","<p style=""color:white;""> Next Figure: Male or Female? </p>","190","html-keyboard-response","461","1573293","0.0-19.0-0.11","prediction","","","",".",""
"null","<div style=""color:white; font-size:60px;"">+</div>","null","html-keyboard-response","462","1574295","0.0-19.0-1.11","fixation","","","","",""
"1899.8650000430644","Stimuli/Hangul_F4.bmp","190","image-keyboard-response","463","1576197","0.0-19.0-2.11","c2_test",".","","","","."
"1062.3800000175834","<p style=""color:white;""> Next Figure: Male or Female? </p>","188","html-keyboard-response","464","1577261","0.0-19.0-0.12","prediction","","","",",",""
"null","<div style=""color:white; font-size:60px;"">+</div>","null","html-keyboard-response","465","1578263","0.0-19.0-1.12","fixation","","","","",""
"3508.8150002993643","Stimuli/Hangul_F0.bmp","190","image-keyboard-response","466","1581774","0.0-19.0-2.12","c2_test",".","","","","."
"972.1499998122454","<p style=""color:white;""> Next Figure: Male or Female? </p>","188","html-keyboard-response","467","1582748","0.0-19.0-0.13","prediction","","","",",",""
"null","<div style=""color:white; font-size:60px;"">+</div>","null","html-keyboard-response","468","1583750","0.0-19.0-1.13","fixation","","","","",""
"2373.244999907911","Stimuli/Hangul_M20.bmp","188","image-keyboard-response","469","1586125","0.0-19.0-2.13","c2_test",",","","","",","
"820.4349996522069","<p style=""color:white;""> Next Figure: Male or Female? </p>","190","html-keyboard-response","470","1586949","0.0-19.0-0.14","prediction","","","",".",""
"null","<div style=""color:white; font-size:60px;"">+</div>","null","html-keyboard-response","471","1587951","0.0-19.0-1.14","fixation","","","","",""
"996.1600000970066","Stimuli/Hangul_M16.bmp","188","image-keyboard-response","472","1588948","0.0-19.0-2.14","c2_test",",","","","",","
"695.6600002013147","<p style=""color:white;""> Next Figure: Male or Female? </p>","190","html-keyboard-response","473","1589645","0.0-19.0-0.15","prediction","","","",".",""
"null","<div style=""color:white; font-size:60px;"">+</div>","null","html-keyboard-response","474","1590647","0.0-19.0-1.15","fixation","","","","",""
"892.1850002370775","Stimuli/Hangul_M0.bmp","188","image-keyboard-response","475","1591541","0.0-19.0-2.15","c2_test",",","","","",","
"711.695000063628","<p style=""color:white;""> Next Figure: Male or Female? </p>","188","html-keyboard-response","476","1592253","0.0-19.0-0.16","prediction","","","",",",""
"null","<div style=""color:white; font-size:60px;"">+</div>","null","html-keyboard-response","477","1593256","0.0-19.0-1.16","fixation","","","","",""
"2306.929999962449","Stimuli/Hangul_F5.bmp","188","image-keyboard-response","478","1595564","0.0-19.0-2.16","c2_test",".","","","",","
"647.3699999041855","<p style=""color:white;""> Next Figure: Male or Female? </p>","188","html-keyboard-response","479","1596213","0.0-19.0-0.17","prediction","","","",",",""
"null","<div style=""color:white; font-size:60px;"">+</div>","null","html-keyboard-response","480","1597214","0.0-19.0-1.17","fixation","","","","",""
"1260.6999999843538","Stimuli/Hangul_F12.bmp","188","image-keyboard-response","481","1598477","0.0-19.0-2.17","c2_test",".","","","",","
"670.4049999825656","<p style=""color:white;""> Next Figure: Male or Female? </p>","188","html-keyboard-response","482","1599149","0.0-19.0-0.18","prediction","","","",",",""
"null","<div style=""color:white; font-size:60px;"">+</div>","null","html-keyboard-response","483","1600150","0.0-19.0-1.18","fixation","","","","",""
"1092.7300001494586","Stimuli/Hangul_M15.bmp","188","image-keyboard-response","484","1601245","0.0-19.0-2.18","c2_test",",","","","",","
"780.8249997906387","<p style=""color:white;""> Next Figure: Male or Female? </p>","188","html-keyboard-response","485","1602029","0.0-19.0-0.19","prediction","","","",",",""
"null","<div style=""color:white; font-size:60px;"">+</div>","null","html-keyboard-response","486","1603031","0.0-19.0-1.19","fixation","","","","",""
"653.2600000500679","Stimuli/Hangul_F8.bmp","190","image-keyboard-response","487","1603686","0.0-19.0-2.19","c2_test",".","","","","."
"804.3049997650087","<p style=""color:white;""> Next Figure: Male or Female? </p>","190","html-keyboard-response","488","1604492","0.0-19.0-0.20","prediction","","","",".",""
"null","<div style=""color:white; font-size:60px;"">+</div>","null","html-keyboard-response","489","1605493","0.0-19.0-1.20","fixation","","","","",""
"941.5899999439716","Stimuli/Hangul_M3.bmp","188","image-keyboard-response","490","1606437","0.0-19.0-2.20","c2_test",",","","","",","
"678.3699998632073","<p style=""color:white;""> Next Figure: Male or Female? </p>","190","html-keyboard-response","491","1607116","0.0-19.0-0.21","prediction","","","",".",""
"null","<div style=""color:white; font-size:60px;"">+</div>","null","html-keyboard-response","492","1608118","0.0-19.0-1.21","fixation","","","","",""
"1372.6849998347461","Stimuli/Hangul_F3.bmp","190","image-keyboard-response","493","1609493","0.0-19.0-2.21","c2_test",".","","","","."
"638.4450001642108","<p style=""color:white;""> Next Figure: Male or Female? </p>","190","html-keyboard-response","494","1610133","0.0-19.0-0.22","prediction","","","",".",""
"null","<div style=""color:white; font-size:60px;"">+</div>","null","html-keyboard-response","495","1611136","0.0-19.0-1.22","fixation","","","","",""
"3555.430000182241","Stimuli/Hangul_F16.bmp","190","image-keyboard-response","496","1614694","0.0-19.0-2.22","c2_test",".","","","","."
"939.4200001843274","<p style=""color:white;""> Next Figure: Male or Female? </p>","188","html-keyboard-response","497","1615637","0.0-19.0-0.23","prediction","","","",",",""
"null","<div style=""color:white; font-size:60px;"">+</div>","null","html-keyboard-response","498","1616639","0.0-19.0-1.23","fixation","","","","",""
"2010.9350001439452","Stimuli/Hangul_M19.bmp","188","image-keyboard-response","499","1618653","0.0-19.0-2.23","c2_test",",","","","",","
"1037.3749998398125","<p style=""color:white;""> Next Figure: Male or Female? </p>","188","html-keyboard-response","500","1619692","0.0-19.0-0.24","prediction","","","",",",""
"null","<div style=""color:white; font-size:60px;"">+</div>","null","html-keyboard-response","501","1620693","0.0-19.0-1.24","fixation","","","","",""
"1253.000000026077","Stimuli/Hangul_M24.bmp","188","image-keyboard-response","502","1621949","0.0-19.0-2.24","c2_test",",","","","",","
"854.3549999594688","<p style=""color:white;""> Next Figure: Male or Female? </p>","190","html-keyboard-response","503","1622805","0.0-19.0-0.25","prediction","","","",".",""
"null","<div style=""color:white; font-size:60px;"">+</div>","null","html-keyboard-response","504","1623808","0.0-19.0-1.25","fixation","","","","",""
"5676.434999797493","Stimuli/Hangul_F15.bmp","188","image-keyboard-response","505","1629486","0.0-19.0-2.25","c2_test",".","","","",","
"757.1049998514354","<p style=""color:white;""> Next Figure: Male or Female? </p>","190","html-keyboard-response","506","1630245","0.0-19.0-0.26","prediction","","","",".",""
"null","<div style=""color:white; font-size:60px;"">+</div>","null","html-keyboard-response","507","1631247","0.0-19.0-1.26","fixation","","","","",""
"594.8499999940395","Stimuli/Hangul_F14.bmp","190","image-keyboard-response","508","1631844","0.0-19.0-2.26","c2_test",".","","","","."
"661.4800002425909","<p style=""color:white;""> Next Figure: Male or Female? </p>","190","html-keyboard-response","509","1632508","0.0-19.0-0.27","prediction","","","",".",""
"null","<div style=""color:white; font-size:60px;"">+</div>","null","html-keyboard-response","510","1633511","0.0-19.0-1.27","fixation","","","","",""
"515.5050000175834","Stimuli/Hangul_F18.bmp","190","image-keyboard-response","511","1634029","0.0-19.0-2.27","c2_test",".","","","","."
"814.2249998636544","<p style=""color:white;""> Next Figure: Male or Female? </p>","190","html-keyboard-response","512","1634844","0.0-19.0-0.28","prediction","","","",".",""
"null","<div style=""color:white; font-size:60px;"">+</div>","null","html-keyboard-response","513","1635848","0.0-19.0-1.28","fixation","","","","",""
"2483.245000243187","Stimuli/Hangul_F19.bmp","188","image-keyboard-response","514","1638333","0.0-19.0-2.28","c2_test",".","","","",","
"662.1199999935925","<p style=""color:white;""> Next Figure: Male or Female? </p>","188","html-keyboard-response","515","1638996","0.0-19.0-0.29","prediction","","","",",",""
"null","<div style=""color:white; font-size:60px;"">+</div>","null","html-keyboard-response","516","1639997","0.0-19.0-1.29","fixation","","","","",""
"830.7650000788271","Stimuli/Hangul_F17.bmp","188","image-keyboard-response","517","1640830","0.0-19.0-2.29","c2_test",".","","","",","
"611.9849998503923","<p style=""color:white;""> Next Figure: Male or Female? </p>","188","html-keyboard-response","518","1641445","0.0-19.0-0.30","prediction","","","",",",""
"null","<div style=""color:white; font-size:60px;"">+</div>","null","html-keyboard-response","519","1642447","0.0-19.0-1.30","fixation","","","","",""
"2228.5950002260506","Stimuli/Hangul_F24.bmp","188","image-keyboard-response","520","1644676","0.0-19.0-2.30","c2_test",".","","","",","
"613.9799999073148","<p style=""color:white;""> Next Figure: Male or Female? </p>","188","html-keyboard-response","521","1645292","0.0-19.0-0.31","prediction","","","",",",""
"null","<div style=""color:white; font-size:60px;"">+</div>","null","html-keyboard-response","522","1646295","0.0-19.0-1.31","fixation","","","","",""
"835.2550002746284","Stimuli/Hangul_M22.bmp","188","image-keyboard-response","523","1647132","0.0-19.0-2.31","c2_test",",","","","",","
"598.9049999043345","<p style=""color:white;""> Next Figure: Male or Female? </p>","188","html-keyboard-response","524","1647732","0.0-19.0-0.32","prediction","","","",",",""
"null","<div style=""color:white; font-size:60px;"">+</div>","null","html-keyboard-response","525","1648734","0.0-19.0-1.32","fixation","","","","",""
"851.6399995423853","Stimuli/Hangul_M14.bmp","188","image-keyboard-response","526","1649589","0.0-19.0-2.32","c2_test",",","","","",","
"557.645000051707","<p style=""color:white;""> Next Figure: Male or Female? </p>","188","html-keyboard-response","527","1650149","0.0-19.0-0.33","prediction","","","",",",""
"null","<div style=""color:white; font-size:60px;"">+</div>","null","html-keyboard-response","528","1651151","0.0-19.0-1.33","fixation","","","","",""
"821.4600002393126","Stimuli/Hangul_M7.bmp","188","image-keyboard-response","529","1651974","0.0-19.0-2.33","c2_test",",","","","",","
"608.3450000733137","<p style=""color:white;""> Next Figure: Male or Female? </p>","188","html-keyboard-response","530","1652589","0.0-19.0-0.34","prediction","","","",",",""
"null","<div style=""color:white; font-size:60px;"">+</div>","null","html-keyboard-response","531","1653590","0.0-19.0-1.34","fixation","","","","",""
"892.0900002121925","Stimuli/Hangul_M6.bmp","188","image-keyboard-response","532","1654484","0.0-19.0-2.34","c2_test",",","","","",","
"511.8000004440546","<p style=""color:white;""> Next Figure: Male or Female? </p>","188","html-keyboard-response","533","1654997","0.0-19.0-0.35","prediction","","","",",",""
"null","<div style=""color:white; font-size:60px;"">+</div>","null","html-keyboard-response","534","1655999","0.0-19.0-1.35","fixation","","","","",""
"1484.2499997466803","Stimuli/Hangul_M5.bmp","188","image-keyboard-response","535","1657484","0.0-19.0-2.35","c2_test",",","","","",","
"518.4149998240173","<p style=""color:white;""> Next Figure: Male or Female? </p>","190","html-keyboard-response","536","1658005","0.0-19.0-0.36","prediction","","","",".",""
"null","<div style=""color:white; font-size:60px;"">+</div>","null","html-keyboard-response","537","1659006","0.0-19.0-1.36","fixation","","","","",""
"972.9700000025332","Stimuli/Hangul_M1.bmp","188","image-keyboard-response","538","1659981","0.0-19.0-2.36","c2_test",",","","","",","
"606.1800001189113","<p style=""color:white;""> Next Figure: Male or Female? </p>","190","html-keyboard-response","539","1660588","0.0-19.0-0.37","prediction","","","",".",""
"null","<div style=""color:white; font-size:60px;"">+</div>","null","html-keyboard-response","540","1661591","0.0-19.0-1.37","fixation","","","","",""
"1172.9600001126528","Stimuli/Hangul_F2.bmp","188","image-keyboard-response","541","1662766","0.0-19.0-2.37","c2_test",".","","","",","
"580.6800001300871","<p style=""color:white;""> Next Figure: Male or Female? </p>","188","html-keyboard-response","542","1663348","0.0-19.0-0.38","prediction","","","",",",""
"null","<div style=""color:white; font-size:60px;"">+</div>","null","html-keyboard-response","543","1664370","0.0-19.0-1.38","fixation","","","","",""
"953.2700004056096","Stimuli/Hangul_F7.bmp","188","image-keyboard-response","544","1665325","0.0-19.0-2.38","c2_test",".","","","",","
"534.5550002530217","<p style=""color:white;""> Next Figure: Male or Female? </p>","188","html-keyboard-response","545","1665861","0.0-19.0-0.39","prediction","","","",",",""
"null","<div style=""color:white; font-size:60px;"">+</div>","null","html-keyboard-response","546","1666863","0.0-19.0-1.39","fixation","","","","",""
"899.6799997985363","Stimuli/Hangul_M21.bmp","188","image-keyboard-response","547","1667765","0.0-19.0-2.39","c2_test",",","","","",","
"454.8049997538328","<p style=""color:white;""> Next Figure: Male or Female? </p>","188","html-keyboard-response","548","1668221","0.0-19.0-0.40","prediction","","","",",",""
"null","<div style=""color:white; font-size:60px;"">+</div>","null","html-keyboard-response","549","1669223","0.0-19.0-1.40","fixation","","","","",""
"1788.379999808967","Stimuli/Hangul_M8.bmp","188","image-keyboard-response","550","1671012","0.0-19.0-2.40","c2_test",",","","","",","
"463.87000009417534","<p style=""color:white;""> Next Figure: Male or Female? </p>","188","html-keyboard-response","551","1671477","0.0-19.0-0.41","prediction","","","",",",""
"null","<div style=""color:white; font-size:60px;"">+</div>","null","html-keyboard-response","552","1672480","0.0-19.0-1.41","fixation","","","","",""
"699.2350001819432","Stimuli/Hangul_F1.bmp","190","image-keyboard-response","553","1673182","0.0-19.0-2.41","c2_test",".","","","","."
"781.1249997466803","<p style=""color:white;""> Next Figure: Male or Female? </p>","190","html-keyboard-response","554","1673965","0.0-19.0-0.42","prediction","","","",".",""
"null","<div style=""color:white; font-size:60px;"">+</div>","null","html-keyboard-response","555","1674967","0.0-19.0-1.42","fixation","","","","",""
"764.8849999532104","Stimuli/Hangul_M18.bmp","188","image-keyboard-response","556","1675733","0.0-19.0-2.42","c2_test",",","","","",","
"589.244999922812","<p style=""color:white;""> Next Figure: Male or Female? </p>","188","html-keyboard-response","557","1676325","0.0-19.0-0.43","prediction","","","",",",""
"null","<div style=""color:white; font-size:60px;"">+</div>","null","html-keyboard-response","558","1677328","0.0-19.0-1.43","fixation","","","","",""
"2034.8049998283386","Stimuli/Hangul_F13.bmp","188","image-keyboard-response","559","1679365","0.0-19.0-2.43","c2_test",".","","","",","
"510.3500001132488","<p style=""color:white;""> Next Figure: Male or Female? </p>","188","html-keyboard-response","560","1679876","0.0-19.0-0.44","prediction","","","",",",""
"null","<div style=""color:white; font-size:60px;"">+</div>","null","html-keyboard-response","561","1680878","0.0-19.0-1.44","fixation","","","","",""
"2726.3050000183284","Stimuli/Hangul_M11.bmp","188","image-keyboard-response","562","1683606","0.0-19.0-2.44","c2_test",",","","","",","
"635.8000002801418","<p style=""color:white;""> Next Figure: Male or Female? </p>","188","html-keyboard-response","563","1684244","0.0-19.0-0.45","prediction","","","",",",""
"null","<div style=""color:white; font-size:60px;"">+</div>","null","html-keyboard-response","564","1685245","0.0-19.0-1.45","fixation","","","","",""
"821.9249998219311","Stimuli/Hangul_F22.bmp","188","image-keyboard-response","565","1686069","0.0-19.0-2.45","c2_test",".","","","",","
"470.3950001858175","<p style=""color:white;""> Next Figure: Male or Female? </p>","188","html-keyboard-response","566","1686541","0.0-19.0-0.46","prediction","","","",",",""
"null","<div style=""color:white; font-size:60px;"">+</div>","null","html-keyboard-response","567","1687543","0.0-19.0-1.46","fixation","","","","",""
"908.6050000041723","Stimuli/Hangul_M2.bmp","188","image-keyboard-response","568","1688453","0.0-19.0-2.46","c2_test",",","","","",","
"2173.1400000862777","<p style=""color:white;""> Next Figure: Male or Female? </p>","190","html-keyboard-response","569","1690629","0.0-19.0-0.47","prediction","","","",".",""
"null","<div style=""color:white; font-size:60px;"">+</div>","null","html-keyboard-response","570","1691631","0.0-19.0-1.47","fixation","","","","",""
"4668.259999714792","Stimuli/Hangul_F6.bmp","190","image-keyboard-response","571","1696302","0.0-19.0-2.47","c2_test",".","","","","."
"628.70500003919","<p style=""color:white;""> Next Figure: Male or Female? </p>","190","html-keyboard-response","572","1696933","0.0-19.0-0.48","prediction","","","",".",""
"null","<div style=""color:white; font-size:60px;"">+</div>","null","html-keyboard-response","573","1697935","0.0-19.0-1.48","fixation","","","","",""
"1339.2399996519089","Stimuli/Hangul_F9.bmp","188","image-keyboard-response","574","1699277","0.0-19.0-2.48","c2_test",".","","","",","
"470.4300002194941","<p style=""color:white;""> Next Figure: Male or Female? </p>","188","html-keyboard-response","575","1699749","0.0-19.0-0.49","prediction","","","",",",""
"null","<div style=""color:white; font-size:60px;"">+</div>","null","html-keyboard-response","576","1700752","0.0-19.0-1.49","fixation","","","","",""
"2073.904999997467","Stimuli/Hangul_M9.bmp","188","image-keyboard-response","577","1702828","0.0-19.0-2.49","c2_test",",","","","",","
"1959.0949998237193","<p style=""color:white;"">Good job, block 1 complete! Please take a moment to rest.</p> <p style=""color:white;"">When you are ready to continue with block 2 of 4, press the space bar.</p> ","32","html-keyboard-response","578","1704788","0.0-20.0","","","","","",""
"494.30499970912933","<p style=""color:white;""> Next Figure: Male or Female? </p>","188","html-keyboard-response","579","1707285","0.0-21.0-0.0","prediction","","","",",",""
"null","<div style=""color:white; font-size:60px;"">+</div>","null","html-keyboard-response","580","1708288","0.0-21.0-1.0","fixation","","","","",""
"1330.864999908954","Stimuli/Hangul_M35.bmp","188","image-keyboard-response","581","1709621","0.0-21.0-2.0","c2_test",",","","","",","
"518.4300001710653","<p style=""color:white;""> Next Figure: Male or Female? </p>","190","html-keyboard-response","582","1710141","0.0-21.0-0.1","prediction","","","",".",""
"null","<div style=""color:white; font-size:60px;"">+</div>","null","html-keyboard-response","583","1711143","0.0-21.0-1.1","fixation","","","","",""
"2323.520000092685","Stimuli/Hangul_M36.bmp","190","image-keyboard-response","584","1713469","0.0-21.0-2.1","c2_test",",","","","","."
"462.37000031396747","<p style=""color:white;""> Next Figure: Male or Female? </p>","190","html-keyboard-response","585","1713933","0.0-21.0-0.2","prediction","","","",".",""
"null","<div style=""color:white; font-size:60px;"">+</div>","null","html-keyboard-response","586","1714936","0.0-21.0-1.2","fixation","","","","",""
"1371.4450001716614","Stimuli/Hangul_F25.bmp","190","image-keyboard-response","587","1716309","0.0-21.0-2.2","c2_test",".","","","","."
"486.304999794811","<p style=""color:white;""> Next Figure: Male or Female? </p>","190","html-keyboard-response","588","1716797","0.0-21.0-0.3","prediction","","","",".",""
"null","<div style=""color:white; font-size:60px;"">+</div>","null","html-keyboard-response","589","1717799","0.0-21.0-1.3","fixation","","","","",""
"598.32499967888","Stimuli/Hangul_F29.bmp","190","image-keyboard-response","590","1718398","0.0-21.0-2.3","c2_test",".","","","","."
"596.1449998430908","<p style=""color:white;""> Next Figure: Male or Female? </p>","190","html-keyboard-response","591","1718996","0.0-21.0-0.4","prediction","","","",".",""
"null","<div style=""color:white; font-size:60px;"">+</div>","null","html-keyboard-response","592","1719998","0.0-21.0-1.4","fixation","","","","",""
"1757.0050000213087","Stimuli/Hangul_F43.bmp","190","image-keyboard-response","593","1721757","0.0-21.0-2.4","c2_test",".","","","","."
"429.88499999046326","<p style=""color:white;""> Next Figure: Male or Female? </p>","190","html-keyboard-response","594","1722188","0.0-21.0-0.5","prediction","","","",".",""
"null","<div style=""color:white; font-size:60px;"">+</div>","null","html-keyboard-response","595","1723189","0.0-21.0-1.5","fixation","","","","",""
"1468.9150000922382","Stimuli/Hangul_M39.bmp","190","image-keyboard-response","596","1724661","0.0-21.0-2.5","c2_test",",","","","","."
"454.3200000189245","<p style=""color:white;""> Next Figure: Male or Female? </p>","190","html-keyboard-response","597","1725116","0.0-21.0-0.6","prediction","","","",".",""
"null","<div style=""color:white; font-size:60px;"">+</div>","null","html-keyboard-response","598","1726119","0.0-21.0-1.6","fixation","","","","",""
"1132.0599997416139","Stimuli/Hangul_F27.bmp","188","image-keyboard-response","599","1727253","0.0-21.0-2.6","c2_test",".","","","",","
"510.27499977499247","<p style=""color:white;""> Next Figure: Male or Female? </p>","188","html-keyboard-response","600","1727765","0.0-21.0-0.7","prediction","","","",",",""
"null","<div style=""color:white; font-size:60px;"">+</div>","null","html-keyboard-response","601","1728767","0.0-21.0-1.7","fixation","","","","",""
"3357.0949998684227","Stimuli/Hangul_M26.bmp","188","image-keyboard-response","602","1732126","0.0-21.0-2.7","c2_test",",","","","",","
"603.995000012219","<p style=""color:white;""> Next Figure: Male or Female? </p>","188","html-keyboard-response","603","1732732","0.0-21.0-0.8","prediction","","","",",",""
"null","<div style=""color:white; font-size:60px;"">+</div>","null","html-keyboard-response","604","1733735","0.0-21.0-1.8","fixation","","","","",""
"1235.1049999706447","Stimuli/Hangul_M46.bmp","188","image-keyboard-response","605","1734972","0.0-21.0-2.8","c2_test",",","","","",","
"478.4300001338124","<p style=""color:white;""> Next Figure: Male or Female? </p>","188","html-keyboard-response","606","1735453","0.0-21.0-0.9","prediction","","","",",",""
"null","<div style=""color:white; font-size:60px;"">+</div>","null","html-keyboard-response","607","1736456","0.0-21.0-1.9","fixation","","","","",""
"875.4750001244247","Stimuli/Hangul_M47.bmp","188","image-keyboard-response","608","1737332","0.0-21.0-2.9","c2_test",",","","","",","
"510.29999973252416","<p style=""color:white;""> Next Figure: Male or Female? </p>","188","html-keyboard-response","609","1737844","0.0-21.0-0.10","prediction","","","",",",""
"null","<div style=""color:white; font-size:60px;"">+</div>","null","html-keyboard-response","610","1738846","0.0-21.0-1.10","fixation","","","","",""
"5398.645000066608","Stimuli/Hangul_M42.bmp","190","image-keyboard-response","611","1744246","0.0-21.0-2.10","c2_test",",","","","","."
"396.694999653846","<p style=""color:white;""> Next Figure: Male or Female? </p>","190","html-keyboard-response","612","1744644","0.0-21.0-0.11","prediction","","","",".",""
"null","<div style=""color:white; font-size:60px;"">+</div>","null","html-keyboard-response","613","1745647","0.0-21.0-1.11","fixation","","","","",""
"881.519999820739","Stimuli/Hangul_M37.bmp","190","image-keyboard-response","614","1746532","0.0-21.0-2.11","c2_test",",","","","","."
"415.2499996125698","<p style=""color:white;""> Next Figure: Male or Female? </p>","190","html-keyboard-response","615","1746948","0.0-21.0-0.12","prediction","","","",".",""
"null","<div style=""color:white; font-size:60px;"">+</div>","null","html-keyboard-response","616","1747950","0.0-21.0-1.12","fixation","","","","",""
"2404.6200001612306","Stimuli/Hangul_F47.bmp","190","image-keyboard-response","617","1750356","0.0-21.0-2.12","c2_test",".","","","","."
"350.75000021606684","<p style=""color:white;""> Next Figure: Male or Female? </p>","190","html-keyboard-response","618","1750709","0.0-21.0-0.13","prediction","","","",".",""
"null","<div style=""color:white; font-size:60px;"">+</div>","null","html-keyboard-response","619","1751711","0.0-21.0-1.13","fixation","","","","",""
"2099.059999920428","Stimuli/Hangul_M44.bmp","190","image-keyboard-response","620","1753812","0.0-21.0-2.13","c2_test",",","","","","."
"342.2349998727441","<p style=""color:white;""> Next Figure: Male or Female? </p>","190","html-keyboard-response","621","1754155","0.0-21.0-0.14","prediction","","","",".",""
"null","<div style=""color:white; font-size:60px;"">+</div>","null","html-keyboard-response","622","1755156","0.0-21.0-1.14","fixation","","","","",""
"1335.5749999172986","Stimuli/Hangul_F41.bmp","188","image-keyboard-response","623","1756494","0.0-21.0-2.14","c2_test",".","","","",","
"429.0649998001754","<p style=""color:white;""> Next Figure: Male or Female? </p>","188","html-keyboard-response","624","1756924","0.0-21.0-0.15","prediction","","","",",",""
"null","<div style=""color:white; font-size:60px;"">+</div>","null","html-keyboard-response","625","1757928","0.0-21.0-1.15","fixation","","","","",""
"707.1099998429418","Stimuli/Hangul_F34.bmp","190","image-keyboard-response","626","1758637","0.0-21.0-2.15","c2_test",".","","","","."
"549.6700000949204","<p style=""color:white;""> Next Figure: Male or Female? </p>","190","html-keyboard-response","627","1759188","0.0-21.0-0.16","prediction","","","",".",""
"null","<div style=""color:white; font-size:60px;"">+</div>","null","html-keyboard-response","628","1760190","0.0-21.0-1.16","fixation","","","","",""
"580.9499998576939","Stimuli/Hangul_F30.bmp","190","image-keyboard-response","629","1760772","0.0-21.0-2.16","c2_test",".","","","","."
"526.4250002801418","<p style=""color:white;""> Next Figure: Male or Female? </p>","190","html-keyboard-response","630","1761300","0.0-21.0-0.17","prediction","","","",".",""
"null","<div style=""color:white; font-size:60px;"">+</div>","null","html-keyboard-response","631","1762303","0.0-21.0-1.17","fixation","","","","",""
"939.2149997875094","Stimuli/Hangul_M29.bmp","190","image-keyboard-response","632","1763245","0.0-21.0-2.17","c2_test",",","","","","."
"374.28499991074204","<p style=""color:white;""> Next Figure: Male or Female? </p>","190","html-keyboard-response","633","1763620","0.0-21.0-0.18","prediction","","","",".",""
"null","<div style=""color:white; font-size:60px;"">+</div>","null","html-keyboard-response","634","1764622","0.0-21.0-1.18","fixation","","","","",""
"1092.6350001245737","Stimuli/Hangul_M40.bmp","190","image-keyboard-response","635","1765716","0.0-21.0-2.18","c2_test",",","","","","."
"477.65500005334616","<p style=""color:white;""> Next Figure: Male or Female? </p>","190","html-keyboard-response","636","1766196","0.0-21.0-0.19","prediction","","","",".",""
"null","<div style=""color:white; font-size:60px;"">+</div>","null","html-keyboard-response","637","1767199","0.0-21.0-1.19","fixation","","","","",""
"2035.7699999585748","Stimuli/Hangul_M41.bmp","190","image-keyboard-response","638","1769237","0.0-21.0-2.19","c2_test",",","","","","."
"381.1449999921024","<p style=""color:white;""> Next Figure: Male or Female? </p>","190","html-keyboard-response","639","1769619","0.0-21.0-0.20","prediction","","","",".",""
"null","<div style=""color:white; font-size:60px;"">+</div>","null","html-keyboard-response","640","1770621","0.0-21.0-1.20","fixation","","","","",""
"1110.0849998183548","Stimuli/Hangul_F49.bmp","188","image-keyboard-response","641","1771732","0.0-21.0-2.20","c2_test",".","","","",","
"998.3999999240041","<p style=""color:white;""> Next Figure: Male or Female? </p>","190","html-keyboard-response","642","1772732","0.0-21.0-0.21","prediction","","","",".",""
"null","<div style=""color:white; font-size:60px;"">+</div>","null","html-keyboard-response","643","1773735","0.0-21.0-1.21","fixation","","","","",""
"1210.2699996903539","Stimuli/Hangul_F45.bmp","188","image-keyboard-response","644","1774948","0.0-21.0-2.21","c2_test",".","","","",","
"541.9850000180304","<p style=""color:white;""> Next Figure: Male or Female? </p>","188","html-keyboard-response","645","1775493","0.0-21.0-0.22","prediction","","","",",",""
"null","<div style=""color:white; font-size:60px;"">+</div>","null","html-keyboard-response","646","1776497","0.0-21.0-1.22","fixation","","","","",""
"3113.3049996569753","Stimuli/Hangul_M25.bmp","188","image-keyboard-response","647","1779614","0.0-21.0-2.22","c2_test",",","","","",","
"407.74499997496605","<p style=""color:white;""> Next Figure: Male or Female? </p>","188","html-keyboard-response","648","1780028","0.0-21.0-0.23","prediction","","","",",",""
"null","<div style=""color:white; font-size:60px;"">+</div>","null","html-keyboard-response","649","1781031","0.0-21.0-1.23","fixation","","","","",""
"2322.910000104457","Stimuli/Hangul_F40.bmp","188","image-keyboard-response","650","1783356","0.0-21.0-2.23","c2_test",".","","","",","
"366.0800000652671","<p style=""color:white;""> Next Figure: Male or Female? </p>","188","html-keyboard-response","651","1783724","0.0-21.0-0.24","prediction","","","",",",""
"null","<div style=""color:white; font-size:60px;"">+</div>","null","html-keyboard-response","652","1784726","0.0-21.0-1.24","fixation","","","","",""
"3461.159999947995","Stimuli/Hangul_M33.bmp","188","image-keyboard-response","653","1788188","0.0-21.0-2.24","c2_test",",","","","",","
