"rt","stimulus","key_press","trial_type","trial_index","time_elapsed","internal_node_id","test_part","correct_response","C1_train","C1","A","C2"
"2732.884999997623","<p style=""color:white;"">Welcome to the experiment! Press any key to begin.</p>","32","html-keyboard-response","0","2743","0.0-0.0","","","","","",""
"68065.60500000342","<p style=""color:white;"">You will see a series of abstract figures. They are adaptations of signs in the Korean alphabet, but that is not important for this study. </p><p style=""color:white;"">Abstract figures sometimes have a more masculine or feminine shape. Here, each figure has already been assigned a gender as <q>Male</q> or <q>Female</q> by a panel of respondents in a pilot study. The respondents were not given specific instructions on how to do this, but were only told to use their intuition and to take into account the entire configuration of the stimulus. </p><p style=""color:white;"">Your task now is to guess the assigned gender of each figure. Please press the corresponding response keys to indicate your choice: </p><p style=""color:white;""> Male &#8594 <q>,</q> (comma)</p><p style=""color:white;""> Female &#8594 <q>.</q> (period)</p><p style=""color:white;"">Press either response keys to continue.</p>","190","html-keyboard-response","1","70812","0.0-1.0","","","","","",""
"11520.495000004303","<p style=""color:white;"">Your choice is correct if it matches the gender assigned by the majority of respondents in the pilot study.</p> <p style=""color:white;"">For each correct choice you will receive 2 cents. There will be 200 trials divided into 4 blocks of 50 trials. You will be able to take a break after every 50 trials.</p> <p style=""color:white;"">Press the space bar to continue.</p>","32","html-keyboard-response","2","82334","0.0-2.0","","","","","",""
"6406.605000003765","<p style=""color:white;"">Here are some examples.</p> <p style=""color:white;"">For each, guess whether the assigned figure is male-like or female-like and indicate your choice by pressing either response keys.</p> <p style=""color:white;"">Press the space bar to continue.</p>","32","html-keyboard-response","3","88742","0.0-3.0","","","","","",""
"null","<div style=""color:white; font-size:60px;"">+</div>","null","html-keyboard-response","4","91747","0.0-4.0-0.0","fixation","","","","",""
"1752.265000002808","Stimuli/Hangul_E1.bmp","190","image-keyboard-response","5","93501","0.0-4.0-1.0","c1_train",",",".","","",""
"null","<div style=""color:white; font-size:60px;"">+</div>","null","html-keyboard-response","6","94503","0.0-4.0-0.1","fixation","","","","",""
"1476.1300000027404","Stimuli/Hangul_E2.bmp","188","image-keyboard-response","7","95981","0.0-4.0-1.1","c1_train",".",",","","",""
"null","<div style=""color:white; font-size:60px;"">+</div>","null","html-keyboard-response","8","96982","0.0-4.0-0.2","fixation","","","","",""
"1220.260000001872","Stimuli/Hangul_E0.bmp","188","image-keyboard-response","9","98203","0.0-4.0-1.2","c1_train",",",",","","",""
"2415.0099999969825","<p style=""color:white;"">Let us begin! Press the space bar when you are ready to start block 1 of 4.</p> ","32","html-keyboard-response","10","100620","0.0-5.0","","","","","",""
"null","<div style=""color:white; font-size:60px;"">+</div>","null","html-keyboard-response","11","103625","0.0-6.0-0.0","fixation","","","","",""
"1205.5550000004587","Stimuli/Hangul_M3.bmp","188","image-keyboard-response","12","104832","0.0-6.0-1.0","test",",","",",","",""
"null","<div style=""color:white; font-size:60px;"">+</div>","null","html-keyboard-response","13","105834","0.0-6.0-0.1","fixation","","","","",""
"1106.0749999960535","Stimuli/Hangul_F12.bmp","190","image-keyboard-response","14","106941","0.0-6.0-1.1","test",".","",".","",""
"null","<div style=""color:white; font-size:60px;"">+</div>","null","html-keyboard-response","15","107943","0.0-6.0-0.2","fixation","","","","",""
"1095.484999998007","Stimuli/Hangul_F8.bmp","190","image-keyboard-response","16","109039","0.0-6.0-1.2","test",".","",".","",""
"null","<div style=""color:white; font-size:60px;"">+</div>","null","html-keyboard-response","17","110041","0.0-6.0-0.3","fixation","","","","",""
"1059.60999999661","Stimuli/Hangul_F11.bmp","188","image-keyboard-response","18","111102","0.0-6.0-1.3","test",".","",",","",""
"null","<div style=""color:white; font-size:60px;"">+</div>","null","html-keyboard-response","19","112104","0.0-6.0-0.4","fixation","","","","",""
"1104.8600000067381","Stimuli/Hangul_F10.bmp","190","image-keyboard-response","20","113210","0.0-6.0-1.4","test",".","",".","",""
"null","<div style=""color:white; font-size:60px;"">+</div>","null","html-keyboard-response","21","114211","0.0-6.0-0.5","fixation","","","","",""
"1050.9099999981117","Stimuli/Hangul_M5.bmp","190","image-keyboard-response","22","115263","0.0-6.0-1.5","test",",","",".","",""
"null","<div style=""color:white; font-size:60px;"">+</div>","null","html-keyboard-response","23","116264","0.0-6.0-0.6","fixation","","","","",""
"1019.4699999992736","Stimuli/Hangul_F21.bmp","190","image-keyboard-response","24","117305","0.0-6.0-1.6","test",".","",".","",""
"null","<div style=""color:white; font-size:60px;"">+</div>","null","html-keyboard-response","25","118307","0.0-6.0-0.7","fixation","","","","",""
"1048.6949999976787","Stimuli/Hangul_M12.bmp","190","image-keyboard-response","26","119357","0.0-6.0-1.7","test",",","",".","",""
"null","<div style=""color:white; font-size:60px;"">+</div>","null","html-keyboard-response","27","120359","0.0-6.0-0.8","fixation","","","","",""
"1093.2549999997718","Stimuli/Hangul_F2.bmp","188","image-keyboard-response","28","121453","0.0-6.0-1.8","test",".","",",","",""
"null","<div style=""color:white; font-size:60px;"">+</div>","null","html-keyboard-response","29","122454","0.0-6.0-0.9","fixation","","","","",""
"1116.9599999993807","Stimuli/Hangul_M13.bmp","188","image-keyboard-response","30","123572","0.0-6.0-1.9","test",",","",",","",""
"null","<div style=""color:white; font-size:60px;"">+</div>","null","html-keyboard-response","31","124573","0.0-6.0-0.10","fixation","","","","",""
"1093.0500000031316","Stimuli/Hangul_M17.bmp","188","image-keyboard-response","32","125668","0.0-6.0-1.10","test",",","",",","",""
"null","<div style=""color:white; font-size:60px;"">+</div>","null","html-keyboard-response","33","126669","0.0-6.0-0.11","fixation","","","","",""
"973.9449999979115","Stimuli/Hangul_M23.bmp","190","image-keyboard-response","34","127644","0.0-6.0-1.11","test",",","",".","",""
"null","<div style=""color:white; font-size:60px;"">+</div>","null","html-keyboard-response","35","128649","0.0-6.0-0.12","fixation","","","","",""
"1010.1399999985006","Stimuli/Hangul_M20.bmp","190","image-keyboard-response","36","129660","0.0-6.0-1.12","test",",","",".","",""
"null","<div style=""color:white; font-size:60px;"">+</div>","null","html-keyboard-response","37","130661","0.0-6.0-0.13","fixation","","","","",""
"1045.460000001185","Stimuli/Hangul_F13.bmp","188","image-keyboard-response","38","131708","0.0-6.0-1.13","test",".","",",","",""
"null","<div style=""color:white; font-size:60px;"">+</div>","null","html-keyboard-response","39","132710","0.0-6.0-0.14","fixation","","","","",""
"1108.5999999995693","Stimuli/Hangul_M1.bmp","190","image-keyboard-response","40","133820","0.0-6.0-1.14","test",",","",".","",""
"null","<div style=""color:white; font-size:60px;"">+</div>","null","html-keyboard-response","41","134822","0.0-6.0-0.15","fixation","","","","",""
"1015.8150000061141","Stimuli/Hangul_M22.bmp","190","image-keyboard-response","42","135838","0.0-6.0-1.15","test",",","",".","",""
"null","<div style=""color:white; font-size:60px;"">+</div>","null","html-keyboard-response","43","136840","0.0-6.0-0.16","fixation","","","","",""
"1026.5199999994365","Stimuli/Hangul_F9.bmp","188","image-keyboard-response","44","137868","0.0-6.0-1.16","test",".","",",","",""
"null","<div style=""color:white; font-size:60px;"">+</div>","null","html-keyboard-response","45","138870","0.0-6.0-0.17","fixation","","","","",""
"1069.0899999972316","Stimuli/Hangul_M18.bmp","188","image-keyboard-response","46","139940","0.0-6.0-1.17","test",",","",",","",""
"null","<div style=""color:white; font-size:60px;"">+</div>","null","html-keyboard-response","47","140941","0.0-6.0-0.18","fixation","","","","",""
"1070.0550000037765","Stimuli/Hangul_M8.bmp","188","image-keyboard-response","48","142012","0.0-6.0-1.18","test",",","",",","",""
"null","<div style=""color:white; font-size:60px;"">+</div>","null","html-keyboard-response","49","143014","0.0-6.0-0.19","fixation","","","","",""
"1037.0600000023842","Stimuli/Hangul_F1.bmp","190","image-keyboard-response","50","144052","0.0-6.0-1.19","test",".","",".","",""
"null","<div style=""color:white; font-size:60px;"">+</div>","null","html-keyboard-response","51","145053","0.0-6.0-0.20","fixation","","","","",""
"1215.875000001688","Stimuli/Hangul_F24.bmp","190","image-keyboard-response","52","146270","0.0-6.0-1.20","test",".","",".","",""
"null","<div style=""color:white; font-size:60px;"">+</div>","null","html-keyboard-response","53","147271","0.0-6.0-0.21","fixation","","","","",""
"1173.3650000023772","Stimuli/Hangul_M4.bmp","190","image-keyboard-response","54","148446","0.0-6.0-1.21","test",",","",".","",""
"null","<div style=""color:white; font-size:60px;"">+</div>","null","html-keyboard-response","55","149448","0.0-6.0-0.22","fixation","","","","",""
"1061.184999998659","Stimuli/Hangul_F22.bmp","190","image-keyboard-response","56","150510","0.0-6.0-1.22","test",".","",".","",""
"null","<div style=""color:white; font-size:60px;"">+</div>","null","html-keyboard-response","57","151511","0.0-6.0-0.23","fixation","","","","",""
"1075.635000001057","Stimuli/Hangul_F6.bmp","188","image-keyboard-response","58","152587","0.0-6.0-1.23","test",".","",",","",""
"null","<div style=""color:white; font-size:60px;"">+</div>","null","html-keyboard-response","59","153589","0.0-6.0-0.24","fixation","","","","",""
"1032.8599999993457","Stimuli/Hangul_F5.bmp","188","image-keyboard-response","60","154623","0.0-6.0-1.24","test",".","",",","",""
"null","<div style=""color:white; font-size:60px;"">+</div>","null","html-keyboard-response","61","155629","0.0-6.0-0.25","fixation","","","","",""
"1096.655000001192","Stimuli/Hangul_M15.bmp","190","image-keyboard-response","62","156726","0.0-6.0-1.25","test",",","",".","",""
"null","<div style=""color:white; font-size:60px;"">+</div>","null","html-keyboard-response","63","157729","0.0-6.0-0.26","fixation","","","","",""
"1082.7849999986938","Stimuli/Hangul_M0.bmp","188","image-keyboard-response","64","158814","0.0-6.0-1.26","test",",","",",","",""
"null","<div style=""color:white; font-size:60px;"">+</div>","null","html-keyboard-response","65","159815","0.0-6.0-0.27","fixation","","","","",""
"1060.3300000002491","Stimuli/Hangul_M6.bmp","190","image-keyboard-response","66","160877","0.0-6.0-1.27","test",",","",".","",""
"null","<div style=""color:white; font-size:60px;"">+</div>","null","html-keyboard-response","67","161878","0.0-6.0-0.28","fixation","","","","",""
"1131.9500000026892","Stimuli/Hangul_F15.bmp","188","image-keyboard-response","68","163012","0.0-6.0-1.28","test",".","",",","",""
"null","<div style=""color:white; font-size:60px;"">+</div>","null","html-keyboard-response","69","164016","0.0-6.0-0.29","fixation","","","","",""
"1227.695000001404","Stimuli/Hangul_F3.bmp","190","image-keyboard-response","70","165244","0.0-6.0-1.29","test",".","",".","",""
"null","<div style=""color:white; font-size:60px;"">+</div>","null","html-keyboard-response","71","166246","0.0-6.0-0.30","fixation","","","","",""
"1150.454999995418","Stimuli/Hangul_M9.bmp","190","image-keyboard-response","72","167398","0.0-6.0-1.30","test",",","",".","",""
"null","<div style=""color:white; font-size:60px;"">+</div>","null","html-keyboard-response","73","168399","0.0-6.0-0.31","fixation","","","","",""
"1030.1450000042678","Stimuli/Hangul_F14.bmp","190","image-keyboard-response","74","169430","0.0-6.0-1.31","test",".","",".","",""
"null","<div style=""color:white; font-size:60px;"">+</div>","null","html-keyboard-response","75","170433","0.0-6.0-0.32","fixation","","","","",""
"1034.525000002759","Stimuli/Hangul_F7.bmp","188","image-keyboard-response","76","171468","0.0-6.0-1.32","test",".","",",","",""
"null","<div style=""color:white; font-size:60px;"">+</div>","null","html-keyboard-response","77","172470","0.0-6.0-0.33","fixation","","","","",""
"1020.8149999962188","Stimuli/Hangul_F23.bmp","188","image-keyboard-response","78","173492","0.0-6.0-1.33","test",".","",",","",""
"null","<div style=""color:white; font-size:60px;"">+</div>","null","html-keyboard-response","79","174501","0.0-6.0-0.34","fixation","","","","",""
"1074.0200000000186","Stimuli/Hangul_M24.bmp","190","image-keyboard-response","80","175576","0.0-6.0-1.34","test",",","",".","",""
"null","<div style=""color:white; font-size:60px;"">+</div>","null","html-keyboard-response","81","176579","0.0-6.0-0.35","fixation","","","","",""
"1070.079999997688","Stimuli/Hangul_F0.bmp","190","image-keyboard-response","82","177651","0.0-6.0-1.35","test",".","",".","",""
"null","<div style=""color:white; font-size:60px;"">+</div>","null","html-keyboard-response","83","178653","0.0-6.0-0.36","fixation","","","","",""
"1032.839999999851","Stimuli/Hangul_M10.bmp","188","image-keyboard-response","84","179687","0.0-6.0-1.36","test",",","",",","",""
"null","<div style=""color:white; font-size:60px;"">+</div>","null","html-keyboard-response","85","180691","0.0-6.0-0.37","fixation","","","","",""
"984.1400000004796","Stimuli/Hangul_F19.bmp","188","image-keyboard-response","86","181676","0.0-6.0-1.37","test",".","",",","",""
"null","<div style=""color:white; font-size:60px;"">+</div>","null","html-keyboard-response","87","182679","0.0-6.0-0.38","fixation","","","","",""
"964.2749999984517","Stimuli/Hangul_M21.bmp","190","image-keyboard-response","88","183646","0.0-6.0-1.38","test",",","",".","",""
"null","<div style=""color:white; font-size:60px;"">+</div>","null","html-keyboard-response","89","184647","0.0-6.0-0.39","fixation","","","","",""
"1083.4350000004633","Stimuli/Hangul_M11.bmp","190","image-keyboard-response","90","185732","0.0-6.0-1.39","test",",","",".","",""
"null","<div style=""color:white; font-size:60px;"">+</div>","null","html-keyboard-response","91","186734","0.0-6.0-0.40","fixation","","","","",""
"1023.5699999975623","Stimuli/Hangul_M19.bmp","190","image-keyboard-response","92","187758","0.0-6.0-1.40","test",",","",".","",""
"null","<div style=""color:white; font-size:60px;"">+</div>","null","html-keyboard-response","93","188760","0.0-6.0-0.41","fixation","","","","",""
"1387.6149999996414","Stimuli/Hangul_F16.bmp","188","image-keyboard-response","94","190149","0.0-6.0-1.41","test",".","",",","",""
"null","<div style=""color:white; font-size:60px;"">+</div>","null","html-keyboard-response","95","191151","0.0-6.0-0.42","fixation","","","","",""
"1092.754999997851","Stimuli/Hangul_F20.bmp","190","image-keyboard-response","96","192244","0.0-6.0-1.42","test",".","",".","",""
"null","<div style=""color:white; font-size:60px;"">+</div>","null","html-keyboard-response","97","193246","0.0-6.0-0.43","fixation","","","","",""
"1097.4999999962165","Stimuli/Hangul_F4.bmp","190","image-keyboard-response","98","194344","0.0-6.0-1.43","test",".","",".","",""
"null","<div style=""color:white; font-size:60px;"">+</div>","null","html-keyboard-response","99","195346","0.0-6.0-0.44","fixation","","","","",""
"1033.0949999988661","Stimuli/Hangul_M14.bmp","190","image-keyboard-response","100","196382","0.0-6.0-1.44","test",",","",".","",""
"null","<div style=""color:white; font-size:60px;"">+</div>","null","html-keyboard-response","101","197383","0.0-6.0-0.45","fixation","","","","",""
"1196.5950000012526","Stimuli/Hangul_M2.bmp","188","image-keyboard-response","102","198580","0.0-6.0-1.45","test",",","",",","",""
"null","<div style=""color:white; font-size:60px;"">+</div>","null","html-keyboard-response","103","199582","0.0-6.0-0.46","fixation","","","","",""
"1060.844999999972","Stimuli/Hangul_F17.bmp","188","image-keyboard-response","104","200644","0.0-6.0-1.46","test",".","",",","",""
"null","<div style=""color:white; font-size:60px;"">+</div>","null","html-keyboard-response","105","201645","0.0-6.0-0.47","fixation","","","","",""
"1117.5149999980931","Stimuli/Hangul_M7.bmp","190","image-keyboard-response","106","202763","0.0-6.0-1.47","test",",","",".","",""
"null","<div style=""color:white; font-size:60px;"">+</div>","null","html-keyboard-response","107","203765","0.0-6.0-0.48","fixation","","","","",""
"1172.1699999980046","Stimuli/Hangul_M16.bmp","190","image-keyboard-response","108","204939","0.0-6.0-1.48","test",",","",".","",""
"null","<div style=""color:white; font-size:60px;"">+</div>","null","html-keyboard-response","109","205940","0.0-6.0-0.49","fixation","","","","",""
"1086.250000000291","Stimuli/Hangul_F18.bmp","188","image-keyboard-response","110","207027","0.0-6.0-1.49","test",".","",",","",""
"2209.1550000041025","<p style=""color:white;"">Good job, block 1 complete! Please take a moment to rest.</p> <p style=""color:white;"">When you are ready to continue with block 2 of 4, press the space bar.</p> ","32","html-keyboard-response","111","209238","0.0-7.0","","","","","",""
"null","<div style=""color:white; font-size:60px;"">+</div>","null","html-keyboard-response","112","212240","0.0-8.0-0.0","fixation","","","","",""
"1161.9100000025355","Stimuli/Hangul_M44.bmp","188","image-keyboard-response","113","213404","0.0-8.0-1.0","test",",","",",","",""
"null","<div style=""color:white; font-size:60px;"">+</div>","null","html-keyboard-response","114","214406","0.0-8.0-0.1","fixation","","","","",""
"1203.959999998915","Stimuli/Hangul_M42.bmp","188","image-keyboard-response","115","215611","0.0-8.0-1.1","test",",","",",","",""
"null","<div style=""color:white; font-size:60px;"">+</div>","null","html-keyboard-response","116","216614","0.0-8.0-0.2","fixation","","","","",""
"1109.1050000031828","Stimuli/Hangul_F28.bmp","190","image-keyboard-response","117","217724","0.0-8.0-1.2","test",".","",".","",""
"null","<div style=""color:white; font-size:60px;"">+</div>","null","html-keyboard-response","118","218726","0.0-8.0-0.3","fixation","","","","",""
"1085.6300000014016","Stimuli/Hangul_F37.bmp","190","image-keyboard-response","119","219812","0.0-8.0-1.3","test",".","",".","",""
"null","<div style=""color:white; font-size:60px;"">+</div>","null","html-keyboard-response","120","220813","0.0-8.0-0.4","fixation","","","","",""
"1060.6000000043423","Stimuli/Hangul_M37.bmp","190","image-keyboard-response","121","221876","0.0-8.0-1.4","test",",","",".","",""
"null","<div style=""color:white; font-size:60px;"">+</div>","null","html-keyboard-response","122","222877","0.0-8.0-0.5","fixation","","","","",""
"1012.6900000032037","Stimuli/Hangul_F36.bmp","188","image-keyboard-response","123","223892","0.0-8.0-1.5","test",".","",",","",""
"null","<div style=""color:white; font-size:60px;"">+</div>","null","html-keyboard-response","124","224894","0.0-8.0-0.6","fixation","","","","",""
"1073.0400000029476","Stimuli/Hangul_F44.bmp","190","image-keyboard-response","125","225969","0.0-8.0-1.6","test",".","",".","",""
"null","<div style=""color:white; font-size:60px;"">+</div>","null","html-keyboard-response","126","226971","0.0-8.0-0.7","fixation","","","","",""
"1104.3050000007497","Stimuli/Hangul_M46.bmp","188","image-keyboard-response","127","228076","0.0-8.0-1.7","test",",","",",","",""
"null","<div style=""color:white; font-size:60px;"">+</div>","null","html-keyboard-response","128","229078","0.0-8.0-0.8","fixation","","","","",""
"1127.0749999966938","Stimuli/Hangul_M28.bmp","188","image-keyboard-response","129","230206","0.0-8.0-1.8","test",",","",",","",""
"null","<div style=""color:white; font-size:60px;"">+</div>","null","html-keyboard-response","130","231207","0.0-8.0-0.9","fixation","","","","",""
"1083.985000004759","Stimuli/Hangul_M35.bmp","188","image-keyboard-response","131","232292","0.0-8.0-1.9","test",",","",",","",""
"null","<div style=""color:white; font-size:60px;"">+</div>","null","html-keyboard-response","132","233294","0.0-8.0-0.10","fixation","","","","",""
"1053.3550000036485","Stimuli/Hangul_M26.bmp","188","image-keyboard-response","133","234348","0.0-8.0-1.10","test",",","",",","",""
"null","<div style=""color:white; font-size:60px;"">+</div>","null","html-keyboard-response","134","235350","0.0-8.0-0.11","fixation","","","","",""
"1157.5549999979557","Stimuli/Hangul_M43.bmp","188","image-keyboard-response","135","236508","0.0-8.0-1.11","test",",","",",","",""
"null","<div style=""color:white; font-size:60px;"">+</div>","null","html-keyboard-response","136","237510","0.0-8.0-0.12","fixation","","","","",""
"1061.345000001893","Stimuli/Hangul_M38.bmp","190","image-keyboard-response","137","238572","0.0-8.0-1.12","test",",","",".","",""
"null","<div style=""color:white; font-size:60px;"">+</div>","null","html-keyboard-response","138","239574","0.0-8.0-0.13","fixation","","","","",""
"1038.1150000030175","Stimuli/Hangul_M45.bmp","190","image-keyboard-response","139","240613","0.0-8.0-1.13","test",",","",".","",""
"null","<div style=""color:white; font-size:60px;"">+</div>","null","html-keyboard-response","140","241615","0.0-8.0-0.14","fixation","","","","",""
"1078.974999996717","Stimuli/Hangul_F35.bmp","190","image-keyboard-response","141","242695","0.0-8.0-1.14","test",".","",".","",""
"null","<div style=""color:white; font-size:60px;"">+</div>","null","html-keyboard-response","142","243697","0.0-8.0-0.15","fixation","","","","",""
"1052.3450000036974","Stimuli/Hangul_F26.bmp","188","image-keyboard-response","143","244752","0.0-8.0-1.15","test",".","",",","",""
"null","<div style=""color:white; font-size:60px;"">+</div>","null","html-keyboard-response","144","245754","0.0-8.0-0.16","fixation","","","","",""
"1155.399999996007","Stimuli/Hangul_F46.bmp","190","image-keyboard-response","145","246911","0.0-8.0-1.16","test",".","",".","",""
"null","<div style=""color:white; font-size:60px;"">+</div>","null","html-keyboard-response","146","247912","0.0-8.0-0.17","fixation","","","","",""
"1054.0800000017043","Stimuli/Hangul_M29.bmp","190","image-keyboard-response","147","248968","0.0-8.0-1.17","test",",","",".","",""
"null","<div style=""color:white; font-size:60px;"">+</div>","null","html-keyboard-response","148","249969","0.0-8.0-0.18","fixation","","","","",""
"1123.3100000026752","Stimuli/Hangul_F27.bmp","190","image-keyboard-response","149","251093","0.0-8.0-1.18","test",".","",".","",""
"null","<div style=""color:white; font-size:60px;"">+</div>","null","html-keyboard-response","150","252094","0.0-8.0-0.19","fixation","","","","",""
"1030.8399999994435","Stimuli/Hangul_M36.bmp","188","image-keyboard-response","151","253126","0.0-8.0-1.19","test",",","",",","",""
"null","<div style=""color:white; font-size:60px;"">+</div>","null","html-keyboard-response","152","254128","0.0-8.0-0.20","fixation","","","","",""
"1126.604999997653","Stimuli/Hangul_M39.bmp","190","image-keyboard-response","153","255256","0.0-8.0-1.20","test",",","",".","",""
"null","<div style=""color:white; font-size:60px;"">+</div>","null","html-keyboard-response","154","256257","0.0-8.0-0.21","fixation","","","","",""
"1321.0800000015297","Stimuli/Hangul_M41.bmp","190","image-keyboard-response","155","257580","0.0-8.0-1.21","test",",","",".","",""
"null","<div style=""color:white; font-size:60px;"">+</div>","null","html-keyboard-response","156","258582","0.0-8.0-0.22","fixation","","","","",""
"1180.5099999983213","Stimuli/Hangul_F38.bmp","188","image-keyboard-response","157","259764","0.0-8.0-1.22","test",".","",",","",""
"null","<div style=""color:white; font-size:60px;"">+</div>","null","html-keyboard-response","158","260766","0.0-8.0-0.23","fixation","","","","",""
"1169.0949999974691","Stimuli/Hangul_M33.bmp","190","image-keyboard-response","159","261936","0.0-8.0-1.23","test",",","",".","",""
"null","<div style=""color:white; font-size:60px;"">+</div>","null","html-keyboard-response","160","262937","0.0-8.0-0.24","fixation","","","","",""
"1041.1449999955948","Stimuli/Hangul_F47.bmp","190","image-keyboard-response","161","263980","0.0-8.0-1.24","test",".","",".","",""
"null","<div style=""color:white; font-size:60px;"">+</div>","null","html-keyboard-response","162","264981","0.0-8.0-0.25","fixation","","","","",""
"1053.6449999999604","Stimuli/Hangul_F31.bmp","188","image-keyboard-response","163","266036","0.0-8.0-1.25","test",".","",",","",""
"null","<div style=""color:white; font-size:60px;"">+</div>","null","html-keyboard-response","164","267038","0.0-8.0-0.26","fixation","","","","",""
"1020.9600000016508","Stimuli/Hangul_F39.bmp","188","image-keyboard-response","165","268059","0.0-8.0-1.26","test",".","",",","",""
"null","<div style=""color:white; font-size:60px;"">+</div>","null","html-keyboard-response","166","269061","0.0-8.0-0.27","fixation","","","","",""
"1080.8600000018487","Stimuli/Hangul_F48.bmp","188","image-keyboard-response","167","270142","0.0-8.0-1.27","test",".","",",","",""
"null","<div style=""color:white; font-size:60px;"">+</div>","null","html-keyboard-response","168","271144","0.0-8.0-0.28","fixation","","","","",""
"1090.729999996256","Stimuli/Hangul_M34.bmp","190","image-keyboard-response","169","272236","0.0-8.0-1.28","test",",","",".","",""
"null","<div style=""color:white; font-size:60px;"">+</div>","null","html-keyboard-response","170","273238","0.0-8.0-0.29","fixation","","","","",""
"1804.6850000027916","Stimuli/Hangul_M49.bmp","190","image-keyboard-response","171","275043","0.0-8.0-1.29","test",",","",".","",""
"null","<div style=""color:white; font-size:60px;"">+</div>","null","html-keyboard-response","172","276045","0.0-8.0-0.30","fixation","","","","",""
"1196.1750000045868","Stimuli/Hangul_F45.bmp","190","image-keyboard-response","173","277242","0.0-8.0-1.30","test",".","",".","",""
"null","<div style=""color:white; font-size:60px;"">+</div>","null","html-keyboard-response","174","278245","0.0-8.0-0.31","fixation","","","","",""
"1221.5849999993225","Stimuli/Hangul_F49.bmp","188","image-keyboard-response","175","279467","0.0-8.0-1.31","test",".","",",","",""
"null","<div style=""color:white; font-size:60px;"">+</div>","null","html-keyboard-response","176","280469","0.0-8.0-0.32","fixation","","","","",""
"1244.2450000016834","Stimuli/Hangul_F41.bmp","188","image-keyboard-response","177","281715","0.0-8.0-1.32","test",".","",",","",""
"null","<div style=""color:white; font-size:60px;"">+</div>","null","html-keyboard-response","178","282716","0.0-8.0-0.33","fixation","","","","",""
"1248.2149999996182","Stimuli/Hangul_M32.bmp","190","image-keyboard-response","179","283966","0.0-8.0-1.33","test",",","",".","",""
"null","<div style=""color:white; font-size:60px;"">+</div>","null","html-keyboard-response","180","284967","0.0-8.0-0.34","fixation","","","","",""
"1131.5649999960442","Stimuli/Hangul_F33.bmp","190","image-keyboard-response","181","286100","0.0-8.0-1.34","test",".","",".","",""
"null","<div style=""color:white; font-size:60px;"">+</div>","null","html-keyboard-response","182","287102","0.0-8.0-0.35","fixation","","","","",""
"1036.6099999955622","Stimuli/Hangul_F42.bmp","188","image-keyboard-response","183","288140","0.0-8.0-1.35","test",".","",",","",""
"null","<div style=""color:white; font-size:60px;"">+</div>","null","html-keyboard-response","184","289141","0.0-8.0-0.36","fixation","","","","",""
"1037.3150000013993","Stimuli/Hangul_F30.bmp","188","image-keyboard-response","185","290180","0.0-8.0-1.36","test",".","",",","",""
"null","<div style=""color:white; font-size:60px;"">+</div>","null","html-keyboard-response","186","291182","0.0-8.0-0.37","fixation","","","","",""
"1182.0750000042608","Stimuli/Hangul_F34.bmp","188","image-keyboard-response","187","292365","0.0-8.0-1.37","test",".","",",","",""
"null","<div style=""color:white; font-size:60px;"">+</div>","null","html-keyboard-response","188","293367","0.0-8.0-0.38","fixation","","","","",""
"1276.6350000019884","Stimuli/Hangul_M31.bmp","190","image-keyboard-response","189","294644","0.0-8.0-1.38","test",",","",".","",""
"null","<div style=""color:white; font-size:60px;"">+</div>","null","html-keyboard-response","190","295647","0.0-8.0-0.39","fixation","","","","",""
"1067.3549999992247","Stimuli/Hangul_M30.bmp","190","image-keyboard-response","191","296716","0.0-8.0-1.39","test",",","",".","",""
"null","<div style=""color:white; font-size:60px;"">+</div>","null","html-keyboard-response","192","297717","0.0-8.0-0.40","fixation","","","","",""
"1071.2150000035763","Stimuli/Hangul_F32.bmp","190","image-keyboard-response","193","298789","0.0-8.0-1.40","test",".","",".","",""
"null","<div style=""color:white; font-size:60px;"">+</div>","null","html-keyboard-response","194","299791","0.0-8.0-0.41","fixation","","","","",""
"1055.8549999987008","Stimuli/Hangul_F29.bmp","188","image-keyboard-response","195","300848","0.0-8.0-1.41","test",".","",",","",""
"null","<div style=""color:white; font-size:60px;"">+</div>","null","html-keyboard-response","196","301853","0.0-8.0-0.42","fixation","","","","",""
"1032.9450000062934","Stimuli/Hangul_M47.bmp","188","image-keyboard-response","197","302887","0.0-8.0-1.42","test",",","",",","",""
"null","<div style=""color:white; font-size:60px;"">+</div>","null","html-keyboard-response","198","303888","0.0-8.0-0.43","fixation","","","","",""
"959.5200000039767","Stimuli/Hangul_F25.bmp","190","image-keyboard-response","199","304849","0.0-8.0-1.43","test",".","",".","",""
"null","<div style=""color:white; font-size:60px;"">+</div>","null","html-keyboard-response","200","305851","0.0-8.0-0.44","fixation","","","","",""
"995.0150000004214","Stimuli/Hangul_M40.bmp","188","image-keyboard-response","201","306848","0.0-8.0-1.44","test",",","",",","",""
"null","<div style=""color:white; font-size:60px;"">+</div>","null","html-keyboard-response","202","307849","0.0-8.0-0.45","fixation","","","","",""
"945.625000000291","Stimuli/Hangul_M27.bmp","190","image-keyboard-response","203","308795","0.0-8.0-1.45","test",",","",".","",""
"null","<div style=""color:white; font-size:60px;"">+</div>","null","html-keyboard-response","204","309796","0.0-8.0-0.46","fixation","","","","",""
"1232.6850000026752","Stimuli/Hangul_M48.bmp","188","image-keyboard-response","205","311029","0.0-8.0-1.46","test",",","",",","",""
"null","<div style=""color:white; font-size:60px;"">+</div>","null","html-keyboard-response","206","312031","0.0-8.0-0.47","fixation","","","","",""
"1235.5200000019977","Stimuli/Hangul_F43.bmp","188","image-keyboard-response","207","313267","0.0-8.0-1.47","test",".","",",","",""
"null","<div style=""color:white; font-size:60px;"">+</div>","null","html-keyboard-response","208","314269","0.0-8.0-0.48","fixation","","","","",""
"1246.274999997695","Stimuli/Hangul_M25.bmp","190","image-keyboard-response","209","315517","0.0-8.0-1.48","test",",","",".","",""
"null","<div style=""color:white; font-size:60px;"">+</div>","null","html-keyboard-response","210","316519","0.0-8.0-0.49","fixation","","","","",""
"1508.9899999948102","Stimuli/Hangul_F40.bmp","188","image-keyboard-response","211","318030","0.0-8.0-1.49","test",".","",",","",""
"5883.979999998701","<p style=""color:white;"">Half way there! Please take a moment to rest.</p> <p style=""color:white;"">When you are ready to continue with block 3 of 4, press the space bar.</p> ","32","html-keyboard-response","212","323915","0.0-9.0","","","","","",""
"null","<div style=""color:white; font-size:60px;"">+</div>","null","html-keyboard-response","213","326921","0.0-10.0-0.0","fixation","","","","",""
"1209.7999999969034","Stimuli/Hangul_M68.bmp","188","image-keyboard-response","214","328133","0.0-10.0-1.0","test",",","",",","",""
"null","<div style=""color:white; font-size:60px;"">+</div>","null","html-keyboard-response","215","329135","0.0-10.0-0.1","fixation","","","","",""
"1179.070000005595","Stimuli/Hangul_F69.bmp","190","image-keyboard-response","216","330315","0.0-10.0-1.1","test",".","",".","",""
"null","<div style=""color:white; font-size:60px;"">+</div>","null","html-keyboard-response","217","331316","0.0-10.0-0.2","fixation","","","","",""
"1062.565000000177","Stimuli/Hangul_F50.bmp","190","image-keyboard-response","218","332379","0.0-10.0-1.2","test",".","",".","",""
"null","<div style=""color:white; font-size:60px;"">+</div>","null","html-keyboard-response","219","333381","0.0-10.0-0.3","fixation","","","","",""
"1084.8100000002887","Stimuli/Hangul_M70.bmp","190","image-keyboard-response","220","334467","0.0-10.0-1.3","test",",","",".","",""
"null","<div style=""color:white; font-size:60px;"">+</div>","null","html-keyboard-response","221","335469","0.0-10.0-0.4","fixation","","","","",""
"1093.8999999998487","Stimuli/Hangul_F55.bmp","188","image-keyboard-response","222","336565","0.0-10.0-1.4","test",".","",",","",""
"null","<div style=""color:white; font-size:60px;"">+</div>","null","html-keyboard-response","223","337566","0.0-10.0-0.5","fixation","","","","",""
"1161.2899999963702","Stimuli/Hangul_M67.bmp","188","image-keyboard-response","224","338728","0.0-10.0-1.5","test",",","",",","",""
"null","<div style=""color:white; font-size:60px;"">+</div>","null","html-keyboard-response","225","339729","0.0-10.0-0.6","fixation","","","","",""
"1161.0900000014226","Stimuli/Hangul_F70.bmp","190","image-keyboard-response","226","340891","0.0-10.0-1.6","test",".","",".","",""
"null","<div style=""color:white; font-size:60px;"">+</div>","null","html-keyboard-response","227","341892","0.0-10.0-0.7","fixation","","","","",""
"1069.5550000018557","Stimuli/Hangul_F54.bmp","190","image-keyboard-response","228","342963","0.0-10.0-1.7","test",".","",".","",""
"null","<div style=""color:white; font-size:60px;"">+</div>","null","html-keyboard-response","229","343965","0.0-10.0-0.8","fixation","","","","",""
"1109.2900000003283","Stimuli/Hangul_F74.bmp","190","image-keyboard-response","230","345078","0.0-10.0-1.8","test",".","",".","",""
"null","<div style=""color:white; font-size:60px;"">+</div>","null","html-keyboard-response","231","346079","0.0-10.0-0.9","fixation","","","","",""
"1060.3900000060094","Stimuli/Hangul_M51.bmp","188","image-keyboard-response","232","347141","0.0-10.0-1.9","test",",","",",","",""
"null","<div style=""color:white; font-size:60px;"">+</div>","null","html-keyboard-response","233","348143","0.0-10.0-0.10","fixation","","","","",""
"1309.1399999975692","Stimuli/Hangul_M54.bmp","190","image-keyboard-response","234","349453","0.0-10.0-1.10","test",",","",".","",""
"null","<div style=""color:white; font-size:60px;"">+</div>","null","html-keyboard-response","235","350455","0.0-10.0-0.11","fixation","","","","",""
"1252.8300000049057","Stimuli/Hangul_F53.bmp","188","image-keyboard-response","236","351709","0.0-10.0-1.11","test",".","",",","",""
"null","<div style=""color:white; font-size:60px;"">+</div>","null","html-keyboard-response","237","352712","0.0-10.0-0.12","fixation","","","","",""
"1067.94500000251","Stimuli/Hangul_F58.bmp","190","image-keyboard-response","238","353781","0.0-10.0-1.12","test",".","",".","",""
"null","<div style=""color:white; font-size:60px;"">+</div>","null","html-keyboard-response","239","354783","0.0-10.0-0.13","fixation","","","","",""
"1108.8400000007823","Stimuli/Hangul_F56.bmp","188","image-keyboard-response","240","355893","0.0-10.0-1.13","test",".","",",","",""
"null","<div style=""color:white; font-size:60px;"">+</div>","null","html-keyboard-response","241","356894","0.0-10.0-0.14","fixation","","","","",""
"1173.8100000002305","Stimuli/Hangul_M61.bmp","188","image-keyboard-response","242","358068","0.0-10.0-1.14","test",",","",",","",""
"null","<div style=""color:white; font-size:60px;"">+</div>","null","html-keyboard-response","243","359070","0.0-10.0-0.15","fixation","","","","",""
"1351.3100000054692","Stimuli/Hangul_F68.bmp","190","image-keyboard-response","244","360422","0.0-10.0-1.15","test",".","",".","",""
"null","<div style=""color:white; font-size:60px;"">+</div>","null","html-keyboard-response","245","361424","0.0-10.0-0.16","fixation","","","","",""
"1811.6549999976996","Stimuli/Hangul_M58.bmp","190","image-keyboard-response","246","363236","0.0-10.0-1.16","test",",","",".","",""
"null","<div style=""color:white; font-size:60px;"">+</div>","null","html-keyboard-response","247","364238","0.0-10.0-0.17","fixation","","","","",""
"1917.3550000050454","Stimuli/Hangul_M74.bmp","188","image-keyboard-response","248","366156","0.0-10.0-1.17","test",",","",",","",""
"null","<div style=""color:white; font-size:60px;"">+</div>","null","html-keyboard-response","249","367158","0.0-10.0-0.18","fixation","","","","",""
"1093.7949999934062","Stimuli/Hangul_M53.bmp","188","image-keyboard-response","250","368254","0.0-10.0-1.18","test",",","",",","",""
"null","<div style=""color:white; font-size:60px;"">+</div>","null","html-keyboard-response","251","369256","0.0-10.0-0.19","fixation","","","","",""
"1424.940000004426","Stimuli/Hangul_F67.bmp","190","image-keyboard-response","252","370682","0.0-10.0-1.19","test",".","",".","",""
"null","<div style=""color:white; font-size:60px;"">+</div>","null","html-keyboard-response","253","371685","0.0-10.0-0.20","fixation","","","","",""
"1325.9600000019418","Stimuli/Hangul_F61.bmp","190","image-keyboard-response","254","373012","0.0-10.0-1.20","test",".","",".","",""
"null","<div style=""color:white; font-size:60px;"">+</div>","null","html-keyboard-response","255","374013","0.0-10.0-0.21","fixation","","","","",""
"1029.979999999341","Stimuli/Hangul_M56.bmp","188","image-keyboard-response","256","375044","0.0-10.0-1.21","test",",","",",","",""
"null","<div style=""color:white; font-size:60px;"">+</div>","null","html-keyboard-response","257","376046","0.0-10.0-0.22","fixation","","","","",""
"1061.569999998028","Stimuli/Hangul_F73.bmp","188","image-keyboard-response","258","377109","0.0-10.0-1.22","test",".","",",","",""
"null","<div style=""color:white; font-size:60px;"">+</div>","null","html-keyboard-response","259","378110","0.0-10.0-0.23","fixation","","","","",""
"1095.8350000000792","Stimuli/Hangul_M73.bmp","190","image-keyboard-response","260","379207","0.0-10.0-1.23","test",",","",".","",""
"null","<div style=""color:white; font-size:60px;"">+</div>","null","html-keyboard-response","261","380209","0.0-10.0-0.24","fixation","","","","",""
"1133.0349999989267","Stimuli/Hangul_M64.bmp","188","image-keyboard-response","262","381343","0.0-10.0-1.24","test",",","",",","",""
"null","<div style=""color:white; font-size:60px;"">+</div>","null","html-keyboard-response","263","382344","0.0-10.0-0.25","fixation","","","","",""
"1219.5649999994203","Stimuli/Hangul_M60.bmp","190","image-keyboard-response","264","383564","0.0-10.0-1.25","test",",","",".","",""
"null","<div style=""color:white; font-size:60px;"">+</div>","null","html-keyboard-response","265","384566","0.0-10.0-0.26","fixation","","","","",""
"1131.8949999986216","Stimuli/Hangul_M69.bmp","190","image-keyboard-response","266","385700","0.0-10.0-1.26","test",",","",".","",""
"null","<div style=""color:white; font-size:60px;"">+</div>","null","html-keyboard-response","267","386701","0.0-10.0-0.27","fixation","","","","",""
"1087.7800000016578","Stimuli/Hangul_F62.bmp","190","image-keyboard-response","268","387790","0.0-10.0-1.27","test",".","",".","",""
"null","<div style=""color:white; font-size:60px;"">+</div>","null","html-keyboard-response","269","388794","0.0-10.0-0.28","fixation","","","","",""
"1219.345000004978","Stimuli/Hangul_M50.bmp","188","image-keyboard-response","270","390015","0.0-10.0-1.28","test",",","",",","",""
"null","<div style=""color:white; font-size:60px;"">+</div>","null","html-keyboard-response","271","391017","0.0-10.0-0.29","fixation","","","","",""
"1052.429999996093","Stimuli/Hangul_F59.bmp","188","image-keyboard-response","272","392071","0.0-10.0-1.29","test",".","",",","",""
"null","<div style=""color:white; font-size:60px;"">+</div>","null","html-keyboard-response","273","393074","0.0-10.0-0.30","fixation","","","","",""
"1071.8699999997625","Stimuli/Hangul_M65.bmp","190","image-keyboard-response","274","394150","0.0-10.0-1.30","test",",","",".","",""
"null","<div style=""color:white; font-size:60px;"">+</div>","null","html-keyboard-response","275","395151","0.0-10.0-0.31","fixation","","","","",""
"1083.7200000023586","Stimuli/Hangul_F57.bmp","188","image-keyboard-response","276","396235","0.0-10.0-1.31","test",".","",",","",""
"null","<div style=""color:white; font-size:60px;"">+</div>","null","html-keyboard-response","277","397238","0.0-10.0-0.32","fixation","","","","",""
"1133.7449999991804","Stimuli/Hangul_F72.bmp","190","image-keyboard-response","278","398372","0.0-10.0-1.32","test",".","",".","",""
"null","<div style=""color:white; font-size:60px;"">+</div>","null","html-keyboard-response","279","399373","0.0-10.0-0.33","fixation","","","","",""
"1015.7150000013644","Stimuli/Hangul_M72.bmp","188","image-keyboard-response","280","400390","0.0-10.0-1.33","test",",","",",","",""
"null","<div style=""color:white; font-size:60px;"">+</div>","null","html-keyboard-response","281","401391","0.0-10.0-0.34","fixation","","","","",""
"1100.2599999992526","Stimuli/Hangul_F60.bmp","190","image-keyboard-response","282","402492","0.0-10.0-1.34","test",".","",".","",""
"null","<div style=""color:white; font-size:60px;"">+</div>","null","html-keyboard-response","283","403494","0.0-10.0-0.35","fixation","","","","",""
"1148.029999996652","Stimuli/Hangul_F71.bmp","188","image-keyboard-response","284","404644","0.0-10.0-1.35","test",".","",",","",""
"null","<div style=""color:white; font-size:60px;"">+</div>","null","html-keyboard-response","285","405646","0.0-10.0-0.36","fixation","","","","",""
"1125.0049999944167","Stimuli/Hangul_F66.bmp","190","image-keyboard-response","286","406772","0.0-10.0-1.36","test",".","",".","",""
"null","<div style=""color:white; font-size:60px;"">+</div>","null","html-keyboard-response","287","407773","0.0-10.0-0.37","fixation","","","","",""
"1134.8149999976158","Stimuli/Hangul_M57.bmp","190","image-keyboard-response","288","408909","0.0-10.0-1.37","test",",","",".","",""
"null","<div style=""color:white; font-size:60px;"">+</div>","null","html-keyboard-response","289","409910","0.0-10.0-0.38","fixation","","","","",""
"1092.5350000034086","Stimuli/Hangul_F51.bmp","188","image-keyboard-response","290","411004","0.0-10.0-1.38","test",".","",",","",""
"null","<div style=""color:white; font-size:60px;"">+</div>","null","html-keyboard-response","291","412005","0.0-10.0-0.39","fixation","","","","",""
"1135.4649999993853","Stimuli/Hangul_F52.bmp","190","image-keyboard-response","292","413142","0.0-10.0-1.39","test",".","",".","",""
"null","<div style=""color:white; font-size:60px;"">+</div>","null","html-keyboard-response","293","414144","0.0-10.0-0.40","fixation","","","","",""
"1144.189999999071","Stimuli/Hangul_M63.bmp","188","image-keyboard-response","294","415289","0.0-10.0-1.40","test",",","",",","",""
"null","<div style=""color:white; font-size:60px;"">+</div>","null","html-keyboard-response","295","416291","0.0-10.0-0.41","fixation","","","","",""
"1056.3400000028196","Stimuli/Hangul_M71.bmp","190","image-keyboard-response","296","417348","0.0-10.0-1.41","test",",","",".","",""
"null","<div style=""color:white; font-size:60px;"">+</div>","null","html-keyboard-response","297","418350","0.0-10.0-0.42","fixation","","","","",""
"996.980000003532","Stimuli/Hangul_F65.bmp","190","image-keyboard-response","298","419348","0.0-10.0-1.42","test",".","",".","",""
"null","<div style=""color:white; font-size:60px;"">+</div>","null","html-keyboard-response","299","420349","0.0-10.0-0.43","fixation","","","","",""
"1095.1449999993201","Stimuli/Hangul_F64.bmp","188","image-keyboard-response","300","421445","0.0-10.0-1.43","test",".","",",","",""
"null","<div style=""color:white; font-size:60px;"">+</div>","null","html-keyboard-response","301","422448","0.0-10.0-0.44","fixation","","","","",""
"1099.434999996447","Stimuli/Hangul_M62.bmp","190","image-keyboard-response","302","423548","0.0-10.0-1.44","test",",","",".","",""
"null","<div style=""color:white; font-size:60px;"">+</div>","null","html-keyboard-response","303","424551","0.0-10.0-0.45","fixation","","","","",""
"1135.7050000005984","Stimuli/Hangul_M55.bmp","188","image-keyboard-response","304","425687","0.0-10.0-1.45","test",",","",",","",""
"null","<div style=""color:white; font-size:60px;"">+</div>","null","html-keyboard-response","305","426689","0.0-10.0-0.46","fixation","","","","",""
"1141.3449999963632","Stimuli/Hangul_F63.bmp","188","image-keyboard-response","306","427832","0.0-10.0-1.46","test",".","",",","",""
"null","<div style=""color:white; font-size:60px;"">+</div>","null","html-keyboard-response","307","428833","0.0-10.0-0.47","fixation","","","","",""
"1089.5950000049197","Stimuli/Hangul_M66.bmp","188","image-keyboard-response","308","429924","0.0-10.0-1.47","test",",","",",","",""
"null","<div style=""color:white; font-size:60px;"">+</div>","null","html-keyboard-response","309","430925","0.0-10.0-0.48","fixation","","","","",""
"1085.4550000003655","Stimuli/Hangul_M52.bmp","190","image-keyboard-response","310","432012","0.0-10.0-1.48","test",",","",".","",""
"null","<div style=""color:white; font-size:60px;"">+</div>","null","html-keyboard-response","311","433013","0.0-10.0-0.49","fixation","","","","",""
"1038.4350000022096","Stimuli/Hangul_M59.bmp","190","image-keyboard-response","312","434054","0.0-10.0-1.49","test",",","",".","",""
"2238.1600000007893","<p style=""color:white;"">One more block to go! Please take a moment to rest.</p> <p style=""color:white;"">When you are ready to continue with block 4 of 4, press the space bar.</p> ","32","html-keyboard-response","313","436293","0.0-11.0","","","","","",""
"null","<div style=""color:white; font-size:60px;"">+</div>","null","html-keyboard-response","314","439296","0.0-12.0-0.0","fixation","","","","",""
"1232.704999994894","Stimuli/Hangul_F93.bmp","188","image-keyboard-response","315","440531","0.0-12.0-1.0","test",".","",",","",""
"null","<div style=""color:white; font-size:60px;"">+</div>","null","html-keyboard-response","316","441535","0.0-12.0-0.1","fixation","","","","",""
"1142.9100000023027","Stimuli/Hangul_F79.bmp","188","image-keyboard-response","317","442679","0.0-12.0-1.1","test",".","",",","",""
"null","<div style=""color:white; font-size:60px;"">+</div>","null","html-keyboard-response","318","443681","0.0-12.0-0.2","fixation","","","","",""
"1040.5400000017835","Stimuli/Hangul_F91.bmp","190","image-keyboard-response","319","444723","0.0-12.0-1.2","test",".","",".","",""
"null","<div style=""color:white; font-size:60px;"">+</div>","null","html-keyboard-response","320","445724","0.0-12.0-0.3","fixation","","","","",""
"1142.5400000007357","Stimuli/Hangul_M75.bmp","190","image-keyboard-response","321","446867","0.0-12.0-1.3","test",",","",".","",""
"null","<div style=""color:white; font-size:60px;"">+</div>","null","html-keyboard-response","322","447870","0.0-12.0-0.4","fixation","","","","",""
"1015.4699999984587","Stimuli/Hangul_F96.bmp","190","image-keyboard-response","323","448887","0.0-12.0-1.4","test",".","",".","",""
"null","<div style=""color:white; font-size:60px;"">+</div>","null","html-keyboard-response","324","449889","0.0-12.0-0.5","fixation","","","","",""
"1073.4899999952177","Stimuli/Hangul_F97.bmp","188","image-keyboard-response","325","450963","0.0-12.0-1.5","test",".","",",","",""
"null","<div style=""color:white; font-size:60px;"">+</div>","null","html-keyboard-response","326","451964","0.0-12.0-0.6","fixation","","","","",""
"1045.639999996638","Stimuli/Hangul_F95.bmp","188","image-keyboard-response","327","453011","0.0-12.0-1.6","test",".","",",","",""
"null","<div style=""color:white; font-size:60px;"">+</div>","null","html-keyboard-response","328","454013","0.0-12.0-0.7","fixation","","","","",""
"1114.9250000016764","Stimuli/Hangul_F78.bmp","190","image-keyboard-response","329","455129","0.0-12.0-1.7","test",".","",".","",""
"null","<div style=""color:white; font-size:60px;"">+</div>","null","html-keyboard-response","330","456131","0.0-12.0-0.8","fixation","","","","",""
"1087.744999997085","Stimuli/Hangul_M97.bmp","190","image-keyboard-response","331","457220","0.0-12.0-1.8","test",",","",".","",""
"null","<div style=""color:white; font-size:60px;"">+</div>","null","html-keyboard-response","332","458222","0.0-12.0-0.9","fixation","","","","",""
"1155.6449999989127","Stimuli/Hangul_M92.bmp","188","image-keyboard-response","333","459380","0.0-12.0-1.9","test",",","",",","",""
"null","<div style=""color:white; font-size:60px;"">+</div>","null","html-keyboard-response","334","460381","0.0-12.0-0.10","fixation","","","","",""
"996.3749999951688","Stimuli/Hangul_F80.bmp","190","image-keyboard-response","335","461379","0.0-12.0-1.10","test",".","",".","",""
"null","<div style=""color:white; font-size:60px;"">+</div>","null","html-keyboard-response","336","462380","0.0-12.0-0.11","fixation","","","","",""
"1093.7249999988126","Stimuli/Hangul_F83.bmp","188","image-keyboard-response","337","463475","0.0-12.0-1.11","test",".","",",","",""
"null","<div style=""color:white; font-size:60px;"">+</div>","null","html-keyboard-response","338","464478","0.0-12.0-0.12","fixation","","","","",""
"1078.9700000023004","Stimuli/Hangul_M84.bmp","188","image-keyboard-response","339","465558","0.0-12.0-1.12","test",",","",",","",""
"null","<div style=""color:white; font-size:60px;"">+</div>","null","html-keyboard-response","340","466560","0.0-12.0-0.13","fixation","","","","",""
"1091.7049999989104","Stimuli/Hangul_F90.bmp","190","image-keyboard-response","341","467652","0.0-12.0-1.13","test",".","",".","",""
"null","<div style=""color:white; font-size:60px;"">+</div>","null","html-keyboard-response","342","468656","0.0-12.0-0.14","fixation","","","","",""
"1160.3800000011688","Stimuli/Hangul_M81.bmp","188","image-keyboard-response","343","469820","0.0-12.0-1.14","test",",","",",","",""
"null","<div style=""color:white; font-size:60px;"">+</div>","null","html-keyboard-response","344","470821","0.0-12.0-0.15","fixation","","","","",""
"1094.2050000012387","Stimuli/Hangul_M82.bmp","190","image-keyboard-response","345","471916","0.0-12.0-1.15","test",",","",".","",""
"null","<div style=""color:white; font-size:60px;"">+</div>","null","html-keyboard-response","346","472918","0.0-12.0-0.16","fixation","","","","",""
"1157.325000000128","Stimuli/Hangul_M88.bmp","188","image-keyboard-response","347","474077","0.0-12.0-1.16","test",",","",",","",""
"null","<div style=""color:white; font-size:60px;"">+</div>","null","html-keyboard-response","348","475078","0.0-12.0-0.17","fixation","","","","",""
"1041.8099999951664","Stimuli/Hangul_F76.bmp","190","image-keyboard-response","349","476121","0.0-12.0-1.17","test",".","",".","",""
"null","<div style=""color:white; font-size:60px;"">+</div>","null","html-keyboard-response","350","477123","0.0-12.0-0.18","fixation","","","","",""
"1150.6200000003446","Stimuli/Hangul_F86.bmp","190","image-keyboard-response","351","478274","0.0-12.0-1.18","test",".","",".","",""
"null","<div style=""color:white; font-size:60px;"">+</div>","null","html-keyboard-response","352","479276","0.0-12.0-0.19","fixation","","","","",""
"1141.750000002503","Stimuli/Hangul_M77.bmp","188","image-keyboard-response","353","480420","0.0-12.0-1.19","test",",","",",","",""
"null","<div style=""color:white; font-size:60px;"">+</div>","null","html-keyboard-response","354","481422","0.0-12.0-0.20","fixation","","","","",""
"1076.8449999959557","Stimuli/Hangul_M93.bmp","188","image-keyboard-response","355","482501","0.0-12.0-1.20","test",",","",",","",""
"null","<div style=""color:white; font-size:60px;"">+</div>","null","html-keyboard-response","356","483502","0.0-12.0-0.21","fixation","","","","",""
"1085.465000003751","Stimuli/Hangul_F92.bmp","190","image-keyboard-response","357","484588","0.0-12.0-1.21","test",".","",".","",""
"null","<div style=""color:white; font-size:60px;"">+</div>","null","html-keyboard-response","358","485590","0.0-12.0-0.22","fixation","","","","",""
"1190.774999995483","Stimuli/Hangul_M98.bmp","188","image-keyboard-response","359","486781","0.0-12.0-1.22","test",",","",",","",""
"null","<div style=""color:white; font-size:60px;"">+</div>","null","html-keyboard-response","360","487783","0.0-12.0-0.23","fixation","","","","",""
"1164.3850000036764","Stimuli/Hangul_F84.bmp","190","image-keyboard-response","361","488948","0.0-12.0-1.23","test",".","",".","",""
"null","<div style=""color:white; font-size:60px;"">+</div>","null","html-keyboard-response","362","489949","0.0-12.0-0.24","fixation","","","","",""
"1421.9450000018696","Stimuli/Hangul_M87.bmp","190","image-keyboard-response","363","491372","0.0-12.0-1.24","test",",","",".","",""
"null","<div style=""color:white; font-size:60px;"">+</div>","null","html-keyboard-response","364","492374","0.0-12.0-0.25","fixation","","","","",""
"1196.9949999984237","Stimuli/Hangul_F89.bmp","188","image-keyboard-response","365","493572","0.0-12.0-1.25","test",".","",",","",""
"null","<div style=""color:white; font-size:60px;"">+</div>","null","html-keyboard-response","366","494573","0.0-12.0-0.26","fixation","","","","",""
"957.6949999973294","Stimuli/Hangul_M96.bmp","188","image-keyboard-response","367","495532","0.0-12.0-1.26","test",",","",",","",""
"null","<div style=""color:white; font-size:60px;"">+</div>","null","html-keyboard-response","368","496533","0.0-12.0-0.27","fixation","","","","",""
"1002.3000000001048","Stimuli/Hangul_F87.bmp","190","image-keyboard-response","369","497537","0.0-12.0-1.27","test",".","",".","",""
"null","<div style=""color:white; font-size:60px;"">+</div>","null","html-keyboard-response","370","498542","0.0-12.0-0.28","fixation","","","","",""
"1088.3350000003702","Stimuli/Hangul_F85.bmp","190","image-keyboard-response","371","499631","0.0-12.0-1.28","test",".","",".","",""
"null","<div style=""color:white; font-size:60px;"">+</div>","null","html-keyboard-response","372","500638","0.0-12.0-0.29","fixation","","","","",""
"1077.9099999999744","Stimuli/Hangul_F77.bmp","190","image-keyboard-response","373","501717","0.0-12.0-1.29","test",".","",".","",""
"null","<div style=""color:white; font-size:60px;"">+</div>","null","html-keyboard-response","374","502719","0.0-12.0-0.30","fixation","","","","",""
"1395.5799999966985","Stimuli/Hangul_F81.bmp","188","image-keyboard-response","375","504116","0.0-12.0-1.30","test",".","",",","",""
"null","<div style=""color:white; font-size:60px;"">+</div>","null","html-keyboard-response","376","505117","0.0-12.0-0.31","fixation","","","","",""
"1013.1900000051828","Stimuli/Hangul_M80.bmp","190","image-keyboard-response","377","506131","0.0-12.0-1.31","test",",","",".","",""
"null","<div style=""color:white; font-size:60px;"">+</div>","null","html-keyboard-response","378","507132","0.0-12.0-0.32","fixation","","","","",""
"1473.5550000041258","Stimuli/Hangul_M89.bmp","188","image-keyboard-response","379","508607","0.0-12.0-1.32","test",",","",",","",""
"null","<div style=""color:white; font-size:60px;"">+</div>","null","html-keyboard-response","380","509609","0.0-12.0-0.33","fixation","","","","",""
"1849.320000001113","Stimuli/Hangul_M86.bmp","188","image-keyboard-response","381","511459","0.0-12.0-1.33","test",",","",",","",""
"null","<div style=""color:white; font-size:60px;"">+</div>","null","html-keyboard-response","382","512462","0.0-12.0-0.34","fixation","","","","",""
"1100.3950000011828","Stimuli/Hangul_M94.bmp","190","image-keyboard-response","383","513564","0.0-12.0-1.34","test",",","",".","",""
"null","<div style=""color:white; font-size:60px;"">+</div>","null","html-keyboard-response","384","514566","0.0-12.0-0.35","fixation","","","","",""
"1076.7049999994924","Stimuli/Hangul_M99.bmp","190","image-keyboard-response","385","515643","0.0-12.0-1.35","test",",","",".","",""
"null","<div style=""color:white; font-size:60px;"">+</div>","null","html-keyboard-response","386","516646","0.0-12.0-0.36","fixation","","","","",""
"1199.720000004163","Stimuli/Hangul_M78.bmp","188","image-keyboard-response","387","517846","0.0-12.0-1.36","test",",","",",","",""
"null","<div style=""color:white; font-size:60px;"">+</div>","null","html-keyboard-response","388","518848","0.0-12.0-0.37","fixation","","","","",""
"1540.2099999992643","Stimuli/Hangul_M79.bmp","188","image-keyboard-response","389","520389","0.0-12.0-1.37","test",",","",",","",""
"null","<div style=""color:white; font-size:60px;"">+</div>","null","html-keyboard-response","390","521391","0.0-12.0-0.38","fixation","","","","",""
"1260.7250000000931","Stimuli/Hangul_F88.bmp","190","image-keyboard-response","391","522654","0.0-12.0-1.38","test",".","",".","",""
"null","<div style=""color:white; font-size:60px;"">+</div>","null","html-keyboard-response","392","523661","0.0-12.0-0.39","fixation","","","","",""
"1148.7950000010896","Stimuli/Hangul_M76.bmp","188","image-keyboard-response","393","524812","0.0-12.0-1.39","test",",","",",","",""
"null","<div style=""color:white; font-size:60px;"">+</div>","null","html-keyboard-response","394","525813","0.0-12.0-0.40","fixation","","","","",""
"1590.3949999992037","Stimuli/Hangul_M83.bmp","190","image-keyboard-response","395","527404","0.0-12.0-1.40","test",",","",".","",""
"null","<div style=""color:white; font-size:60px;"">+</div>","null","html-keyboard-response","396","528406","0.0-12.0-0.41","fixation","","","","",""
"1350.5999999979977","Stimuli/Hangul_M90.bmp","188","image-keyboard-response","397","529757","0.0-12.0-1.41","test",",","",",","",""
"null","<div style=""color:white; font-size:60px;"">+</div>","null","html-keyboard-response","398","530759","0.0-12.0-0.42","fixation","","","","",""
"1046.5599999951664","Stimuli/Hangul_M85.bmp","188","image-keyboard-response","399","531806","0.0-12.0-1.42","test",",","",",","",""
"null","<div style=""color:white; font-size:60px;"">+</div>","null","html-keyboard-response","400","532811","0.0-12.0-0.43","fixation","","","","",""
"1167.389999995008","Stimuli/Hangul_M95.bmp","188","image-keyboard-response","401","533981","0.0-12.0-1.43","test",",","",",","",""
"null","<div style=""color:white; font-size:60px;"">+</div>","null","html-keyboard-response","402","534982","0.0-12.0-0.44","fixation","","","","",""
"1308.595000002184","Stimuli/Hangul_F99.bmp","188","image-keyboard-response","403","536291","0.0-12.0-1.44","test",".","",",","",""
"null","<div style=""color:white; font-size:60px;"">+</div>","null","html-keyboard-response","404","537293","0.0-12.0-0.45","fixation","","","","",""
"1107.4699999954319","Stimuli/Hangul_F94.bmp","190","image-keyboard-response","405","538403","0.0-12.0-1.45","test",".","",".","",""
"null","<div style=""color:white; font-size:60px;"">+</div>","null","html-keyboard-response","406","539405","0.0-12.0-0.46","fixation","","","","",""
"1204.695000000298","Stimuli/Hangul_F75.bmp","190","image-keyboard-response","407","540612","0.0-12.0-1.46","test",".","",".","",""
"null","<div style=""color:white; font-size:60px;"">+</div>","null","html-keyboard-response","408","541616","0.0-12.0-0.47","fixation","","","","",""
"1092.075000000419","Stimuli/Hangul_M91.bmp","188","image-keyboard-response","409","542708","0.0-12.0-1.47","test",",","",",","",""
"null","<div style=""color:white; font-size:60px;"">+</div>","null","html-keyboard-response","410","543709","0.0-12.0-0.48","fixation","","","","",""
"1125.3000000070315","Stimuli/Hangul_F82.bmp","188","image-keyboard-response","411","544836","0.0-12.0-1.48","test",".","",",","",""
"null","<div style=""color:white; font-size:60px;"">+</div>","null","html-keyboard-response","412","545838","0.0-12.0-0.49","fixation","","","","",""
"1044.8099999994738","Stimuli/Hangul_F98.bmp","190","image-keyboard-response","413","546883","0.0-12.0-1.49","test",".","",".","",""
"3139.7350000042934","<p style=""color:white;"">Phase I of the experiment is complete.</p> <p style=""color:white;"">Press the space bar to proceed to Phase II of the experiment.</p> ","32","html-keyboard-response","414","550025","0.0-13.0","","","","","",""
"26664.310000000172","<p style=""color:white;"">Now we are interested in how well you can predict patterns in the series of figures. You will be asked to predict whether the next figure in the series is more male-like or female-like. When you see the <q>Next Figure</q> prompt, press the corresponding response keys to indicate your prediction: </p><p style=""color:white;""> Male &#8594 <q>,</q> (comma)</p><p style=""color:white;""> Female &#8594 <q>.</q> (period)</p><p style=""color:white;"">The actual figure will then appear on the screen. After you see the figure, please guess the assigned gender with response keys. </p><p style=""color:white;"">As before, you will receive 2 cents for correctly classifying each figure.</p><p style=""color:white;"">Press either response keys to continue.</p>","190","html-keyboard-response","415","578693","0.0-14.0","","","","","",""
"18813.88500000327","<p style=""color:white;"">PREDICTION BONUS</p> <p style=""color:white;"">Your prediction accuracy is the total number of correct predictions you make over the 200 trials.</p> <p style=""color:white;"">In addition to the 2 cents per correct figure classification, you have the chance to receive a bonus of 40 dollars IF your accuracy is above average relative to previous participants.</p><p style=""color:white;"">If your accuracy is below average relative to previous participants, then you will not receive the 40 dollar bonus.</p><p style=""color:white;"">Press the space bar to continue.</p>","32","html-keyboard-response","416","597510","0.0-15.0","","","","","",""
"7589.444999997853","<p style=""color:white;"">Here are some examples.</p> <p style=""color:white;"">For each, predict whether the next figure looks more male-like or female-like. Then, when the figure appears, guess whether it looks more male-like or female-like and indicate your choice.</p> <p style=""color:white;"">Press the space bar to continue.</p>","32","html-keyboard-response","417","605101","0.0-16.0","","","","","",""
"3631.675000004121","<p style=""color:white;""> Next Figure: Male or Female? </p>","188","html-keyboard-response","418","610734","0.0-17.0-0.0","prediction_train","","","",",",""
"null","<div style=""color:white; font-size:60px;"">+</div>","null","html-keyboard-response","419","611736","0.0-17.0-1.0","fixation","","","","",""
"1515.380000004312","Stimuli/Hangul_E2.bmp","188","image-keyboard-response","420","613253","0.0-17.0-2.0","c2_train",".","","","",","
"989.9200000000419","<p style=""color:white;""> Next Figure: Male or Female? </p>","190","html-keyboard-response","421","614244","0.0-17.0-0.1","prediction_train","","","",".",""
"null","<div style=""color:white; font-size:60px;"">+</div>","null","html-keyboard-response","422","615246","0.0-17.0-1.1","fixation","","","","",""
"1332.0449999955017","Stimuli/Hangul_E0.bmp","190","image-keyboard-response","423","616580","0.0-17.0-2.1","c2_train",",","","","","."
"759.3899999993155","<p style=""color:white;""> Next Figure: Male or Female? </p>","188","html-keyboard-response","424","617348","0.0-17.0-0.2","prediction_train","","","",",",""
"null","<div style=""color:white; font-size:60px;"">+</div>","null","html-keyboard-response","425","618351","0.0-17.0-1.2","fixation","","","","",""
"1365.2650000003632","Stimuli/Hangul_E1.bmp","188","image-keyboard-response","426","619718","0.0-17.0-2.2","c2_train",",","","","",","
"2349.914999998873","<p style=""color:white;"">Let us begin! Press the space bar when you are ready to start block 1 of 4.</p> ","32","html-keyboard-response","427","622069","0.0-18.0","","","","","",""
"796.6550000056159","<p style=""color:white;""> Next Figure: Male or Female? </p>","188","html-keyboard-response","428","624868","0.0-19.0-0.0","prediction","","","",",",""
"null","<div style=""color:white; font-size:60px;"">+</div>","null","html-keyboard-response","429","625870","0.0-19.0-1.0","fixation","","","","",""
"1228.3400000014808","Stimuli/Hangul_M10.bmp","188","image-keyboard-response","430","627100","0.0-19.0-2.0","c2_test",",","","","",","
"650.1550000029383","<p style=""color:white;""> Next Figure: Male or Female? </p>","188","html-keyboard-response","431","627753","0.0-19.0-0.1","prediction","","","",",",""
"null","<div style=""color:white; font-size:60px;"">+</div>","null","html-keyboard-response","432","628757","0.0-19.0-1.1","fixation","","","","",""
"1093.5299999982817","Stimuli/Hangul_F13.bmp","188","image-keyboard-response","433","629852","0.0-19.0-2.1","c2_test",".","","","",","
"782.4649999965914","<p style=""color:white;""> Next Figure: Male or Female? </p>","190","html-keyboard-response","434","630636","0.0-19.0-0.2","prediction","","","",".",""
"null","<div style=""color:white; font-size:60px;"">+</div>","null","html-keyboard-response","435","631637","0.0-19.0-1.2","fixation","","","","",""
"1073.45999999973","Stimuli/Hangul_M3.bmp","190","image-keyboard-response","436","632712","0.0-19.0-2.2","c2_test",",","","","","."
"740.9750000006752","<p style=""color:white;""> Next Figure: Male or Female? </p>","188","html-keyboard-response","437","633455","0.0-19.0-0.3","prediction","","","",",",""
"null","<div style=""color:white; font-size:60px;"">+</div>","null","html-keyboard-response","438","634459","0.0-19.0-1.3","fixation","","","","",""
"1015.4299999994691","Stimuli/Hangul_F10.bmp","188","image-keyboard-response","439","635475","0.0-19.0-2.3","c2_test",".","","","",","
"887.2499999997672","<p style=""color:white;""> Next Figure: Male or Female? </p>","190","html-keyboard-response","440","636364","0.0-19.0-0.4","prediction","","","",".",""
"null","<div style=""color:white; font-size:60px;"">+</div>","null","html-keyboard-response","441","637365","0.0-19.0-1.4","fixation","","","","",""
"1045.9600000032224","Stimuli/Hangul_F8.bmp","190","image-keyboard-response","442","638412","0.0-19.0-2.4","c2_test",".","","","","."
"582.5499999991152","<p style=""color:white;""> Next Figure: Male or Female? </p>","190","html-keyboard-response","443","638996","0.0-19.0-0.5","prediction","","","",".",""
"null","<div style=""color:white; font-size:60px;"">+</div>","null","html-keyboard-response","444","639999","0.0-19.0-1.5","fixation","","","","",""
"1035.5950000011362","Stimuli/Hangul_M17.bmp","190","image-keyboard-response","445","641035","0.0-19.0-2.5","c2_test",",","","","","."
"904.7149999969406","<p style=""color:white;""> Next Figure: Male or Female? </p>","190","html-keyboard-response","446","641941","0.0-19.0-0.6","prediction","","","",".",""
"null","<div style=""color:white; font-size:60px;"">+</div>","null","html-keyboard-response","447","642942","0.0-19.0-1.6","fixation","","","","",""
"1028.7099999986822","Stimuli/Hangul_M6.bmp","190","image-keyboard-response","448","643973","0.0-19.0-2.6","c2_test",",","","","","."
"534.0450000002747","<p style=""color:white;""> Next Figure: Male or Female? </p>","188","html-keyboard-response","449","644508","0.0-19.0-0.7","prediction","","","",",",""
"null","<div style=""color:white; font-size:60px;"">+</div>","null","html-keyboard-response","450","645509","0.0-19.0-1.7","fixation","","","","",""
"1029.3849999944214","Stimuli/Hangul_M20.bmp","188","image-keyboard-response","451","646539","0.0-19.0-2.7","c2_test",",","","","",","
"431.1650000018999","<p style=""color:white;""> Next Figure: Male or Female? </p>","188","html-keyboard-response","452","646971","0.0-19.0-0.8","prediction","","","",",",""
"null","<div style=""color:white; font-size:60px;"">+</div>","null","html-keyboard-response","453","647974","0.0-19.0-1.8","fixation","","","","",""
"1060.7699999964098","Stimuli/Hangul_F17.bmp","188","image-keyboard-response","454","649035","0.0-19.0-2.8","c2_test",".","","","",","
"510.70500000054017","<p style=""color:white;""> Next Figure: Male or Female? </p>","190","html-keyboard-response","455","649547","0.0-19.0-0.9","prediction","","","",".",""
"null","<div style=""color:white; font-size:60px;"">+</div>","null","html-keyboard-response","456","650557","0.0-19.0-1.9","fixation","","","","",""
"1013.8650000008056","Stimuli/Hangul_F19.bmp","190","image-keyboard-response","457","651573","0.0-19.0-2.9","c2_test",".","","","","."
"517.214999999851","<p style=""color:white;""> Next Figure: Male or Female? </p>","188","html-keyboard-response","458","652091","0.0-19.0-0.10","prediction","","","",",",""
"null","<div style=""color:white; font-size:60px;"">+</div>","null","html-keyboard-response","459","653093","0.0-19.0-1.10","fixation","","","","",""
"974.275000000489","Stimuli/Hangul_M9.bmp","188","image-keyboard-response","460","654068","0.0-19.0-2.10","c2_test",",","","","",","
"518.0800000017043","<p style=""color:white;""> Next Figure: Male or Female? </p>","188","html-keyboard-response","461","654587","0.0-19.0-0.11","prediction","","","",",",""
"null","<div style=""color:white; font-size:60px;"">+</div>","null","html-keyboard-response","462","655589","0.0-19.0-1.11","fixation","","","","",""
"999.6049999973038","Stimuli/Hangul_F18.bmp","188","image-keyboard-response","463","656590","0.0-19.0-2.11","c2_test",".","","","",","
"330.3499999966007","<p style=""color:white;""> Next Figure: Male or Female? </p>","190","html-keyboard-response","464","656923","0.0-19.0-0.12","prediction","","","",".",""
"null","<div style=""color:white; font-size:60px;"">+</div>","null","html-keyboard-response","465","657926","0.0-19.0-1.12","fixation","","","","",""
"931.5999999963678","Stimuli/Hangul_M5.bmp","190","image-keyboard-response","466","658859","0.0-19.0-2.12","c2_test",",","","","","."
"644.0250000013039","<p style=""color:white;""> Next Figure: Male or Female? </p>","190","html-keyboard-response","467","659504","0.0-19.0-0.13","prediction","","","",".",""
"null","<div style=""color:white; font-size:60px;"">+</div>","null","html-keyboard-response","468","660506","0.0-19.0-1.13","fixation","","","","",""
"993.1100000031292","Stimuli/Hangul_F1.bmp","190","image-keyboard-response","469","661501","0.0-19.0-2.13","c2_test",".","","","","."
"389.8750000006985","<p style=""color:white;""> Next Figure: Male or Female? </p>","190","html-keyboard-response","470","661892","0.0-19.0-0.14","prediction","","","",".",""
"null","<div style=""color:white; font-size:60px;"">+</div>","null","html-keyboard-response","471","662893","0.0-19.0-1.14","fixation","","","","",""
"1070.4800000021933","Stimuli/Hangul_M15.bmp","190","image-keyboard-response","472","663965","0.0-19.0-2.14","c2_test",",","","","","."
"305.145000005723","<p style=""color:white;""> Next Figure: Male or Female? </p>","190","html-keyboard-response","473","664271","0.0-19.0-0.15","prediction","","","",".",""
"null","<div style=""color:white; font-size:60px;"">+</div>","null","html-keyboard-response","474","665272","0.0-19.0-1.15","fixation","","","","",""
"1059.255000000121","Stimuli/Hangul_F12.bmp","190","image-keyboard-response","475","666333","0.0-19.0-2.15","c2_test",".","","","","."
"338.2199999978766","<p style=""color:white;""> Next Figure: Male or Female? </p>","188","html-keyboard-response","476","666672","0.0-19.0-0.16","prediction","","","",",",""
"null","<div style=""color:white; font-size:60px;"">+</div>","null","html-keyboard-response","477","667674","0.0-19.0-1.16","fixation","","","","",""
"1023.0900000024121","Stimuli/Hangul_F9.bmp","188","image-keyboard-response","478","668699","0.0-19.0-2.16","c2_test",".","","","",","
"496.6199999981327","<p style=""color:white;""> Next Figure: Male or Female? </p>","188","html-keyboard-response","479","669196","0.0-19.0-0.17","prediction","","","",",",""
"null","<div style=""color:white; font-size:60px;"">+</div>","null","html-keyboard-response","480","670198","0.0-19.0-1.17","fixation","","","","",""
"1204.754999998957","Stimuli/Hangul_M0.bmp","188","image-keyboard-response","481","671405","0.0-19.0-2.17","c2_test",",","","","",","
"426.39999999664724","<p style=""color:white;""> Next Figure: Male or Female? </p>","190","html-keyboard-response","482","671832","0.0-19.0-0.18","prediction","","","",".",""
"null","<div style=""color:white; font-size:60px;"">+</div>","null","html-keyboard-response","483","672834","0.0-19.0-1.18","fixation","","","","",""
"1057.844999995781","Stimuli/Hangul_F11.bmp","190","image-keyboard-response","484","673892","0.0-19.0-2.18","c2_test",".","","","","."
"350.9449999984354","<p style=""color:white;""> Next Figure: Male or Female? </p>","188","html-keyboard-response","485","674244","0.0-19.0-0.19","prediction","","","",",",""
"null","<div style=""color:white; font-size:60px;"">+</div>","null","html-keyboard-response","486","675246","0.0-19.0-1.19","fixation","","","","",""
"1110.5900000039255","Stimuli/Hangul_M4.bmp","188","image-keyboard-response","487","676357","0.0-19.0-2.19","c2_test",",","","","",","
"353.90000000200234","<p style=""color:white;""> Next Figure: Male or Female? </p>","188","html-keyboard-response","488","676714","0.0-19.0-0.20","prediction","","","",",",""
"null","<div style=""color:white; font-size:60px;"">+</div>","null","html-keyboard-response","489","677718","0.0-19.0-1.20","fixation","","","","",""
"1061.540000002482","Stimuli/Hangul_M1.bmp","188","image-keyboard-response","490","678780","0.0-19.0-2.20","c2_test",",","","","",","
"256.98500000010245","<p style=""color:white;""> Next Figure: Male or Female? </p>","190","html-keyboard-response","491","679038","0.0-19.0-0.21","prediction","","","",".",""
"null","<div style=""color:white; font-size:60px;"">+</div>","null","html-keyboard-response","492","680039","0.0-19.0-1.21","fixation","","","","",""
"966.5899999963585","Stimuli/Hangul_F7.bmp","190","image-keyboard-response","493","681006","0.0-19.0-2.21","c2_test",".","","","","."
"452.97500000009313","<p style=""color:white;""> Next Figure: Male or Female? </p>","190","html-keyboard-response","494","681461","0.0-19.0-0.22","prediction","","","",".",""
"null","<div style=""color:white; font-size:60px;"">+</div>","null","html-keyboard-response","495","682463","0.0-19.0-1.22","fixation","","","","",""
"995.3249999962281","Stimuli/Hangul_F15.bmp","190","image-keyboard-response","496","683460","0.0-19.0-2.22","c2_test",".","","","","."
"374.7650000003632","<p style=""color:white;""> Next Figure: Male or Female? </p>","188","html-keyboard-response","497","683836","0.0-19.0-0.23","prediction","","","",",",""
"null","<div style=""color:white; font-size:60px;"">+</div>","null","html-keyboard-response","498","684838","0.0-19.0-1.23","fixation","","","","",""
"997.3200000022771","Stimuli/Hangul_F5.bmp","188","image-keyboard-response","499","685836","0.0-19.0-2.23","c2_test",".","","","",","
"327.5450000000419","<p style=""color:white;""> Next Figure: Male or Female? </p>","188","html-keyboard-response","500","686165","0.0-19.0-0.24","prediction","","","",",",""
"null","<div style=""color:white; font-size:60px;"">+</div>","null","html-keyboard-response","501","687166","0.0-19.0-1.24","fixation","","","","",""
"1015.6800000040093","Stimuli/Hangul_M2.bmp","188","image-keyboard-response","502","688183","0.0-19.0-2.24","c2_test",",","","","",","
"374.1799999990035","<p style=""color:white;""> Next Figure: Male or Female? </p>","190","html-keyboard-response","503","688559","0.0-19.0-0.25","prediction","","","",".",""
"null","<div style=""color:white; font-size:60px;"">+</div>","null","html-keyboard-response","504","689560","0.0-19.0-1.25","fixation","","","","",""
"1018.570000000298","Stimuli/Hangul_M19.bmp","190","image-keyboard-response","505","690580","0.0-19.0-2.25","c2_test",",","","","","."
"465.5050000001211","<p style=""color:white;""> Next Figure: Male or Female? </p>","190","html-keyboard-response","506","691048","0.0-19.0-0.26","prediction","","","",".",""
"null","<div style=""color:white; font-size:60px;"">+</div>","null","html-keyboard-response","507","692050","0.0-19.0-1.26","fixation","","","","",""
"1082.0700000040233","Stimuli/Hangul_F24.bmp","190","image-keyboard-response","508","693134","0.0-19.0-2.26","c2_test",".","","","","."
"389.134999997681","<p style=""color:white;""> Next Figure: Male or Female? </p>","188","html-keyboard-response","509","693524","0.0-19.0-0.27","prediction","","","",",",""
"null","<div style=""color:white; font-size:60px;"">+</div>","null","html-keyboard-response","510","694525","0.0-19.0-1.27","fixation","","","","",""
"1068.2400000005728","Stimuli/Hangul_M23.bmp","188","image-keyboard-response","511","695596","0.0-19.0-2.27","c2_test",",","","","",","
"510.86499999661464","<p style=""color:white;""> Next Figure: Male or Female? </p>","190","html-keyboard-response","512","696108","0.0-19.0-0.28","prediction","","","",".",""
"null","<div style=""color:white; font-size:60px;"">+</div>","null","html-keyboard-response","513","697108","0.0-19.0-1.28","fixation","","","","",""
"862.4799999961397","Stimuli/Hangul_M21.bmp","190","image-keyboard-response","514","697972","0.0-19.0-2.28","c2_test",",","","","","."
"776.5549999967916","<p style=""color:white;""> Next Figure: Male or Female? </p>","190","html-keyboard-response","515","698749","0.0-19.0-0.29","prediction","","","",".",""
"null","<div style=""color:white; font-size:60px;"">+</div>","null","html-keyboard-response","516","699751","0.0-19.0-1.29","fixation","","","","",""
"1350.4700000048615","Stimuli/Hangul_M22.bmp","190","image-keyboard-response","517","701102","0.0-19.0-2.29","c2_test",",","","","","."
"336.1999999979744","<p style=""color:white;""> Next Figure: Male or Female? </p>","188","html-keyboard-response","518","701440","0.0-19.0-0.30","prediction","","","",",",""
"null","<div style=""color:white; font-size:60px;"">+</div>","null","html-keyboard-response","519","702442","0.0-19.0-1.30","fixation","","","","",""
"1088.5250000065425","Stimuli/Hangul_M18.bmp","188","image-keyboard-response","520","703531","0.0-19.0-2.30","c2_test",",","","","",","
"534.8549999981187","<p style=""color:white;""> Next Figure: Male or Female? </p>","188","html-keyboard-response","521","704068","0.0-19.0-0.31","prediction","","","",",",""
"null","<div style=""color:white; font-size:60px;"">+</div>","null","html-keyboard-response","522","705070","0.0-19.0-1.31","fixation","","","","",""
"1012.8049999984214","Stimuli/Hangul_M12.bmp","188","image-keyboard-response","523","706084","0.0-19.0-2.31","c2_test",",","","","",","
"509.49499999848194","<p style=""color:white;""> Next Figure: Male or Female? </p>","190","html-keyboard-response","524","706596","0.0-19.0-0.32","prediction","","","",".",""
"null","<div style=""color:white; font-size:60px;"">+</div>","null","html-keyboard-response","525","707597","0.0-19.0-1.32","fixation","","","","",""
"1045.4249999966705","Stimuli/Hangul_F23.bmp","190","image-keyboard-response","526","708644","0.0-19.0-2.32","c2_test",".","","","","."
"433.1850000016857","<p style=""color:white;""> Next Figure: Male or Female? </p>","190","html-keyboard-response","527","709078","0.0-19.0-0.33","prediction","","","",".",""
"null","<div style=""color:white; font-size:60px;"">+</div>","null","html-keyboard-response","528","710079","0.0-19.0-1.33","fixation","","","","",""
"1067.4700000017183","Stimuli/Hangul_M7.bmp","190","image-keyboard-response","529","711147","0.0-19.0-2.33","c2_test",",","","","","."
"400.99000000196975","<p style=""color:white;""> Next Figure: Male or Female? </p>","188","html-keyboard-response","530","711550","0.0-19.0-0.34","prediction","","","",",",""
"null","<div style=""color:white; font-size:60px;"">+</div>","null","html-keyboard-response","531","712552","0.0-19.0-1.34","fixation","","","","",""
"1107.7150000056718","Stimuli/Hangul_F22.bmp","188","image-keyboard-response","532","713661","0.0-19.0-2.34","c2_test",".","","","",","
"365.4199999946868","<p style=""color:white;""> Next Figure: Male or Female? </p>","188","html-keyboard-response","533","714027","0.0-19.0-0.35","prediction","","","",",",""
"null","<div style=""color:white; font-size:60px;"">+</div>","null","html-keyboard-response","534","715029","0.0-19.0-1.35","fixation","","","","",""
"1047.3350000029895","Stimuli/Hangul_F3.bmp","188","image-keyboard-response","535","716078","0.0-19.0-2.35","c2_test",".","","","",","
"307.5349999999162","<p style=""color:white;""> Next Figure: Male or Female? </p>","190","html-keyboard-response","536","716387","0.0-19.0-0.36","prediction","","","",".",""
"null","<div style=""color:white; font-size:60px;"">+</div>","null","html-keyboard-response","537","717388","0.0-19.0-1.36","fixation","","","","",""
"1054.7700000024633","Stimuli/Hangul_M11.bmp","190","image-keyboard-response","538","718445","0.0-19.0-2.36","c2_test",",","","","","."
"350.23999999975786","<p style=""color:white;""> Next Figure: Male or Female? </p>","188","html-keyboard-response","539","718796","0.0-19.0-0.37","prediction","","","",",",""
"null","<div style=""color:white; font-size:60px;"">+</div>","null","html-keyboard-response","540","719798","0.0-19.0-1.37","fixation","","","","",""
"1015.1249999980209","Stimuli/Hangul_F16.bmp","188","image-keyboard-response","541","720814","0.0-19.0-2.37","c2_test",".","","","",","
"380.9850000034785","<p style=""color:white;""> Next Figure: Male or Female? </p>","190","html-keyboard-response","542","721196","0.0-19.0-0.38","prediction","","","",".",""
"null","<div style=""color:white; font-size:60px;"">+</div>","null","html-keyboard-response","543","722198","0.0-19.0-1.38","fixation","","","","",""
"1077.5950000025332","Stimuli/Hangul_F14.bmp","190","image-keyboard-response","544","723278","0.0-19.0-2.38","c2_test",".","","","","."
"669.0750000053085","<p style=""color:white;""> Next Figure: Male or Female? </p>","190","html-keyboard-response","545","723948","0.0-19.0-0.39","prediction","","","",".",""
"null","<div style=""color:white; font-size:60px;"">+</div>","null","html-keyboard-response","546","724950","0.0-19.0-1.39","fixation","","","","",""
"2221.635000001639","Stimuli/Hangul_F20.bmp","188","image-keyboard-response","547","727172","0.0-19.0-2.39","c2_test",".","","","",","
"1409.9449999993667","<p style=""color:white;""> Next Figure: Male or Female? </p>","188","html-keyboard-response","548","728585","0.0-19.0-0.40","prediction","","","",",",""
"null","<div style=""color:white; font-size:60px;"">+</div>","null","html-keyboard-response","549","729587","0.0-19.0-1.40","fixation","","","","",""
"1095.965000000433","Stimuli/Hangul_M24.bmp","188","image-keyboard-response","550","730684","0.0-19.0-2.40","c2_test",",","","","",","
"717.114999999525","<p style=""color:white;""> Next Figure: Male or Female? </p>","190","html-keyboard-response","551","731402","0.0-19.0-0.41","prediction","","","",".",""
"null","<div style=""color:white; font-size:60px;"">+</div>","null","html-keyboard-response","552","732404","0.0-19.0-1.41","fixation","","","","",""
"1005.7850000011967","Stimuli/Hangul_M16.bmp","190","image-keyboard-response","553","733412","0.0-19.0-2.41","c2_test",",","","","","."
"414.63500000105705","<p style=""color:white;""> Next Figure: Male or Female? </p>","190","html-keyboard-response","554","733828","0.0-19.0-0.42","prediction","","","",".",""
"null","<div style=""color:white; font-size:60px;"">+</div>","null","html-keyboard-response","555","734829","0.0-19.0-1.42","fixation","","","","",""
"1086.1650000006193","Stimuli/Hangul_M8.bmp","190","image-keyboard-response","556","735916","0.0-19.0-2.42","c2_test",",","","","","."
"345.3700000026729","<p style=""color:white;""> Next Figure: Male or Female? </p>","188","html-keyboard-response","557","736263","0.0-19.0-0.43","prediction","","","",",",""
"null","<div style=""color:white; font-size:60px;"">+</div>","null","html-keyboard-response","558","737265","0.0-19.0-1.43","fixation","","","","",""
"1065.5850000039209","Stimuli/Hangul_F6.bmp","188","image-keyboard-response","559","738332","0.0-19.0-2.43","c2_test",".","","","",","
"883.3550000053365","<p style=""color:white;""> Next Figure: Male or Female? </p>","188","html-keyboard-response","560","739220","0.0-19.0-0.44","prediction","","","",",",""
"null","<div style=""color:white; font-size:60px;"">+</div>","null","html-keyboard-response","561","740221","0.0-19.0-1.44","fixation","","","","",""
"1045.5500000024913","Stimuli/Hangul_F0.bmp","188","image-keyboard-response","562","741268","0.0-19.0-2.44","c2_test",".","","","",","
"434.74000000429805","<p style=""color:white;""> Next Figure: Male or Female? </p>","190","html-keyboard-response","563","741704","0.0-19.0-0.45","prediction","","","",".",""
"null","<div style=""color:white; font-size:60px;"">+</div>","null","html-keyboard-response","564","742706","0.0-19.0-1.45","fixation","","","","",""
"1096.4250000034226","Stimuli/Hangul_F21.bmp","190","image-keyboard-response","565","743804","0.0-19.0-2.45","c2_test",".","","","","."
"359.2549999956973","<p style=""color:white;""> Next Figure: Male or Female? </p>","188","html-keyboard-response","566","744164","0.0-19.0-0.46","prediction","","","",",",""
"null","<div style=""color:white; font-size:60px;"">+</div>","null","html-keyboard-response","567","745166","0.0-19.0-1.46","fixation","","","","",""
"536.2850000018952","Stimuli/Hangul_F4.bmp","188","image-keyboard-response","568","745704","0.0-19.0-2.46","c2_test",".","","","",","
"1331.1099999991711","<p style=""color:white;""> Next Figure: Male or Female? </p>","190","html-keyboard-response","569","747035","0.0-19.0-0.47","prediction","","","",".",""
"null","<div style=""color:white; font-size:60px;"">+</div>","null","html-keyboard-response","570","748036","0.0-19.0-1.47","fixation","","","","",""
"1102.5250000020023","Stimuli/Hangul_M13.bmp","190","image-keyboard-response","571","749140","0.0-19.0-2.47","c2_test",",","","","","."
"399.8799999972107","<p style=""color:white;""> Next Figure: Male or Female? </p>","190","html-keyboard-response","572","749541","0.0-19.0-0.48","prediction","","","",".",""
"null","<div style=""color:white; font-size:60px;"">+</div>","null","html-keyboard-response","573","750542","0.0-19.0-1.48","fixation","","","","",""
"971.4450000028592","Stimuli/Hangul_F2.bmp","190","image-keyboard-response","574","751516","0.0-19.0-2.48","c2_test",".","","","","."
"699.3049999946961","<p style=""color:white;""> Next Figure: Male or Female? </p>","188","html-keyboard-response","575","752217","0.0-19.0-0.49","prediction","","","",",",""
"null","<div style=""color:white; font-size:60px;"">+</div>","null","html-keyboard-response","576","753220","0.0-19.0-1.49","fixation","","","","",""
"1030.895000003511","Stimuli/Hangul_M14.bmp","188","image-keyboard-response","577","754251","0.0-19.0-2.49","c2_test",",","","","",","
"11952.460000000428","<p style=""color:white;"">Good job, block 1 complete! Please take a moment to rest.</p> <p style=""color:white;"">When you are ready to continue with block 2 of 4, press the space bar.</p> ","32","html-keyboard-response","578","766205","0.0-20.0","","","","","",""
"786.3300000026356","<p style=""color:white;""> Next Figure: Male or Female? </p>","188","html-keyboard-response","579","768995","0.0-21.0-0.0","prediction","","","",",",""
"null","<div style=""color:white; font-size:60px;"">+</div>","null","html-keyboard-response","580","769997","0.0-21.0-1.0","fixation","","","","",""
"1395.8599999968428","Stimuli/Hangul_M42.bmp","188","image-keyboard-response","581","771395","0.0-21.0-2.0","c2_test",",","","","",","
"543.2399999990594","<p style=""color:white;""> Next Figure: Male or Female? </p>","190","html-keyboard-response","582","771939","0.0-21.0-0.1","prediction","","","",".",""
"null","<div style=""color:white; font-size:60px;"">+</div>","null","html-keyboard-response","583","772942","0.0-21.0-1.1","fixation","","","","",""
"924.5149999987334","Stimuli/Hangul_F32.bmp","190","image-keyboard-response","584","773868","0.0-21.0-2.1","c2_test",".","","","","."
"380.83000000193715","<p style=""color:white;""> Next Figure: Male or Female? </p>","190","html-keyboard-response","585","774251","0.0-21.0-0.2","prediction","","","",".",""
"null","<div style=""color:white; font-size:60px;"">+</div>","null","html-keyboard-response","586","775253","0.0-21.0-1.2","fixation","","","","",""
"711.8199999968056","Stimuli/Hangul_M40.bmp","190","image-keyboard-response","587","775966","0.0-21.0-2.2","c2_test",",","","","","."
"438.09000000334345","<p style=""color:white;""> Next Figure: Male or Female? </p>","188","html-keyboard-response","588","776405","0.0-21.0-0.3","prediction","","","",",",""
"null","<div style=""color:white; font-size:60px;"">+</div>","null","html-keyboard-response","589","777406","0.0-21.0-1.3","fixation","","","","",""
"515.8700000029057","Stimuli/Hangul_M41.bmp","188","image-keyboard-response","590","777923","0.0-21.0-2.3","c2_test",",","","","",","
"321.52000000490807","<p style=""color:white;""> Next Figure: Male or Female? </p>","188","html-keyboard-response","591","778248","0.0-21.0-0.4","prediction","","","",",",""
"null","<div style=""color:white; font-size:60px;"">+</div>","null","html-keyboard-response","592","779249","0.0-21.0-1.4","fixation","","","","",""
"1003.194999997504","Stimuli/Hangul_M28.bmp","188","image-keyboard-response","593","780253","0.0-21.0-2.4","c2_test",",","","","",","
"262.21500000252854","<p style=""color:white;""> Next Figure: Male or Female? </p>","190","html-keyboard-response","594","780517","0.0-21.0-0.5","prediction","","","",".",""
"null","<div style=""color:white; font-size:60px;"">+</div>","null","html-keyboard-response","595","781520","0.0-21.0-1.5","fixation","","","","",""
"1045.7549999991897","Stimuli/Hangul_M29.bmp","190","image-keyboard-response","596","782568","0.0-21.0-2.5","c2_test",",","","","","."
"403.0750000019325","<p style=""color:white;""> Next Figure: Male or Female? </p>","190","html-keyboard-response","597","782972","0.0-21.0-0.6","prediction","","","",".",""
"null","<div style=""color:white; font-size:60px;"">+</div>","null","html-keyboard-response","598","783974","0.0-21.0-1.6","fixation","","","","",""
"565.694999997504","Stimuli/Hangul_F47.bmp","190","image-keyboard-response","599","784541","0.0-21.0-2.6","c2_test",".","","","","."
"382.6699999991106","<p style=""color:white;""> Next Figure: Male or Female? </p>","190","html-keyboard-response","600","784924","0.0-21.0-0.7","prediction","","","",".",""
"null","<div style=""color:white; font-size:60px;"">+</div>","null","html-keyboard-response","601","785926","0.0-21.0-1.7","fixation","","","","",""
"493.6650000017835","Stimuli/Hangul_M32.bmp","190","image-keyboard-response","602","786421","0.0-21.0-2.7","c2_test",",","","","","."
"358.6750000031898","<p style=""color:white;""> Next Figure: Male or Female? </p>","188","html-keyboard-response","603","786780","0.0-21.0-0.8","prediction","","","",",",""
"null","<div style=""color:white; font-size:60px;"">+</div>","null","html-keyboard-response","604","787783","0.0-21.0-1.8","fixation","","","","",""
"1188.0700000037905","Stimuli/Hangul_M43.bmp","188","image-keyboard-response","605","788972","0.0-21.0-2.8","c2_test",",","","","",","
"462.73500000091735","<p style=""color:white;""> Next Figure: Male or Female? </p>","188","html-keyboard-response","606","789436","0.0-21.0-0.9","prediction","","","",",",""
"null","<div style=""color:white; font-size:60px;"">+</div>","null","html-keyboard-response","607","790439","0.0-21.0-1.9","fixation","","","","",""
"595.7599999965169","Stimuli/Hangul_M25.bmp","188","image-keyboard-response","608","791036","0.0-21.0-2.9","c2_test",",","","","",","
"374.7799999981653","<p style=""color:white;""> Next Figure: Male or Female? </p>","188","html-keyboard-response","609","791412","0.0-21.0-0.10","prediction","","","",",",""
"null","<div style=""color:white; font-size:60px;"">+</div>","null","html-keyboard-response","610","792415","0.0-21.0-1.10","fixation","","","","",""
"684.5600000015693","Stimuli/Hangul_F31.bmp","188","image-keyboard-response","611","793100","0.0-21.0-2.10","c2_test",".","","","",","
"319.1499999957159","<p style=""color:white;""> Next Figure: Male or Female? </p>","190","html-keyboard-response","612","793421","0.0-21.0-0.11","prediction","","","",".",""
"null","<div style=""color:white; font-size:60px;"">+</div>","null","html-keyboard-response","613","794424","0.0-21.0-1.11","fixation","","","","",""
"1059.255000000121","Stimuli/Hangul_F36.bmp","190","image-keyboard-response","614","795484","0.0-21.0-2.11","c2_test",".","","","","."
"359.30999999982305","<p style=""color:white;""> Next Figure: Male or Female? </p>","190","html-keyboard-response","615","795844","0.0-21.0-0.12","prediction","","","",".",""
"null","<div style=""color:white; font-size:60px;"">+</div>","null","html-keyboard-response","616","796846","0.0-21.0-1.12","fixation","","","","",""
"494.6249999993015","Stimuli/Hangul_M49.bmp","190","image-keyboard-response","617","797341","0.0-21.0-2.12","c2_test",",","","","","."
"340.02999999944586","<p style=""color:white;""> Next Figure: Male or Female? </p>","188","html-keyboard-response","618","797683","0.0-21.0-0.13","prediction","","","",",",""
"null","<div style=""color:white; font-size:60px;"">+</div>","null","html-keyboard-response","619","798697","0.0-21.0-1.13","fixation","","","","",""
"466.18000000319444","Stimuli/Hangul_M47.bmp","188","image-keyboard-response","620","799164","0.0-21.0-2.13","c2_test",",","","","",","
"318.76999999803957","<p style=""color:white;""> Next Figure: Male or Female? </p>","190","html-keyboard-response","621","799484","0.0-21.0-0.14","prediction","","","",".",""
"null","<div style=""color:white; font-size:60px;"">+</div>","null","html-keyboard-response","622","800489","0.0-21.0-1.14","fixation","","","","",""
"1115.234999997425","Stimuli/Hangul_M38.bmp","190","image-keyboard-response","623","801607","0.0-21.0-2.14","c2_test",",","","","","."
"300.5199999969918","<p style=""color:white;""> Next Figure: Male or Female? </p>","188","html-keyboard-response","624","801908","0.0-21.0-0.15","prediction","","","",",",""
"null","<div style=""color:white; font-size:60px;"">+</div>","null","html-keyboard-response","625","802910","0.0-21.0-1.15","fixation","","","","",""
"501.52499999967404","Stimuli/Hangul_M34.bmp","188","image-keyboard-response","626","803412","0.0-21.0-2.15","c2_test",",","","","",","
"334.6349999993108","<p style=""color:white;""> Next Figure: Male or Female? </p>","190","html-keyboard-response","627","803748","0.0-21.0-0.16","prediction","","","",".",""
"null","<div style=""color:white; font-size:60px;"">+</div>","null","html-keyboard-response","628","804749","0.0-21.0-1.16","fixation","","","","",""
"454.2349999974249","Stimuli/Hangul_F30.bmp","190","image-keyboard-response","629","805204","0.0-21.0-2.16","c2_test",".","","","","."
"372.38500000245403","<p style=""color:white;""> Next Figure: Male or Female? </p>","190","html-keyboard-response","630","805580","0.0-21.0-0.17","prediction","","","",".",""
"null","<div style=""color:white; font-size:60px;"">+</div>","null","html-keyboard-response","631","806582","0.0-21.0-1.17","fixation","","","","",""
"476.8800000019837","Stimuli/Hangul_M31.bmp","190","image-keyboard-response","632","807060","0.0-21.0-2.17","c2_test",",","","","","."
"448.0550000007497","<p style=""color:white;""> Next Figure: Male or Female? </p>","188","html-keyboard-response","633","807509","0.0-21.0-0.18","prediction","","","",",",""
"null","<div style=""color:white; font-size:60px;"">+</div>","null","html-keyboard-response","634","808511","0.0-21.0-1.18","fixation","","","","",""
"1051.6349999961676","Stimuli/Hangul_F27.bmp","188","image-keyboard-response","635","809564","0.0-21.0-2.18","c2_test",".","","","",","
"296.7650000064168","<p style=""color:white;""> Next Figure: Male or Female? </p>","190","html-keyboard-response","636","809862","0.0-21.0-0.19","prediction","","","",".",""
"null","<div style=""color:white; font-size:60px;"">+</div>","null","html-keyboard-response","637","810864","0.0-21.0-1.19","fixation","","","","",""
"748.7699999983888","Stimuli/Hangul_M45.bmp","190","image-keyboard-response","638","811615","0.0-21.0-2.19","c2_test",",","","","","."
"420.12000000244007","<p style=""color:white;""> Next Figure: Male or Female? </p>","190","html-keyboard-response","639","812036","0.0-21.0-0.20","prediction","","","",".",""
"null","<div style=""color:white; font-size:60px;"">+</div>","null","html-keyboard-response","640","813037","0.0-21.0-1.20","fixation","","","","",""
"520.0550000008661","Stimuli/Hangul_M33.bmp","190","image-keyboard-response","641","813558","0.0-21.0-2.20","c2_test",",","","","","."
"302.12500000197906","<p style=""color:white;""> Next Figure: Male or Female? </p>","188","html-keyboard-response","642","813862","0.0-21.0-0.21","prediction","","","",",",""
"null","<div style=""color:white; font-size:60px;"">+</div>","null","html-keyboard-response","643","814863","0.0-21.0-1.21","fixation","","","","",""
"472.77999999630265","Stimuli/Hangul_F49.bmp","188","image-keyboard-response","644","815337","0.0-21.0-2.21","c2_test",".","","","",","
"389.05499999958556","<p style=""color:white;""> Next Figure: Male or Female? </p>","188","html-keyboard-response","645","815728","0.0-21.0-0.22","prediction","","","",",",""
"null","<div style=""color:white; font-size:60px;"">+</div>","null","html-keyboard-response","646","816729","0.0-21.0-1.22","fixation","","","","",""
"433.3950000000186","Stimuli/Hangul_F33.bmp","188","image-keyboard-response","647","817164","0.0-21.0-2.22","c2_test",".","","","",","
"278.8299999956507","<p style=""color:white;""> Next Figure: Male or Female? </p>","190","html-keyboard-response","648","817444","0.0-21.0-0.23","prediction","","","",".",""
"null","<div style=""color:white; font-size:60px;"">+</div>","null","html-keyboard-response","649","818445","0.0-21.0-1.23","fixation","","","","",""
"434.9049999945564","Stimuli/Hangul_M39.bmp","190","image-keyboard-response","650","818881","0.0-21.0-2.23","c2_test",",","","","","."
"401.5","<p style=""color:white;""> Next Figure: Male or Female? </p>","190","html-keyboard-response","651","819284","0.0-21.0-0.24","prediction","","","",".",""
"null","<div style=""color:white; font-size:60px;"">+</div>","null","html-keyboard-response","652","820285","0.0-21.0-1.24","fixation","","","","",""
"431.79000000236556","Stimuli/Hangul_F48.bmp","190","image-keyboard-response","653","820718","0.0-21.0-2.24","c2_test",".","","","","."
"327.5900000007823","<p style=""color:white;""> Next Figure: Male or Female? </p>","188","html-keyboard-response","654","821048","0.0-21.0-0.25","prediction","","","",",",""
"null","<div style=""color:white; font-size:60px;"">+</div>","null","html-keyboard-response","655","822049","0.0-21.0-1.25","fixation","","","","",""
"644.2349999996368","Stimuli/Hangul_M44.bmp","188","image-keyboard-response","656","822694","0.0-21.0-2.25","c2_test",",","","","",","
