"rt","stimulus","key_press","trial_type","trial_index","time_elapsed","internal_node_id","test_part","correct_response","C1_train","C1","A","C2"
"2866.000000038184","<p style=""color:white;"">Welcome to the experiment! Press any key to begin.</p>","76","html-keyboard-response","0","2876","0.0-0.0","","","","","",""
"35098.99999992922","<p style=""color:white;"">You will see a series of abstract figures. They are adaptations of signs in the Korean alphabet, but that is not important for this study. </p><p style=""color:white;"">Abstract figures sometimes have a more masculine or feminine shape. Here, each figure has already been assigned a gender as <q>Male</q> or <q>Female</q> by a panel of respondents in a pilot study. The respondents were not given specific instructions on how to do this, but were only told to use their intuition and to take into account the entire configuration of the stimulus. </p><p style=""color:white;"">Your task now is to guess the assigned gender of each figure. Please press the corresponding response keys to indicate your choice: </p><p style=""color:white;""> Male &#8594 <q>,</q> (comma)</p><p style=""color:white;""> Female &#8594 <q>.</q> (period)</p><p style=""color:white;"">Press either response keys to continue.</p>","190","html-keyboard-response","1","37978","0.0-1.0","","","","","",""
"13679.999999934807","<p style=""color:white;"">Your choice is correct if it matches the gender assigned by the majority of respondents in the pilot study.</p> <p style=""color:white;"">For each correct choice you will receive 2 cents. There will be 200 trials divided into 4 blocks of 50 trials. You will be able to take a break after every 50 trials.</p> <p style=""color:white;"">Press the space bar to continue.</p>","32","html-keyboard-response","2","51659","0.0-2.0","","","","","",""
"4982.000000076368","<p style=""color:white;"">Here are some examples.</p> <p style=""color:white;"">For each, guess whether the assigned figure is male-like or female-like and indicate your choice by pressing either response keys.</p> <p style=""color:white;"">Press the space bar to continue.</p>","32","html-keyboard-response","3","56642","0.0-3.0","","","","","",""
"null","<div style=""color:white; font-size:60px;"">+</div>","null","html-keyboard-response","4","59645","0.0-4.0-0.0","fixation","","","","",""
"4603.000000002794","Stimuli/Hangul_E1.bmp","188","image-keyboard-response","5","64251","0.0-4.0-1.0","c1_train",",",",","","",""
"null","<div style=""color:white; font-size:60px;"">+</div>","null","html-keyboard-response","6","65253","0.0-4.0-0.1","fixation","","","","",""
"4251.000000047497","Stimuli/Hangul_E2.bmp","190","image-keyboard-response","7","69506","0.0-4.0-1.1","c1_train",".",".","","",""
"null","<div style=""color:white; font-size:60px;"">+</div>","null","html-keyboard-response","8","70506","0.0-4.0-0.2","fixation","","","","",""
"4068.99999990128","Stimuli/Hangul_E0.bmp","188","image-keyboard-response","9","74578","0.0-4.0-1.2","c1_train",",",",","","",""
"7942.999999970198","<p style=""color:white;"">Let us begin! Press the space bar when you are ready to start block 1 of 4.</p> ","32","html-keyboard-response","10","82522","0.0-5.0","","","","","",""
"null","<div style=""color:white; font-size:60px;"">+</div>","null","html-keyboard-response","11","85522","0.0-6.0-0.0","fixation","","","","",""
"4607.000000076368","Stimuli/Hangul_F16.bmp","188","image-keyboard-response","12","90130","0.0-6.0-1.0","test",".","",",","",""
"null","<div style=""color:white; font-size:60px;"">+</div>","null","html-keyboard-response","13","91131","0.0-6.0-0.1","fixation","","","","",""
"4694.000000017695","Stimuli/Hangul_F20.bmp","190","image-keyboard-response","14","95826","0.0-6.0-1.1","test",".","",".","",""
"null","<div style=""color:white; font-size:60px;"">+</div>","null","html-keyboard-response","15","96827","0.0-6.0-0.2","fixation","","","","",""
"3796.999999904074","Stimuli/Hangul_M22.bmp","188","image-keyboard-response","16","100626","0.0-6.0-1.2","test",",","",",","",""
"null","<div style=""color:white; font-size:60px;"">+</div>","null","html-keyboard-response","17","101627","0.0-6.0-0.3","fixation","","","","",""
"4340.999999898486","Stimuli/Hangul_F10.bmp","190","image-keyboard-response","18","105969","0.0-6.0-1.3","test",".","",".","",""
"null","<div style=""color:white; font-size:60px;"">+</div>","null","html-keyboard-response","19","106971","0.0-6.0-0.4","fixation","","","","",""
"3869.0000000642613","Stimuli/Hangul_F3.bmp","190","image-keyboard-response","20","110842","0.0-6.0-1.4","test",".","",".","",""
"null","<div style=""color:white; font-size:60px;"">+</div>","null","html-keyboard-response","21","111842","0.0-6.0-0.5","fixation","","","","",""
"4086.0000000102445","Stimuli/Hangul_M17.bmp","188","image-keyboard-response","22","115930","0.0-6.0-1.5","test",",","",",","",""
"null","<div style=""color:white; font-size:60px;"">+</div>","null","html-keyboard-response","23","116932","0.0-6.0-0.6","fixation","","","","",""
"3322.9999999748543","Stimuli/Hangul_F22.bmp","188","image-keyboard-response","24","120257","0.0-6.0-1.6","test",".","",",","",""
"null","<div style=""color:white; font-size:60px;"">+</div>","null","html-keyboard-response","25","121266","0.0-6.0-0.7","fixation","","","","",""
"4028.999999980442","Stimuli/Hangul_M8.bmp","190","image-keyboard-response","26","125298","0.0-6.0-1.7","test",",","",".","",""
"null","<div style=""color:white; font-size:60px;"">+</div>","null","html-keyboard-response","27","126300","0.0-6.0-0.8","fixation","","","","",""
"4154.999999911524","Stimuli/Hangul_F6.bmp","188","image-keyboard-response","28","130456","0.0-6.0-1.8","test",".","",",","",""
"null","<div style=""color:white; font-size:60px;"">+</div>","null","html-keyboard-response","29","131458","0.0-6.0-0.9","fixation","","","","",""
"4292.999999946915","Stimuli/Hangul_M6.bmp","190","image-keyboard-response","30","135753","0.0-6.0-1.9","test",",","",".","",""
"null","<div style=""color:white; font-size:60px;"">+</div>","null","html-keyboard-response","31","136754","0.0-6.0-0.10","fixation","","","","",""
"4739.999999990687","Stimuli/Hangul_M19.bmp","188","image-keyboard-response","32","141496","0.0-6.0-1.10","test",",","",",","",""
"null","<div style=""color:white; font-size:60px;"">+</div>","null","html-keyboard-response","33","142497","0.0-6.0-0.11","fixation","","","","",""
"3991.000000038184","Stimuli/Hangul_M20.bmp","188","image-keyboard-response","34","146489","0.0-6.0-1.11","test",",","",",","",""
"null","<div style=""color:white; font-size:60px;"">+</div>","null","html-keyboard-response","35","147491","0.0-6.0-0.12","fixation","","","","",""
"5635.999999940395","Stimuli/Hangul_F0.bmp","188","image-keyboard-response","36","153128","0.0-6.0-1.12","test",".","",",","",""
"null","<div style=""color:white; font-size:60px;"">+</div>","null","html-keyboard-response","37","154130","0.0-6.0-0.13","fixation","","","","",""
"3758.0000000307336","Stimuli/Hangul_F11.bmp","190","image-keyboard-response","38","157889","0.0-6.0-1.13","test",".","",".","",""
"null","<div style=""color:white; font-size:60px;"">+</div>","null","html-keyboard-response","39","158891","0.0-6.0-0.14","fixation","","","","",""
"2564.0000000130385","Stimuli/Hangul_F4.bmp","190","image-keyboard-response","40","161456","0.0-6.0-1.14","test",".","",".","",""
"null","<div style=""color:white; font-size:60px;"">+</div>","null","html-keyboard-response","41","162457","0.0-6.0-0.15","fixation","","","","",""
"5054.000000003725","Stimuli/Hangul_F5.bmp","190","image-keyboard-response","42","167512","0.0-6.0-1.15","test",".","",".","",""
"null","<div style=""color:white; font-size:60px;"">+</div>","null","html-keyboard-response","43","168513","0.0-6.0-0.16","fixation","","","","",""
"4342.999999993481","Stimuli/Hangul_M15.bmp","190","image-keyboard-response","44","172857","0.0-6.0-1.16","test",",","",".","",""
"null","<div style=""color:white; font-size:60px;"">+</div>","null","html-keyboard-response","45","173858","0.0-6.0-0.17","fixation","","","","",""
"7044.000000110827","Stimuli/Hangul_M16.bmp","190","image-keyboard-response","46","180904","0.0-6.0-1.17","test",",","",".","",""
"null","<div style=""color:white; font-size:60px;"">+</div>","null","html-keyboard-response","47","181906","0.0-6.0-0.18","fixation","","","","",""
"4110.999999917112","Stimuli/Hangul_F12.bmp","190","image-keyboard-response","48","186019","0.0-6.0-1.18","test",".","",".","",""
"null","<div style=""color:white; font-size:60px;"">+</div>","null","html-keyboard-response","49","187019","0.0-6.0-0.19","fixation","","","","",""
"3940.999999991618","Stimuli/Hangul_M2.bmp","188","image-keyboard-response","50","190962","0.0-6.0-1.19","test",",","",",","",""
"null","<div style=""color:white; font-size:60px;"">+</div>","null","html-keyboard-response","51","191962","0.0-6.0-0.20","fixation","","","","",""
"3740.000000107102","Stimuli/Hangul_M7.bmp","188","image-keyboard-response","52","195706","0.0-6.0-1.20","test",",","",",","",""
"null","<div style=""color:white; font-size:60px;"">+</div>","null","html-keyboard-response","53","196707","0.0-6.0-0.21","fixation","","","","",""
"4565.999999991618","Stimuli/Hangul_F15.bmp","188","image-keyboard-response","54","201275","0.0-6.0-1.21","test",".","",",","",""
"null","<div style=""color:white; font-size:60px;"">+</div>","null","html-keyboard-response","55","202275","0.0-6.0-0.22","fixation","","","","",""
"3966.000000014901","Stimuli/Hangul_F17.bmp","190","image-keyboard-response","56","206242","0.0-6.0-1.22","test",".","",".","",""
"null","<div style=""color:white; font-size:60px;"">+</div>","null","html-keyboard-response","57","207243","0.0-6.0-0.23","fixation","","","","",""
"3773.0000000447035","Stimuli/Hangul_F21.bmp","190","image-keyboard-response","58","211017","0.0-6.0-1.23","test",".","",".","",""
"null","<div style=""color:white; font-size:60px;"">+</div>","null","html-keyboard-response","59","212020","0.0-6.0-0.24","fixation","","","","",""
"4373.00000002142","Stimuli/Hangul_M24.bmp","188","image-keyboard-response","60","216394","0.0-6.0-1.24","test",",","",",","",""
"null","<div style=""color:white; font-size:60px;"">+</div>","null","html-keyboard-response","61","217395","0.0-6.0-0.25","fixation","","","","",""
"3782.0000000065193","Stimuli/Hangul_F14.bmp","190","image-keyboard-response","62","221178","0.0-6.0-1.25","test",".","",".","",""
"null","<div style=""color:white; font-size:60px;"">+</div>","null","html-keyboard-response","63","222180","0.0-6.0-0.26","fixation","","","","",""
"6539.999999920838","Stimuli/Hangul_M4.bmp","188","image-keyboard-response","64","228722","0.0-6.0-1.26","test",",","",",","",""
"null","<div style=""color:white; font-size:60px;"">+</div>","null","html-keyboard-response","65","229723","0.0-6.0-0.27","fixation","","","","",""
"3099.999999976717","Stimuli/Hangul_M5.bmp","188","image-keyboard-response","66","232825","0.0-6.0-1.27","test",",","",",","",""
"null","<div style=""color:white; font-size:60px;"">+</div>","null","html-keyboard-response","67","233826","0.0-6.0-0.28","fixation","","","","",""
"2911.0000000800937","Stimuli/Hangul_F7.bmp","188","image-keyboard-response","68","236738","0.0-6.0-1.28","test",".","",",","",""
"null","<div style=""color:white; font-size:60px;"">+</div>","null","html-keyboard-response","69","237743","0.0-6.0-0.29","fixation","","","","",""
"3890.00000001397","Stimuli/Hangul_M9.bmp","190","image-keyboard-response","70","241634","0.0-6.0-1.29","test",",","",".","",""
"null","<div style=""color:white; font-size:60px;"">+</div>","null","html-keyboard-response","71","242635","0.0-6.0-0.30","fixation","","","","",""
"4180.000000051223","Stimuli/Hangul_F2.bmp","190","image-keyboard-response","72","246817","0.0-6.0-1.30","test",".","",".","",""
"null","<div style=""color:white; font-size:60px;"">+</div>","null","html-keyboard-response","73","247818","0.0-6.0-0.31","fixation","","","","",""
"4574.000000022352","Stimuli/Hangul_F9.bmp","190","image-keyboard-response","74","252393","0.0-6.0-1.31","test",".","",".","",""
"null","<div style=""color:white; font-size:60px;"">+</div>","null","html-keyboard-response","75","253394","0.0-6.0-0.32","fixation","","","","",""
"5373.00000002142","Stimuli/Hangul_M1.bmp","190","image-keyboard-response","76","258769","0.0-6.0-1.32","test",",","",".","",""
"null","<div style=""color:white; font-size:60px;"">+</div>","null","html-keyboard-response","77","259770","0.0-6.0-0.33","fixation","","","","",""
"4444.000000017695","Stimuli/Hangul_F19.bmp","188","image-keyboard-response","78","264217","0.0-6.0-1.33","test",".","",",","",""
"null","<div style=""color:white; font-size:60px;"">+</div>","null","html-keyboard-response","79","265218","0.0-6.0-0.34","fixation","","","","",""
"3734.000000054948","Stimuli/Hangul_F24.bmp","188","image-keyboard-response","80","268953","0.0-6.0-1.34","test",".","",",","",""
"null","<div style=""color:white; font-size:60px;"">+</div>","null","html-keyboard-response","81","269954","0.0-6.0-0.35","fixation","","","","",""
"5029.999999911524","Stimuli/Hangul_M13.bmp","190","image-keyboard-response","82","274985","0.0-6.0-1.35","test",",","",".","",""
"null","<div style=""color:white; font-size:60px;"">+</div>","null","html-keyboard-response","83","275986","0.0-6.0-0.36","fixation","","","","",""
"4548.999999999069","Stimuli/Hangul_M12.bmp","188","image-keyboard-response","84","280536","0.0-6.0-1.36","test",",","",",","",""
"null","<div style=""color:white; font-size:60px;"">+</div>","null","html-keyboard-response","85","281538","0.0-6.0-0.37","fixation","","","","",""
"5829.000000027008","Stimuli/Hangul_M10.bmp","188","image-keyboard-response","86","287369","0.0-6.0-1.37","test",",","",",","",""
"null","<div style=""color:white; font-size:60px;"">+</div>","null","html-keyboard-response","87","288370","0.0-6.0-0.38","fixation","","","","",""
"3925.000000046566","Stimuli/Hangul_F18.bmp","190","image-keyboard-response","88","292296","0.0-6.0-1.38","test",".","",".","",""
"null","<div style=""color:white; font-size:60px;"">+</div>","null","html-keyboard-response","89","293297","0.0-6.0-0.39","fixation","","","","",""
"4262.999999918975","Stimuli/Hangul_F13.bmp","188","image-keyboard-response","90","297561","0.0-6.0-1.39","test",".","",",","",""
"null","<div style=""color:white; font-size:60px;"">+</div>","null","html-keyboard-response","91","298561","0.0-6.0-0.40","fixation","","","","",""
"4631.000000052154","Stimuli/Hangul_F23.bmp","190","image-keyboard-response","92","303194","0.0-6.0-1.40","test",".","",".","",""
"null","<div style=""color:white; font-size:60px;"">+</div>","null","html-keyboard-response","93","304195","0.0-6.0-0.41","fixation","","","","",""
"5405.00000002794","Stimuli/Hangul_M3.bmp","190","image-keyboard-response","94","309601","0.0-6.0-1.41","test",",","",".","",""
"null","<div style=""color:white; font-size:60px;"">+</div>","null","html-keyboard-response","95","310602","0.0-6.0-0.42","fixation","","","","",""
"3893.000000040047","Stimuli/Hangul_M0.bmp","190","image-keyboard-response","96","314497","0.0-6.0-1.42","test",",","",".","",""
"null","<div style=""color:white; font-size:60px;"">+</div>","null","html-keyboard-response","97","315498","0.0-6.0-0.43","fixation","","","","",""
"2373.0000000214204","Stimuli/Hangul_F8.bmp","190","image-keyboard-response","98","317873","0.0-6.0-1.43","test",".","",".","",""
"null","<div style=""color:white; font-size:60px;"">+</div>","null","html-keyboard-response","99","318873","0.0-6.0-0.44","fixation","","","","",""
"3878.000000026077","Stimuli/Hangul_M23.bmp","188","image-keyboard-response","100","322753","0.0-6.0-1.44","test",",","",",","",""
"null","<div style=""color:white; font-size:60px;"">+</div>","null","html-keyboard-response","101","323753","0.0-6.0-0.45","fixation","","","","",""
"6997.000000090338","Stimuli/Hangul_M14.bmp","188","image-keyboard-response","102","330752","0.0-6.0-1.45","test",",","",",","",""
"null","<div style=""color:white; font-size:60px;"">+</div>","null","html-keyboard-response","103","331753","0.0-6.0-0.46","fixation","","","","",""
"2758.999999961816","Stimuli/Hangul_M21.bmp","188","image-keyboard-response","104","334513","0.0-6.0-1.46","test",",","",",","",""
"null","<div style=""color:white; font-size:60px;"">+</div>","null","html-keyboard-response","105","335514","0.0-6.0-0.47","fixation","","","","",""
"3645.0000000186265","Stimuli/Hangul_F1.bmp","190","image-keyboard-response","106","339160","0.0-6.0-1.47","test",".","",".","",""
"null","<div style=""color:white; font-size:60px;"">+</div>","null","html-keyboard-response","107","340161","0.0-6.0-0.48","fixation","","","","",""
"5974.999999976717","Stimuli/Hangul_M18.bmp","188","image-keyboard-response","108","346137","0.0-6.0-1.48","test",",","",",","",""
"null","<div style=""color:white; font-size:60px;"">+</div>","null","html-keyboard-response","109","347138","0.0-6.0-0.49","fixation","","","","",""
"4180.999999982305","Stimuli/Hangul_M11.bmp","190","image-keyboard-response","110","351320","0.0-6.0-1.49","test",",","",".","",""
"6024.000000092201","<p style=""color:white;"">Good job, block 1 complete! Please take a moment to rest.</p> <p style=""color:white;"">When you are ready to continue with block 2 of 4, press the space bar.</p> ","32","html-keyboard-response","111","357345","0.0-7.0","","","","","",""
"null","<div style=""color:white; font-size:60px;"">+</div>","null","html-keyboard-response","112","360347","0.0-8.0-0.0","fixation","","","","",""
"2523.0000000447035","Stimuli/Hangul_F39.bmp","190","image-keyboard-response","113","362872","0.0-8.0-1.0","test",".","",".","",""
"null","<div style=""color:white; font-size:60px;"">+</div>","null","html-keyboard-response","114","363874","0.0-8.0-0.1","fixation","","","","",""
"4167.0000000158325","Stimuli/Hangul_M25.bmp","190","image-keyboard-response","115","368042","0.0-8.0-1.1","test",",","",".","",""
"null","<div style=""color:white; font-size:60px;"">+</div>","null","html-keyboard-response","116","369044","0.0-8.0-0.2","fixation","","","","",""
"4060.0000000558794","Stimuli/Hangul_F26.bmp","188","image-keyboard-response","117","373106","0.0-8.0-1.2","test",".","",",","",""
"null","<div style=""color:white; font-size:60px;"">+</div>","null","html-keyboard-response","118","374107","0.0-8.0-0.3","fixation","","","","",""
"4420.0000000419095","Stimuli/Hangul_M49.bmp","190","image-keyboard-response","119","378530","0.0-8.0-1.3","test",",","",".","",""
"null","<div style=""color:white; font-size:60px;"">+</div>","null","html-keyboard-response","120","379531","0.0-8.0-0.4","fixation","","","","",""
"2475.0000000931323","Stimuli/Hangul_F27.bmp","188","image-keyboard-response","121","382010","0.0-8.0-1.4","test",".","",",","",""
"null","<div style=""color:white; font-size:60px;"">+</div>","null","html-keyboard-response","122","383013","0.0-8.0-0.5","fixation","","","","",""
"3629.0000000735745","Stimuli/Hangul_F44.bmp","190","image-keyboard-response","123","386642","0.0-8.0-1.5","test",".","",".","",""
"null","<div style=""color:white; font-size:60px;"">+</div>","null","html-keyboard-response","124","387643","0.0-8.0-0.6","fixation","","","","",""
"6893.999999971129","Stimuli/Hangul_M44.bmp","188","image-keyboard-response","125","394538","0.0-8.0-1.6","test",",","",",","",""
"null","<div style=""color:white; font-size:60px;"">+</div>","null","html-keyboard-response","126","395539","0.0-8.0-0.7","fixation","","","","",""
"3668.999999994412","Stimuli/Hangul_F49.bmp","188","image-keyboard-response","127","399210","0.0-8.0-1.7","test",".","",",","",""
"null","<div style=""color:white; font-size:60px;"">+</div>","null","html-keyboard-response","128","400211","0.0-8.0-0.8","fixation","","","","",""
"4589.000000036322","Stimuli/Hangul_M32.bmp","188","image-keyboard-response","129","404802","0.0-8.0-1.8","test",",","",",","",""
"null","<div style=""color:white; font-size:60px;"">+</div>","null","html-keyboard-response","130","405803","0.0-8.0-0.9","fixation","","","","",""
"3812.999999965541","Stimuli/Hangul_F31.bmp","190","image-keyboard-response","131","409618","0.0-8.0-1.9","test",".","",".","",""
"null","<div style=""color:white; font-size:60px;"">+</div>","null","html-keyboard-response","132","410618","0.0-8.0-0.10","fixation","","","","",""
"2983.0000000074506","Stimuli/Hangul_F36.bmp","188","image-keyboard-response","133","413602","0.0-8.0-1.10","test",".","",",","",""
"null","<div style=""color:white; font-size:60px;"">+</div>","null","html-keyboard-response","134","414602","0.0-8.0-0.11","fixation","","","","",""
"7230.999999912456","Stimuli/Hangul_M41.bmp","190","image-keyboard-response","135","421834","0.0-8.0-1.11","test",",","",".","",""
"null","<div style=""color:white; font-size:60px;"">+</div>","null","html-keyboard-response","136","422836","0.0-8.0-0.12","fixation","","","","",""
"3188.0000000819564","Stimuli/Hangul_F32.bmp","190","image-keyboard-response","137","426024","0.0-8.0-1.12","test",".","",".","",""
"null","<div style=""color:white; font-size:60px;"">+</div>","null","html-keyboard-response","138","427025","0.0-8.0-0.13","fixation","","","","",""
"3805.999999982305","Stimuli/Hangul_M35.bmp","188","image-keyboard-response","139","430833","0.0-8.0-1.13","test",",","",",","",""
"null","<div style=""color:white; font-size:60px;"">+</div>","null","html-keyboard-response","140","431833","0.0-8.0-0.14","fixation","","","","",""
"4327.000000048429","Stimuli/Hangul_M40.bmp","190","image-keyboard-response","141","436162","0.0-8.0-1.14","test",",","",".","",""
"null","<div style=""color:white; font-size:60px;"">+</div>","null","html-keyboard-response","142","437164","0.0-8.0-0.15","fixation","","","","",""
"3809.999999939464","Stimuli/Hangul_F46.bmp","188","image-keyboard-response","143","440976","0.0-8.0-1.15","test",".","",",","",""
"null","<div style=""color:white; font-size:60px;"">+</div>","null","html-keyboard-response","144","441978","0.0-8.0-0.16","fixation","","","","",""
"6079.000000027008","Stimuli/Hangul_M26.bmp","190","image-keyboard-response","145","448058","0.0-8.0-1.16","test",",","",".","",""
"null","<div style=""color:white; font-size:60px;"">+</div>","null","html-keyboard-response","146","449059","0.0-8.0-0.17","fixation","","","","",""
"3291.0000000847504","Stimuli/Hangul_M27.bmp","190","image-keyboard-response","147","452352","0.0-8.0-1.17","test",",","",".","",""
"null","<div style=""color:white; font-size:60px;"">+</div>","null","html-keyboard-response","148","453354","0.0-8.0-0.18","fixation","","","","",""
"3677.999999956228","Stimuli/Hangul_F37.bmp","190","image-keyboard-response","149","457032","0.0-8.0-1.18","test",".","",".","",""
"null","<div style=""color:white; font-size:60px;"">+</div>","null","html-keyboard-response","150","458033","0.0-8.0-0.19","fixation","","","","",""
"5399.000000092201","Stimuli/Hangul_F47.bmp","188","image-keyboard-response","151","463434","0.0-8.0-1.19","test",".","",",","",""
"null","<div style=""color:white; font-size:60px;"">+</div>","null","html-keyboard-response","152","464434","0.0-8.0-0.20","fixation","","","","",""
"3917.0000000158325","Stimuli/Hangul_M33.bmp","188","image-keyboard-response","153","468353","0.0-8.0-1.20","test",",","",",","",""
"null","<div style=""color:white; font-size:60px;"">+</div>","null","html-keyboard-response","154","469353","0.0-8.0-0.21","fixation","","","","",""
"4327.000000048429","Stimuli/Hangul_M45.bmp","188","image-keyboard-response","155","473682","0.0-8.0-1.21","test",",","",",","",""
"null","<div style=""color:white; font-size:60px;"">+</div>","null","html-keyboard-response","156","474682","0.0-8.0-0.22","fixation","","","","",""
"5765.00000001397","Stimuli/Hangul_M46.bmp","190","image-keyboard-response","157","480449","0.0-8.0-1.22","test",",","",".","",""
"null","<div style=""color:white; font-size:60px;"">+</div>","null","html-keyboard-response","158","481451","0.0-8.0-0.23","fixation","","","","",""
"2587.999999988824","Stimuli/Hangul_F40.bmp","188","image-keyboard-response","159","484042","0.0-8.0-1.23","test",".","",",","",""
"null","<div style=""color:white; font-size:60px;"">+</div>","null","html-keyboard-response","160","485044","0.0-8.0-0.24","fixation","","","","",""
"3276.0000000707805","Stimuli/Hangul_M38.bmp","188","image-keyboard-response","161","488321","0.0-8.0-1.24","test",",","",",","",""
"null","<div style=""color:white; font-size:60px;"">+</div>","null","html-keyboard-response","162","489323","0.0-8.0-0.25","fixation","","","","",""
"4565.999999991618","Stimuli/Hangul_M47.bmp","190","image-keyboard-response","163","493891","0.0-8.0-1.25","test",",","",".","",""
"null","<div style=""color:white; font-size:60px;"">+</div>","null","html-keyboard-response","164","494891","0.0-8.0-0.26","fixation","","","","",""
"4237.000000081025","Stimuli/Hangul_M48.bmp","190","image-keyboard-response","165","499130","0.0-8.0-1.26","test",",","",".","",""
"null","<div style=""color:white; font-size:60px;"">+</div>","null","html-keyboard-response","166","500132","0.0-8.0-0.27","fixation","","","","",""
"5732.999999891035","Stimuli/Hangul_M30.bmp","190","image-keyboard-response","167","505866","0.0-8.0-1.27","test",",","",".","",""
"null","<div style=""color:white; font-size:60px;"">+</div>","null","html-keyboard-response","168","506867","0.0-8.0-0.28","fixation","","","","",""
"3653.00000004936","Stimuli/Hangul_F35.bmp","190","image-keyboard-response","169","510522","0.0-8.0-1.28","test",".","",".","",""
"null","<div style=""color:white; font-size:60px;"">+</div>","null","html-keyboard-response","170","511523","0.0-8.0-0.29","fixation","","","","",""
"3645.9999999497086","Stimuli/Hangul_M31.bmp","188","image-keyboard-response","171","515170","0.0-8.0-1.29","test",",","",",","",""
"null","<div style=""color:white; font-size:60px;"">+</div>","null","html-keyboard-response","172","516170","0.0-8.0-0.30","fixation","","","","",""
"2396.999999997206","Stimuli/Hangul_M28.bmp","188","image-keyboard-response","173","518570","0.0-8.0-1.30","test",",","",",","",""
"null","<div style=""color:white; font-size:60px;"">+</div>","null","html-keyboard-response","174","519570","0.0-8.0-0.31","fixation","","","","",""
"3856.000000028871","Stimuli/Hangul_M39.bmp","190","image-keyboard-response","175","523427","0.0-8.0-1.31","test",",","",".","",""
"null","<div style=""color:white; font-size:60px;"">+</div>","null","html-keyboard-response","176","524429","0.0-8.0-0.32","fixation","","","","",""
"2724.000000045635","Stimuli/Hangul_F25.bmp","188","image-keyboard-response","177","527154","0.0-8.0-1.32","test",".","",",","",""
"null","<div style=""color:white; font-size:60px;"">+</div>","null","html-keyboard-response","178","528156","0.0-8.0-0.33","fixation","","","","",""
"4125","Stimuli/Hangul_F43.bmp","190","image-keyboard-response","179","532282","0.0-8.0-1.33","test",".","",".","",""
"null","<div style=""color:white; font-size:60px;"">+</div>","null","html-keyboard-response","180","533283","0.0-8.0-0.34","fixation","","","","",""
"4141.999999992549","Stimuli/Hangul_M43.bmp","190","image-keyboard-response","181","537427","0.0-8.0-1.34","test",",","",".","",""
"null","<div style=""color:white; font-size:60px;"">+</div>","null","html-keyboard-response","182","538427","0.0-8.0-0.35","fixation","","","","",""
"2387.999999918975","Stimuli/Hangul_M36.bmp","188","image-keyboard-response","183","540818","0.0-8.0-1.35","test",",","",",","",""
"null","<div style=""color:white; font-size:60px;"">+</div>","null","html-keyboard-response","184","541818","0.0-8.0-0.36","fixation","","","","",""
"2341.9999999459833","Stimuli/Hangul_F41.bmp","188","image-keyboard-response","185","544160","0.0-8.0-1.36","test",".","",",","",""
"null","<div style=""color:white; font-size:60px;"">+</div>","null","html-keyboard-response","186","545161","0.0-8.0-0.37","fixation","","","","",""
"2263.0000000353903","Stimuli/Hangul_F30.bmp","190","image-keyboard-response","187","547425","0.0-8.0-1.37","test",".","",".","",""
"null","<div style=""color:white; font-size:60px;"">+</div>","null","html-keyboard-response","188","548425","0.0-8.0-0.38","fixation","","","","",""
"3558.9999998919666","Stimuli/Hangul_M34.bmp","188","image-keyboard-response","189","551986","0.0-8.0-1.38","test",",","",",","",""
"null","<div style=""color:white; font-size:60px;"">+</div>","null","html-keyboard-response","190","552990","0.0-8.0-0.39","fixation","","","","",""
"4033.999999985099","Stimuli/Hangul_M42.bmp","190","image-keyboard-response","191","557025","0.0-8.0-1.39","test",",","",".","",""
"null","<div style=""color:white; font-size:60px;"">+</div>","null","html-keyboard-response","192","558027","0.0-8.0-0.40","fixation","","","","",""
"4716.999999945983","Stimuli/Hangul_M29.bmp","190","image-keyboard-response","193","562745","0.0-8.0-1.40","test",",","",".","",""
"null","<div style=""color:white; font-size:60px;"">+</div>","null","html-keyboard-response","194","563746","0.0-8.0-0.41","fixation","","","","",""
"3692.9999999701977","Stimuli/Hangul_F33.bmp","190","image-keyboard-response","195","567441","0.0-8.0-1.41","test",".","",".","",""
"null","<div style=""color:white; font-size:60px;"">+</div>","null","html-keyboard-response","196","568441","0.0-8.0-0.42","fixation","","","","",""
"3773.9999999757856","Stimuli/Hangul_F28.bmp","188","image-keyboard-response","197","572216","0.0-8.0-1.42","test",".","",",","",""
"null","<div style=""color:white; font-size:60px;"">+</div>","null","html-keyboard-response","198","573217","0.0-8.0-0.43","fixation","","","","",""
"4032.0000000065193","Stimuli/Hangul_F38.bmp","190","image-keyboard-response","199","577250","0.0-8.0-1.43","test",".","",".","",""
"null","<div style=""color:white; font-size:60px;"">+</div>","null","html-keyboard-response","200","578251","0.0-8.0-0.44","fixation","","","","",""
"3515.999999945052","Stimuli/Hangul_F34.bmp","190","image-keyboard-response","201","581769","0.0-8.0-1.44","test",".","",".","",""
"null","<div style=""color:white; font-size:60px;"">+</div>","null","html-keyboard-response","202","582770","0.0-8.0-0.45","fixation","","","","",""
"4260.999999940395","Stimuli/Hangul_M37.bmp","190","image-keyboard-response","203","587032","0.0-8.0-1.45","test",",","",".","",""
"null","<div style=""color:white; font-size:60px;"">+</div>","null","html-keyboard-response","204","588033","0.0-8.0-0.46","fixation","","","","",""
"2431.00000009872","Stimuli/Hangul_F48.bmp","188","image-keyboard-response","205","590465","0.0-8.0-1.46","test",".","",",","",""
"null","<div style=""color:white; font-size:60px;"">+</div>","null","html-keyboard-response","206","591466","0.0-8.0-0.47","fixation","","","","",""
"2236.9999999646097","Stimuli/Hangul_F42.bmp","190","image-keyboard-response","207","593704","0.0-8.0-1.47","test",".","",".","",""
"null","<div style=""color:white; font-size:60px;"">+</div>","null","html-keyboard-response","208","594705","0.0-8.0-0.48","fixation","","","","",""
"2255.0000000046566","Stimuli/Hangul_F29.bmp","190","image-keyboard-response","209","596960","0.0-8.0-1.48","test",".","",".","",""
"null","<div style=""color:white; font-size:60px;"">+</div>","null","html-keyboard-response","210","597961","0.0-8.0-0.49","fixation","","","","",""
"3694.9999999487773","Stimuli/Hangul_F45.bmp","188","image-keyboard-response","211","601658","0.0-8.0-1.49","test",".","",",","",""
"3774.000000092201","<p style=""color:white;"">Half way there! Please take a moment to rest.</p> <p style=""color:white;"">When you are ready to continue with block 3 of 4, press the space bar.</p> ","32","html-keyboard-response","212","605434","0.0-9.0","","","","","",""
"null","<div style=""color:white; font-size:60px;"">+</div>","null","html-keyboard-response","213","608436","0.0-10.0-0.0","fixation","","","","",""
"2652.0000000018626","Stimuli/Hangul_M53.bmp","190","image-keyboard-response","214","611089","0.0-10.0-1.0","test",",","",".","",""
"null","<div style=""color:white; font-size:60px;"">+</div>","null","html-keyboard-response","215","612090","0.0-10.0-0.1","fixation","","","","",""
"3734.99999998603","Stimuli/Hangul_M55.bmp","190","image-keyboard-response","216","615825","0.0-10.0-1.1","test",",","",".","",""
"null","<div style=""color:white; font-size:60px;"">+</div>","null","html-keyboard-response","217","616826","0.0-10.0-0.2","fixation","","","","",""
"2564.9999999441206","Stimuli/Hangul_F68.bmp","190","image-keyboard-response","218","619393","0.0-10.0-1.2","test",".","",".","",""
"null","<div style=""color:white; font-size:60px;"">+</div>","null","html-keyboard-response","219","620395","0.0-10.0-0.3","fixation","","","","",""
"2756.999999983236","Stimuli/Hangul_M68.bmp","188","image-keyboard-response","220","623153","0.0-10.0-1.3","test",",","",",","",""
"null","<div style=""color:white; font-size:60px;"">+</div>","null","html-keyboard-response","221","624154","0.0-10.0-0.4","fixation","","","","",""
"2398.9999999757856","Stimuli/Hangul_M71.bmp","188","image-keyboard-response","222","626554","0.0-10.0-1.4","test",",","",",","",""
"null","<div style=""color:white; font-size:60px;"">+</div>","null","html-keyboard-response","223","627555","0.0-10.0-0.5","fixation","","","","",""
"2355.9999999124557","Stimuli/Hangul_M60.bmp","188","image-keyboard-response","224","629912","0.0-10.0-1.5","test",",","",",","",""
"null","<div style=""color:white; font-size:60px;"">+</div>","null","html-keyboard-response","225","630914","0.0-10.0-0.6","fixation","","","","",""
"3739.999999990687","Stimuli/Hangul_F67.bmp","188","image-keyboard-response","226","634657","0.0-10.0-1.6","test",".","",",","",""
"null","<div style=""color:white; font-size:60px;"">+</div>","null","html-keyboard-response","227","635658","0.0-10.0-0.7","fixation","","","","",""
"3622.0000000903383","Stimuli/Hangul_F65.bmp","190","image-keyboard-response","228","639281","0.0-10.0-1.7","test",".","",".","",""
"null","<div style=""color:white; font-size:60px;"">+</div>","null","html-keyboard-response","229","640282","0.0-10.0-0.8","fixation","","","","",""
"3020.9999999497086","Stimuli/Hangul_M67.bmp","190","image-keyboard-response","230","643304","0.0-10.0-1.8","test",",","",".","",""
"null","<div style=""color:white; font-size:60px;"">+</div>","null","html-keyboard-response","231","644306","0.0-10.0-0.9","fixation","","","","",""
"3604.9999999813735","Stimuli/Hangul_F51.bmp","190","image-keyboard-response","232","647912","0.0-10.0-1.9","test",".","",".","",""
"null","<div style=""color:white; font-size:60px;"">+</div>","null","html-keyboard-response","233","648914","0.0-10.0-0.10","fixation","","","","",""
"5335.000000079162","Stimuli/Hangul_M62.bmp","190","image-keyboard-response","234","654250","0.0-10.0-1.10","test",",","",".","",""
"null","<div style=""color:white; font-size:60px;"">+</div>","null","html-keyboard-response","235","655250","0.0-10.0-0.11","fixation","","","","",""
"4229.999999981374","Stimuli/Hangul_M58.bmp","190","image-keyboard-response","236","659481","0.0-10.0-1.11","test",",","",".","",""
"null","<div style=""color:white; font-size:60px;"">+</div>","null","html-keyboard-response","237","660482","0.0-10.0-0.12","fixation","","","","",""
"3701.0000000009313","Stimuli/Hangul_F55.bmp","188","image-keyboard-response","238","664184","0.0-10.0-1.12","test",".","",",","",""
"null","<div style=""color:white; font-size:60px;"">+</div>","null","html-keyboard-response","239","665185","0.0-10.0-0.13","fixation","","","","",""
"3407.0000000065193","Stimuli/Hangul_F56.bmp","190","image-keyboard-response","240","668595","0.0-10.0-1.13","test",".","",".","",""
"null","<div style=""color:white; font-size:60px;"">+</div>","null","html-keyboard-response","241","669596","0.0-10.0-0.14","fixation","","","","",""
"4106.999999959953","Stimuli/Hangul_F61.bmp","188","image-keyboard-response","242","673705","0.0-10.0-1.14","test",".","",",","",""
"null","<div style=""color:white; font-size:60px;"">+</div>","null","html-keyboard-response","243","674706","0.0-10.0-0.15","fixation","","","","",""
"4920.0000000419095","Stimuli/Hangul_M65.bmp","190","image-keyboard-response","244","679627","0.0-10.0-1.15","test",",","",".","",""
"null","<div style=""color:white; font-size:60px;"">+</div>","null","html-keyboard-response","245","680629","0.0-10.0-0.16","fixation","","","","",""
"4228.000000002794","Stimuli/Hangul_M52.bmp","190","image-keyboard-response","246","684858","0.0-10.0-1.16","test",",","",".","",""
"null","<div style=""color:white; font-size:60px;"">+</div>","null","html-keyboard-response","247","685859","0.0-10.0-0.17","fixation","","","","",""
"3998.0000000214204","Stimuli/Hangul_M56.bmp","190","image-keyboard-response","248","689858","0.0-10.0-1.17","test",",","",".","",""
"null","<div style=""color:white; font-size:60px;"">+</div>","null","html-keyboard-response","249","690859","0.0-10.0-0.18","fixation","","","","",""
"5229.999999981374","Stimuli/Hangul_F63.bmp","190","image-keyboard-response","250","696090","0.0-10.0-1.18","test",".","",".","",""
"null","<div style=""color:white; font-size:60px;"">+</div>","null","html-keyboard-response","251","697091","0.0-10.0-0.19","fixation","","","","",""
"3590.000000083819","Stimuli/Hangul_F71.bmp","190","image-keyboard-response","252","700682","0.0-10.0-1.19","test",".","",".","",""
"null","<div style=""color:white; font-size:60px;"">+</div>","null","html-keyboard-response","253","701684","0.0-10.0-0.20","fixation","","","","",""
"3547.000000020489","Stimuli/Hangul_F52.bmp","188","image-keyboard-response","254","705234","0.0-10.0-1.20","test",".","",",","",""
"null","<div style=""color:white; font-size:60px;"">+</div>","null","html-keyboard-response","255","706235","0.0-10.0-0.21","fixation","","","","",""
"3853.000000002794","Stimuli/Hangul_F70.bmp","188","image-keyboard-response","256","710089","0.0-10.0-1.21","test",".","",",","",""
"null","<div style=""color:white; font-size:60px;"">+</div>","null","html-keyboard-response","257","711091","0.0-10.0-0.22","fixation","","","","",""
"3486.0000000335276","Stimuli/Hangul_F54.bmp","190","image-keyboard-response","258","714578","0.0-10.0-1.22","test",".","",".","",""
"null","<div style=""color:white; font-size:60px;"">+</div>","null","html-keyboard-response","259","715580","0.0-10.0-0.23","fixation","","","","",""
"3707.9999999841675","Stimuli/Hangul_M69.bmp","188","image-keyboard-response","260","719289","0.0-10.0-1.23","test",",","",",","",""
"null","<div style=""color:white; font-size:60px;"">+</div>","null","html-keyboard-response","261","720291","0.0-10.0-0.24","fixation","","","","",""
"3532.9999999376014","Stimuli/Hangul_F64.bmp","190","image-keyboard-response","262","723826","0.0-10.0-1.24","test",".","",".","",""
"null","<div style=""color:white; font-size:60px;"">+</div>","null","html-keyboard-response","263","724829","0.0-10.0-0.25","fixation","","","","",""
"4228.000000002794","Stimuli/Hangul_F66.bmp","190","image-keyboard-response","264","729058","0.0-10.0-1.25","test",".","",".","",""
"null","<div style=""color:white; font-size:60px;"">+</div>","null","html-keyboard-response","265","730058","0.0-10.0-0.26","fixation","","","","",""
"3765.00000001397","Stimuli/Hangul_F74.bmp","190","image-keyboard-response","266","733825","0.0-10.0-1.26","test",".","",".","",""
"null","<div style=""color:white; font-size:60px;"">+</div>","null","html-keyboard-response","267","734826","0.0-10.0-0.27","fixation","","","","",""
"3469.000000040978","Stimuli/Hangul_F53.bmp","190","image-keyboard-response","268","738296","0.0-10.0-1.27","test",".","",".","",""
"null","<div style=""color:white; font-size:60px;"">+</div>","null","html-keyboard-response","269","739297","0.0-10.0-0.28","fixation","","","","",""
"3599.999999976717","Stimuli/Hangul_M54.bmp","188","image-keyboard-response","270","742898","0.0-10.0-1.28","test",",","",",","",""
"null","<div style=""color:white; font-size:60px;"">+</div>","null","html-keyboard-response","271","743898","0.0-10.0-0.29","fixation","","","","",""
"6339.999999967404","Stimuli/Hangul_F62.bmp","190","image-keyboard-response","272","750240","0.0-10.0-1.29","test",".","",".","",""
"null","<div style=""color:white; font-size:60px;"">+</div>","null","html-keyboard-response","273","751242","0.0-10.0-0.30","fixation","","","","",""
"3173.9999999990687","Stimuli/Hangul_F50.bmp","190","image-keyboard-response","274","754417","0.0-10.0-1.30","test",".","",".","",""
"null","<div style=""color:white; font-size:60px;"">+</div>","null","html-keyboard-response","275","755418","0.0-10.0-0.31","fixation","","","","",""
"3629.0000000735745","Stimuli/Hangul_M61.bmp","188","image-keyboard-response","276","759048","0.0-10.0-1.31","test",",","",",","",""
"null","<div style=""color:white; font-size:60px;"">+</div>","null","html-keyboard-response","277","760050","0.0-10.0-0.32","fixation","","","","",""
"3621.999999973923","Stimuli/Hangul_F72.bmp","188","image-keyboard-response","278","763673","0.0-10.0-1.32","test",".","",",","",""
"null","<div style=""color:white; font-size:60px;"">+</div>","null","html-keyboard-response","279","764673","0.0-10.0-0.33","fixation","","","","",""
"3583.000000100583","Stimuli/Hangul_F60.bmp","190","image-keyboard-response","280","768257","0.0-10.0-1.33","test",".","",".","",""
"null","<div style=""color:white; font-size:60px;"">+</div>","null","html-keyboard-response","281","769258","0.0-10.0-0.34","fixation","","","","",""
"3684.999999939464","Stimuli/Hangul_F73.bmp","190","image-keyboard-response","282","772945","0.0-10.0-1.34","test",".","",".","",""
"null","<div style=""color:white; font-size:60px;"">+</div>","null","html-keyboard-response","283","773945","0.0-10.0-0.35","fixation","","","","",""
"3606.000000028871","Stimuli/Hangul_F57.bmp","190","image-keyboard-response","284","777553","0.0-10.0-1.35","test",".","",".","",""
"null","<div style=""color:white; font-size:60px;"">+</div>","null","html-keyboard-response","285","778554","0.0-10.0-0.36","fixation","","","","",""
"3853.999999933876","Stimuli/Hangul_M74.bmp","188","image-keyboard-response","286","782410","0.0-10.0-1.36","test",",","",",","",""
"null","<div style=""color:white; font-size:60px;"">+</div>","null","html-keyboard-response","287","783417","0.0-10.0-0.37","fixation","","","","",""
"3890.999999945052","Stimuli/Hangul_M63.bmp","188","image-keyboard-response","288","787313","0.0-10.0-1.37","test",",","",",","",""
"null","<div style=""color:white; font-size:60px;"">+</div>","null","html-keyboard-response","289","788314","0.0-10.0-0.38","fixation","","","","",""
"4031.000000075437","Stimuli/Hangul_F69.bmp","190","image-keyboard-response","290","792346","0.0-10.0-1.38","test",".","",".","",""
"null","<div style=""color:white; font-size:60px;"">+</div>","null","html-keyboard-response","291","793348","0.0-10.0-0.39","fixation","","","","",""
"5437.000000034459","Stimuli/Hangul_M72.bmp","190","image-keyboard-response","292","798787","0.0-10.0-1.39","test",",","",".","",""
"null","<div style=""color:white; font-size:60px;"">+</div>","null","html-keyboard-response","293","799787","0.0-10.0-0.40","fixation","","","","",""
"4844.000000040978","Stimuli/Hangul_M64.bmp","188","image-keyboard-response","294","804634","0.0-10.0-1.40","test",",","",",","",""
"null","<div style=""color:white; font-size:60px;"">+</div>","null","html-keyboard-response","295","805634","0.0-10.0-0.41","fixation","","","","",""
"3854.0000000502914","Stimuli/Hangul_M57.bmp","188","image-keyboard-response","296","809490","0.0-10.0-1.41","test",",","",",","",""
"null","<div style=""color:white; font-size:60px;"">+</div>","null","html-keyboard-response","297","810491","0.0-10.0-0.42","fixation","","","","",""
"3525.000000023283","Stimuli/Hangul_M51.bmp","188","image-keyboard-response","298","814017","0.0-10.0-1.42","test",",","",",","",""
"null","<div style=""color:white; font-size:60px;"">+</div>","null","html-keyboard-response","299","815019","0.0-10.0-0.43","fixation","","","","",""
"3653.999999980442","Stimuli/Hangul_M73.bmp","188","image-keyboard-response","300","818674","0.0-10.0-1.43","test",",","",",","",""
"null","<div style=""color:white; font-size:60px;"">+</div>","null","html-keyboard-response","301","819676","0.0-10.0-0.44","fixation","","","","",""
"3869.9999999953434","Stimuli/Hangul_M59.bmp","190","image-keyboard-response","302","823547","0.0-10.0-1.44","test",",","",".","",""
"null","<div style=""color:white; font-size:60px;"">+</div>","null","html-keyboard-response","303","824549","0.0-10.0-0.45","fixation","","","","",""
"3556.00000009872","Stimuli/Hangul_M70.bmp","188","image-keyboard-response","304","828106","0.0-10.0-1.45","test",",","",",","",""
"null","<div style=""color:white; font-size:60px;"">+</div>","null","html-keyboard-response","305","829107","0.0-10.0-0.46","fixation","","","","",""
"2797.000000020489","Stimuli/Hangul_F59.bmp","190","image-keyboard-response","306","831906","0.0-10.0-1.46","test",".","",".","",""
"null","<div style=""color:white; font-size:60px;"">+</div>","null","html-keyboard-response","307","832906","0.0-10.0-0.47","fixation","","","","",""
"4382.999999914318","Stimuli/Hangul_M66.bmp","188","image-keyboard-response","308","837291","0.0-10.0-1.47","test",",","",",","",""
"null","<div style=""color:white; font-size:60px;"">+</div>","null","html-keyboard-response","309","838291","0.0-10.0-0.48","fixation","","","","",""
"2356.000000028871","Stimuli/Hangul_M50.bmp","188","image-keyboard-response","310","840650","0.0-10.0-1.48","test",",","",",","",""
"null","<div style=""color:white; font-size:60px;"">+</div>","null","html-keyboard-response","311","841651","0.0-10.0-0.49","fixation","","","","",""
"3788.9999999897555","Stimuli/Hangul_F58.bmp","188","image-keyboard-response","312","845441","0.0-10.0-1.49","test",".","",",","",""
"4520.000000018626","<p style=""color:white;"">One more block to go! Please take a moment to rest.</p> <p style=""color:white;"">When you are ready to continue with block 4 of 4, press the space bar.</p> ","32","html-keyboard-response","313","849963","0.0-11.0","","","","","",""
"null","<div style=""color:white; font-size:60px;"">+</div>","null","html-keyboard-response","314","852965","0.0-12.0-0.0","fixation","","","","",""
"3866.000000038184","Stimuli/Hangul_M80.bmp","188","image-keyboard-response","315","856833","0.0-12.0-1.0","test",",","",",","",""
"null","<div style=""color:white; font-size:60px;"">+</div>","null","html-keyboard-response","316","857834","0.0-12.0-0.1","fixation","","","","",""
"3910.9999999636784","Stimuli/Hangul_M91.bmp","188","image-keyboard-response","317","861747","0.0-12.0-1.1","test",",","",",","",""
"null","<div style=""color:white; font-size:60px;"">+</div>","null","html-keyboard-response","318","862747","0.0-12.0-0.2","fixation","","","","",""
"5276.0000000707805","Stimuli/Hangul_M77.bmp","190","image-keyboard-response","319","868026","0.0-12.0-1.2","test",",","",".","",""
"null","<div style=""color:white; font-size:60px;"">+</div>","null","html-keyboard-response","320","869026","0.0-12.0-0.3","fixation","","","","",""
"3574.0000000223517","Stimuli/Hangul_F98.bmp","190","image-keyboard-response","321","872602","0.0-12.0-1.3","test",".","",".","",""
"null","<div style=""color:white; font-size:60px;"">+</div>","null","html-keyboard-response","322","873604","0.0-12.0-0.4","fixation","","","","",""
"3515.999999945052","Stimuli/Hangul_M88.bmp","188","image-keyboard-response","323","877122","0.0-12.0-1.4","test",",","",",","",""
"null","<div style=""color:white; font-size:60px;"">+</div>","null","html-keyboard-response","324","878123","0.0-12.0-0.5","fixation","","","","",""
"3478.000000002794","Stimuli/Hangul_F82.bmp","190","image-keyboard-response","325","881601","0.0-12.0-1.5","test",".","",".","",""
"null","<div style=""color:white; font-size:60px;"">+</div>","null","html-keyboard-response","326","882602","0.0-12.0-0.6","fixation","","","","",""
"3925.000000046566","Stimuli/Hangul_M81.bmp","188","image-keyboard-response","327","886530","0.0-12.0-1.6","test",",","",",","",""
"null","<div style=""color:white; font-size:60px;"">+</div>","null","html-keyboard-response","328","887532","0.0-12.0-0.7","fixation","","","","",""
"4037.000000011176","Stimuli/Hangul_M85.bmp","188","image-keyboard-response","329","891570","0.0-12.0-1.7","test",",","",",","",""
"null","<div style=""color:white; font-size:60px;"">+</div>","null","html-keyboard-response","330","892572","0.0-12.0-0.8","fixation","","","","",""
"3538.9999999897555","Stimuli/Hangul_F89.bmp","190","image-keyboard-response","331","896114","0.0-12.0-1.8","test",".","",".","",""
"null","<div style=""color:white; font-size:60px;"">+</div>","null","html-keyboard-response","332","897114","0.0-12.0-0.9","fixation","","","","",""
"3510.000000009313","Stimuli/Hangul_F81.bmp","190","image-keyboard-response","333","900626","0.0-12.0-1.9","test",".","",".","",""
"null","<div style=""color:white; font-size:60px;"">+</div>","null","html-keyboard-response","334","901628","0.0-12.0-0.10","fixation","","","","",""
"4042.9999999469146","Stimuli/Hangul_M87.bmp","190","image-keyboard-response","335","905674","0.0-12.0-1.10","test",",","",".","",""
"null","<div style=""color:white; font-size:60px;"">+</div>","null","html-keyboard-response","336","906676","0.0-12.0-0.11","fixation","","","","",""
"3652.999999932945","Stimuli/Hangul_F84.bmp","190","image-keyboard-response","337","910329","0.0-12.0-1.11","test",".","",".","",""
"null","<div style=""color:white; font-size:60px;"">+</div>","null","html-keyboard-response","338","911329","0.0-12.0-0.12","fixation","","","","",""
"4702.999999979511","Stimuli/Hangul_F87.bmp","190","image-keyboard-response","339","916033","0.0-12.0-1.12","test",".","",".","",""
"null","<div style=""color:white; font-size:60px;"">+</div>","null","html-keyboard-response","340","917035","0.0-12.0-0.13","fixation","","","","",""
"3804.0000000037253","Stimuli/Hangul_F85.bmp","190","image-keyboard-response","341","920840","0.0-12.0-1.13","test",".","",".","",""
"null","<div style=""color:white; font-size:60px;"">+</div>","null","html-keyboard-response","342","921841","0.0-12.0-0.14","fixation","","","","",""
"2814.9999999441206","Stimuli/Hangul_F93.bmp","190","image-keyboard-response","343","924657","0.0-12.0-1.14","test",".","",".","",""
"null","<div style=""color:white; font-size:60px;"">+</div>","null","html-keyboard-response","344","925657","0.0-12.0-0.15","fixation","","","","",""
"5143.000000040047","Stimuli/Hangul_M79.bmp","190","image-keyboard-response","345","930802","0.0-12.0-1.15","test",",","",".","",""
"null","<div style=""color:white; font-size:60px;"">+</div>","null","html-keyboard-response","346","931802","0.0-12.0-0.16","fixation","","","","",""
"3588.9999999199063","Stimuli/Hangul_M98.bmp","188","image-keyboard-response","347","935393","0.0-12.0-1.16","test",",","",",","",""
"null","<div style=""color:white; font-size:60px;"">+</div>","null","html-keyboard-response","348","936394","0.0-12.0-0.17","fixation","","","","",""
"3388.9999999664724","Stimuli/Hangul_F79.bmp","190","image-keyboard-response","349","939785","0.0-12.0-1.17","test",".","",".","",""
"null","<div style=""color:white; font-size:60px;"">+</div>","null","html-keyboard-response","350","940786","0.0-12.0-0.18","fixation","","","","",""
"3702.000000048429","Stimuli/Hangul_F90.bmp","188","image-keyboard-response","351","944489","0.0-12.0-1.18","test",".","",",","",""
"null","<div style=""color:white; font-size:60px;"">+</div>","null","html-keyboard-response","352","945490","0.0-12.0-0.19","fixation","","","","",""
"3277.0000000018626","Stimuli/Hangul_F83.bmp","190","image-keyboard-response","353","948769","0.0-12.0-1.19","test",".","",".","",""
"null","<div style=""color:white; font-size:60px;"">+</div>","null","html-keyboard-response","354","949770","0.0-12.0-0.20","fixation","","","","",""
"4036.0000000800937","Stimuli/Hangul_F96.bmp","190","image-keyboard-response","355","953809","0.0-12.0-1.20","test",".","",".","",""
"null","<div style=""color:white; font-size:60px;"">+</div>","null","html-keyboard-response","356","954809","0.0-12.0-0.21","fixation","","","","",""
"2310.9999999869615","Stimuli/Hangul_F95.bmp","190","image-keyboard-response","357","957121","0.0-12.0-1.21","test",".","",".","",""
"null","<div style=""color:white; font-size:60px;"">+</div>","null","html-keyboard-response","358","958122","0.0-12.0-0.22","fixation","","","","",""
"3582.9999999841675","Stimuli/Hangul_M84.bmp","190","image-keyboard-response","359","961705","0.0-12.0-1.22","test",",","",".","",""
"null","<div style=""color:white; font-size:60px;"">+</div>","null","html-keyboard-response","360","962705","0.0-12.0-0.23","fixation","","","","",""
"5959.000000031665","Stimuli/Hangul_F88.bmp","190","image-keyboard-response","361","968666","0.0-12.0-1.23","test",".","",".","",""
"null","<div style=""color:white; font-size:60px;"">+</div>","null","html-keyboard-response","362","969667","0.0-12.0-0.24","fixation","","","","",""
"2405.0000000279397","Stimuli/Hangul_M90.bmp","188","image-keyboard-response","363","972073","0.0-12.0-1.24","test",",","",",","",""
"null","<div style=""color:white; font-size:60px;"">+</div>","null","html-keyboard-response","364","973074","0.0-12.0-0.25","fixation","","","","",""
"6566.9999999227","Stimuli/Hangul_F99.bmp","188","image-keyboard-response","365","979642","0.0-12.0-1.25","test",".","",",","",""
"null","<div style=""color:white; font-size:60px;"">+</div>","null","html-keyboard-response","366","980643","0.0-12.0-0.26","fixation","","","","",""
"2354.9999999813735","Stimuli/Hangul_M82.bmp","188","image-keyboard-response","367","983001","0.0-12.0-1.26","test",",","",",","",""
"null","<div style=""color:white; font-size:60px;"">+</div>","null","html-keyboard-response","368","984001","0.0-12.0-0.27","fixation","","","","",""
"2631.000000052154","Stimuli/Hangul_M93.bmp","190","image-keyboard-response","369","986632","0.0-12.0-1.27","test",",","",".","",""
"null","<div style=""color:white; font-size:60px;"">+</div>","null","html-keyboard-response","370","987633","0.0-12.0-0.28","fixation","","","","",""
"3414.9999999208376","Stimuli/Hangul_M78.bmp","188","image-keyboard-response","371","991050","0.0-12.0-1.28","test",",","",",","",""
"null","<div style=""color:white; font-size:60px;"">+</div>","null","html-keyboard-response","372","992051","0.0-12.0-0.29","fixation","","","","",""
"3939.0000000130385","Stimuli/Hangul_M99.bmp","190","image-keyboard-response","373","995992","0.0-12.0-1.29","test",",","",".","",""
"null","<div style=""color:white; font-size:60px;"">+</div>","null","html-keyboard-response","374","996993","0.0-12.0-0.30","fixation","","","","",""
"3381.999999983236","Stimuli/Hangul_F86.bmp","190","image-keyboard-response","375","1000376","0.0-12.0-1.30","test",".","",".","",""
"null","<div style=""color:white; font-size:60px;"">+</div>","null","html-keyboard-response","376","1001378","0.0-12.0-0.31","fixation","","","","",""
"3516.9999999925494","Stimuli/Hangul_M95.bmp","188","image-keyboard-response","377","1004897","0.0-12.0-1.31","test",",","",",","",""
"null","<div style=""color:white; font-size:60px;"">+</div>","null","html-keyboard-response","378","1005898","0.0-12.0-0.32","fixation","","","","",""
"3836.0000000102445","Stimuli/Hangul_M94.bmp","188","image-keyboard-response","379","1009736","0.0-12.0-1.32","test",",","",",","",""
"null","<div style=""color:white; font-size:60px;"">+</div>","null","html-keyboard-response","380","1010737","0.0-12.0-0.33","fixation","","","","",""
"4263.00000003539","Stimuli/Hangul_M76.bmp","188","image-keyboard-response","381","1015002","0.0-12.0-1.33","test",",","",",","",""
"null","<div style=""color:white; font-size:60px;"">+</div>","null","html-keyboard-response","382","1016002","0.0-12.0-0.34","fixation","","","","",""
"2285.0000000325963","Stimuli/Hangul_F77.bmp","190","image-keyboard-response","383","1018288","0.0-12.0-1.34","test",".","",".","",""
"null","<div style=""color:white; font-size:60px;"">+</div>","null","html-keyboard-response","384","1019290","0.0-12.0-0.35","fixation","","","","",""
"3364.999999990687","Stimuli/Hangul_M89.bmp","188","image-keyboard-response","385","1022656","0.0-12.0-1.35","test",",","",",","",""
"null","<div style=""color:white; font-size:60px;"">+</div>","null","html-keyboard-response","386","1023657","0.0-12.0-0.36","fixation","","","","",""
"3398.9999999757856","Stimuli/Hangul_F75.bmp","190","image-keyboard-response","387","1027057","0.0-12.0-1.36","test",".","",".","",""
"null","<div style=""color:white; font-size:60px;"">+</div>","null","html-keyboard-response","388","1028059","0.0-12.0-0.37","fixation","","","","",""
"4067.0000000391155","Stimuli/Hangul_M97.bmp","188","image-keyboard-response","389","1032128","0.0-12.0-1.37","test",",","",",","",""
"null","<div style=""color:white; font-size:60px;"">+</div>","null","html-keyboard-response","390","1033130","0.0-12.0-0.38","fixation","","","","",""
"4398.0000000447035","Stimuli/Hangul_F91.bmp","188","image-keyboard-response","391","1037529","0.0-12.0-1.38","test",".","",",","",""
"null","<div style=""color:white; font-size:60px;"">+</div>","null","html-keyboard-response","392","1038530","0.0-12.0-0.39","fixation","","","","",""
"3644.0000000875443","Stimuli/Hangul_M83.bmp","188","image-keyboard-response","393","1042176","0.0-12.0-1.39","test",",","",",","",""
"null","<div style=""color:white; font-size:60px;"">+</div>","null","html-keyboard-response","394","1043178","0.0-12.0-0.40","fixation","","","","",""
"3548.9999999990687","Stimuli/Hangul_F78.bmp","190","image-keyboard-response","395","1046729","0.0-12.0-1.40","test",".","",".","",""
"null","<div style=""color:white; font-size:60px;"">+</div>","null","html-keyboard-response","396","1047734","0.0-12.0-0.41","fixation","","","","",""
"3657.0000000065193","Stimuli/Hangul_F80.bmp","188","image-keyboard-response","397","1051393","0.0-12.0-1.41","test",".","",",","",""
"null","<div style=""color:white; font-size:60px;"">+</div>","null","html-keyboard-response","398","1052394","0.0-12.0-0.42","fixation","","","","",""
"4173.999999999069","Stimuli/Hangul_M96.bmp","188","image-keyboard-response","399","1056569","0.0-12.0-1.42","test",",","",",","",""
"null","<div style=""color:white; font-size:60px;"">+</div>","null","html-keyboard-response","400","1057571","0.0-12.0-0.43","fixation","","","","",""
"3442.9999999701977","Stimuli/Hangul_M86.bmp","188","image-keyboard-response","401","1061017","0.0-12.0-1.43","test",",","",",","",""
"null","<div style=""color:white; font-size:60px;"">+</div>","null","html-keyboard-response","402","1062017","0.0-12.0-0.44","fixation","","","","",""
"3694.9999999487773","Stimuli/Hangul_F94.bmp","190","image-keyboard-response","403","1065713","0.0-12.0-1.44","test",".","",".","",""
"null","<div style=""color:white; font-size:60px;"">+</div>","null","html-keyboard-response","404","1066714","0.0-12.0-0.45","fixation","","","","",""
"2216.9999999459833","Stimuli/Hangul_M75.bmp","188","image-keyboard-response","405","1068937","0.0-12.0-1.45","test",",","",",","",""
"null","<div style=""color:white; font-size:60px;"">+</div>","null","html-keyboard-response","406","1069938","0.0-12.0-0.46","fixation","","","","",""
"3477.000000071712","Stimuli/Hangul_M92.bmp","188","image-keyboard-response","407","1073417","0.0-12.0-1.46","test",",","",",","",""
"null","<div style=""color:white; font-size:60px;"">+</div>","null","html-keyboard-response","408","1074419","0.0-12.0-0.47","fixation","","","","",""
"3788.0000000586733","Stimuli/Hangul_F92.bmp","190","image-keyboard-response","409","1078210","0.0-12.0-1.47","test",".","",".","",""
"null","<div style=""color:white; font-size:60px;"">+</div>","null","html-keyboard-response","410","1079210","0.0-12.0-0.48","fixation","","","","",""
"2251.9999999785796","Stimuli/Hangul_F76.bmp","190","image-keyboard-response","411","1081464","0.0-12.0-1.48","test",".","",".","",""
"null","<div style=""color:white; font-size:60px;"">+</div>","null","html-keyboard-response","412","1082466","0.0-12.0-0.49","fixation","","","","",""
"3694.000000017695","Stimuli/Hangul_F97.bmp","190","image-keyboard-response","413","1086161","0.0-12.0-1.49","test",".","",".","",""
"3416.0000000847504","<p style=""color:white;"">Phase I of the experiment is complete.</p> <p style=""color:white;"">Press the space bar to proceed to Phase II of the experiment.</p> ","32","html-keyboard-response","414","1089578","0.0-13.0","","","","","",""
"29569.000000017695","<p style=""color:white;"">Now we are interested in how well you can predict patterns in the series of figures. You will be asked to predict whether the next figure in the series is more male-like or female-like. When you see the <q>Next Figure</q> prompt, press the corresponding response keys to indicate your prediction: </p><p style=""color:white;""> Male &#8594 <q>,</q> (comma)</p><p style=""color:white;""> Female &#8594 <q>.</q> (period)</p><p style=""color:white;"">The actual figure will then appear on the screen. After you see the figure, please guess the assigned gender with response keys. </p><p style=""color:white;"">As before, you will receive 2 cents for correctly classifying each figure.</p><p style=""color:white;"">Press either response keys to continue.</p>","190","html-keyboard-response","415","1121154","0.0-14.0","","","","","",""
"20358.999999938533","<p style=""color:white;"">PREDICTION BONUS</p> <p style=""color:white;"">Your prediction accuracy is the total number of correct predictions you make over the 200 trials.</p> <p style=""color:white;"">In addition to the 2 cents per correct figure classification, you have the chance to receive a bonus of 40 dollars IF your accuracy is above average relative to previous participants.</p><p style=""color:white;"">If your accuracy is below average relative to previous participants, then you will not receive the 40 dollar bonus.</p><p style=""color:white;"">Press the space bar to continue.</p>","32","html-keyboard-response","416","1141514","0.0-15.0","","","","","",""
"11229.999999981374","<p style=""color:white;"">Here are some examples.</p> <p style=""color:white;"">For each, predict whether the next figure looks more male-like or female-like. Then, when the figure appears, guess whether it looks more male-like or female-like and indicate your choice.</p> <p style=""color:white;"">Press the space bar to continue.</p>","32","html-keyboard-response","417","1152747","0.0-16.0","","","","","",""
"2420.0000000419095","<p style=""color:white;""> Next Figure: Male or Female? </p>","190","html-keyboard-response","418","1157169","0.0-17.0-0.0","prediction_train","","","",".",""
"null","<div style=""color:white; font-size:60px;"">+</div>","null","html-keyboard-response","419","1158171","0.0-17.0-1.0","fixation","","","","",""
"1972.9999999981374","Stimuli/Hangul_E2.bmp","190","image-keyboard-response","420","1160146","0.0-17.0-2.0","c2_train",".","","","","."
"2486.0000000335276","<p style=""color:white;""> Next Figure: Male or Female? </p>","188","html-keyboard-response","421","1162633","0.0-17.0-0.1","prediction_train","","","",",",""
"null","<div style=""color:white; font-size:60px;"">+</div>","null","html-keyboard-response","422","1163634","0.0-17.0-1.1","fixation","","","","",""
"1055.0000000512227","Stimuli/Hangul_E0.bmp","188","image-keyboard-response","423","1164691","0.0-17.0-2.1","c2_train",",","","","",","
"2214.0000000363216","<p style=""color:white;""> Next Figure: Male or Female? </p>","190","html-keyboard-response","424","1166906","0.0-17.0-0.2","prediction_train","","","",".",""
"null","<div style=""color:white; font-size:60px;"">+</div>","null","html-keyboard-response","425","1167908","0.0-17.0-1.2","fixation","","","","",""
"1268.0000000400469","Stimuli/Hangul_E1.bmp","188","image-keyboard-response","426","1169177","0.0-17.0-2.2","c2_train",",","","","",","
"2999.000000068918","<p style=""color:white;"">Let us begin! Press the space bar when you are ready to start block 1 of 4.</p> ","32","html-keyboard-response","427","1172177","0.0-18.0","","","","","",""
"910.9999999636784","<p style=""color:white;""> Next Figure: Male or Female? </p>","190","html-keyboard-response","428","1175091","0.0-19.0-0.0","prediction","","","",".",""
"null","<div style=""color:white; font-size:60px;"">+</div>","null","html-keyboard-response","429","1176092","0.0-19.0-1.0","fixation","","","","",""
"1452.999999979511","Stimuli/Hangul_M0.bmp","190","image-keyboard-response","430","1177546","0.0-19.0-2.0","c2_test",",","","","","."
"2310.9999999869615","<p style=""color:white;""> Next Figure: Male or Female? </p>","188","html-keyboard-response","431","1179858","0.0-19.0-0.1","prediction","","","",",",""
"null","<div style=""color:white; font-size:60px;"">+</div>","null","html-keyboard-response","432","1180858","0.0-19.0-1.1","fixation","","","","",""
"1445.9999999962747","Stimuli/Hangul_F21.bmp","190","image-keyboard-response","433","1182305","0.0-19.0-2.1","c2_test",".","","","","."
"3344.000000040978","<p style=""color:white;""> Next Figure: Male or Female? </p>","188","html-keyboard-response","434","1185650","0.0-19.0-0.2","prediction","","","",",",""
"null","<div style=""color:white; font-size:60px;"">+</div>","null","html-keyboard-response","435","1186652","0.0-19.0-1.2","fixation","","","","",""
"1221.0000000195578","Stimuli/Hangul_M14.bmp","188","image-keyboard-response","436","1187873","0.0-19.0-2.2","c2_test",",","","","",","
"2111.0000000335276","<p style=""color:white;""> Next Figure: Male or Female? </p>","190","html-keyboard-response","437","1189985","0.0-19.0-0.3","prediction","","","",".",""
"null","<div style=""color:white; font-size:60px;"">+</div>","null","html-keyboard-response","438","1190987","0.0-19.0-1.3","fixation","","","","",""
"1228.999999933876","Stimuli/Hangul_F16.bmp","188","image-keyboard-response","439","1192217","0.0-19.0-2.3","c2_test",".","","","",","
"2912.000000011176","<p style=""color:white;""> Next Figure: Male or Female? </p>","190","html-keyboard-response","440","1195130","0.0-19.0-0.4","prediction","","","",".",""
"null","<div style=""color:white; font-size:60px;"">+</div>","null","html-keyboard-response","441","1196130","0.0-19.0-1.4","fixation","","","","",""
"935.0000000558794","Stimuli/Hangul_F18.bmp","190","image-keyboard-response","442","1197067","0.0-19.0-2.4","c2_test",".","","","","."
"2726.0000000242144","<p style=""color:white;""> Next Figure: Male or Female? </p>","188","html-keyboard-response","443","1199793","0.0-19.0-0.5","prediction","","","",",",""
"null","<div style=""color:white; font-size:60px;"">+</div>","null","html-keyboard-response","444","1200794","0.0-19.0-1.5","fixation","","","","",""
"989.9999999906868","Stimuli/Hangul_M4.bmp","188","image-keyboard-response","445","1201785","0.0-19.0-2.5","c2_test",",","","","",","
"1856.000000028871","<p style=""color:white;""> Next Figure: Male or Female? </p>","190","html-keyboard-response","446","1203642","0.0-19.0-0.6","prediction","","","",".",""
"null","<div style=""color:white; font-size:60px;"">+</div>","null","html-keyboard-response","447","1204642","0.0-19.0-1.6","fixation","","","","",""
"1014.0000000828877","Stimuli/Hangul_F9.bmp","188","image-keyboard-response","448","1205657","0.0-19.0-2.6","c2_test",".","","","",","
"2552.0000000251457","<p style=""color:white;""> Next Figure: Male or Female? </p>","190","html-keyboard-response","449","1208211","0.0-19.0-0.7","prediction","","","",".",""
"null","<div style=""color:white; font-size:60px;"">+</div>","null","html-keyboard-response","450","1209211","0.0-19.0-1.7","fixation","","","","",""
"1053.0000000726432","Stimuli/Hangul_F5.bmp","188","image-keyboard-response","451","1210265","0.0-19.0-2.7","c2_test",".","","","",","
"2287.000000011176","<p style=""color:white;""> Next Figure: Male or Female? </p>","190","html-keyboard-response","452","1212554","0.0-19.0-0.8","prediction","","","",".",""
"null","<div style=""color:white; font-size:60px;"">+</div>","null","html-keyboard-response","453","1213554","0.0-19.0-1.8","fixation","","","","",""
"1037.0000000111759","Stimuli/Hangul_M13.bmp","188","image-keyboard-response","454","1214593","0.0-19.0-2.8","c2_test",",","","","",","
"2239.0000000596046","<p style=""color:white;""> Next Figure: Male or Female? </p>","190","html-keyboard-response","455","1216833","0.0-19.0-0.9","prediction","","","",".",""
"null","<div style=""color:white; font-size:60px;"">+</div>","null","html-keyboard-response","456","1217834","0.0-19.0-1.9","fixation","","","","",""
"871.0000000428408","Stimuli/Hangul_F14.bmp","190","image-keyboard-response","457","1218706","0.0-19.0-2.9","c2_test",".","","","","."
"2150.000000023283","<p style=""color:white;""> Next Figure: Male or Female? </p>","190","html-keyboard-response","458","1220857","0.0-19.0-0.10","prediction","","","",".",""
"null","<div style=""color:white; font-size:60px;"">+</div>","null","html-keyboard-response","459","1221858","0.0-19.0-1.10","fixation","","","","",""
"1646.000000066124","Stimuli/Hangul_M1.bmp","190","image-keyboard-response","460","1223506","0.0-19.0-2.10","c2_test",",","","","","."
"1918.999999994412","<p style=""color:white;""> Next Figure: Male or Female? </p>","188","html-keyboard-response","461","1225425","0.0-19.0-0.11","prediction","","","",",",""
"null","<div style=""color:white; font-size:60px;"">+</div>","null","html-keyboard-response","462","1226426","0.0-19.0-1.11","fixation","","","","",""
"1189.9999999441206","Stimuli/Hangul_F1.bmp","190","image-keyboard-response","463","1227617","0.0-19.0-2.11","c2_test",".","","","","."
"2311.9999999180436","<p style=""color:white;""> Next Figure: Male or Female? </p>","188","html-keyboard-response","464","1229931","0.0-19.0-0.12","prediction","","","",",",""
"null","<div style=""color:white; font-size:60px;"">+</div>","null","html-keyboard-response","465","1230932","0.0-19.0-1.12","fixation","","","","",""
"1044.9999999254942","Stimuli/Hangul_F17.bmp","188","image-keyboard-response","466","1231978","0.0-19.0-2.12","c2_test",".","","","",","
"1976.0000000242144","<p style=""color:white;""> Next Figure: Male or Female? </p>","190","html-keyboard-response","467","1233954","0.0-19.0-0.13","prediction","","","",".",""
"null","<div style=""color:white; font-size:60px;"">+</div>","null","html-keyboard-response","468","1234955","0.0-19.0-1.13","fixation","","","","",""
"964.9999999674037","Stimuli/Hangul_F20.bmp","188","image-keyboard-response","469","1235921","0.0-19.0-2.13","c2_test",".","","","",","
"2094.000000040978","<p style=""color:white;""> Next Figure: Male or Female? </p>","188","html-keyboard-response","470","1238018","0.0-19.0-0.14","prediction","","","",",",""
"null","<div style=""color:white; font-size:60px;"">+</div>","null","html-keyboard-response","471","1239018","0.0-19.0-1.14","fixation","","","","",""
"1278.9999999804422","Stimuli/Hangul_M9.bmp","188","image-keyboard-response","472","1240298","0.0-19.0-2.14","c2_test",",","","","",","
"1709.999999962747","<p style=""color:white;""> Next Figure: Male or Female? </p>","190","html-keyboard-response","473","1242009","0.0-19.0-0.15","prediction","","","",".",""
"null","<div style=""color:white; font-size:60px;"">+</div>","null","html-keyboard-response","474","1243010","0.0-19.0-1.15","fixation","","","","",""
"966.0000000149012","Stimuli/Hangul_M10.bmp","188","image-keyboard-response","475","1243978","0.0-19.0-2.15","c2_test",",","","","",","
"1591.9999999459833","<p style=""color:white;""> Next Figure: Male or Female? </p>","188","html-keyboard-response","476","1245570","0.0-19.0-0.16","prediction","","","",",",""
"null","<div style=""color:white; font-size:60px;"">+</div>","null","html-keyboard-response","477","1246571","0.0-19.0-1.16","fixation","","","","",""
"1118.0000000167638","Stimuli/Hangul_F22.bmp","188","image-keyboard-response","478","1247690","0.0-19.0-2.16","c2_test",".","","","",","
"1469.9999999720603","<p style=""color:white;""> Next Figure: Male or Female? </p>","190","html-keyboard-response","479","1249161","0.0-19.0-0.17","prediction","","","",".",""
"null","<div style=""color:white; font-size:60px;"">+</div>","null","html-keyboard-response","480","1250162","0.0-19.0-1.17","fixation","","","","",""
"1600.999999907799","Stimuli/Hangul_M23.bmp","188","image-keyboard-response","481","1251763","0.0-19.0-2.17","c2_test",",","","","",","
"1677.9999999562278","<p style=""color:white;""> Next Figure: Male or Female? </p>","190","html-keyboard-response","482","1253442","0.0-19.0-0.18","prediction","","","",".",""
"null","<div style=""color:white; font-size:60px;"">+</div>","null","html-keyboard-response","483","1254443","0.0-19.0-1.18","fixation","","","","",""
"1206.000000005588","Stimuli/Hangul_M5.bmp","188","image-keyboard-response","484","1255650","0.0-19.0-2.18","c2_test",",","","","",","
"1471.0000000195578","<p style=""color:white;""> Next Figure: Male or Female? </p>","190","html-keyboard-response","485","1257122","0.0-19.0-0.19","prediction","","","",".",""
"null","<div style=""color:white; font-size:60px;"">+</div>","null","html-keyboard-response","486","1258124","0.0-19.0-1.19","fixation","","","","",""
"726.0000000242144","Stimuli/Hangul_F8.bmp","190","image-keyboard-response","487","1258850","0.0-19.0-2.19","c2_test",".","","","","."
"1814.9999999441206","<p style=""color:white;""> Next Figure: Male or Female? </p>","190","html-keyboard-response","488","1260666","0.0-19.0-0.20","prediction","","","",".",""
"null","<div style=""color:white; font-size:60px;"">+</div>","null","html-keyboard-response","489","1261667","0.0-19.0-1.20","fixation","","","","",""
"932.9999999608845","Stimuli/Hangul_F23.bmp","188","image-keyboard-response","490","1262602","0.0-19.0-2.20","c2_test",".","","","",","
"1765.999999945052","<p style=""color:white;""> Next Figure: Male or Female? </p>","188","html-keyboard-response","491","1264369","0.0-19.0-0.21","prediction","","","",",",""
"null","<div style=""color:white; font-size:60px;"">+</div>","null","html-keyboard-response","492","1265371","0.0-19.0-1.21","fixation","","","","",""
"853.000000002794","Stimuli/Hangul_M18.bmp","188","image-keyboard-response","493","1266227","0.0-19.0-2.21","c2_test",",","","","",","
"1942.0000000391155","<p style=""color:white;""> Next Figure: Male or Female? </p>","188","html-keyboard-response","494","1268169","0.0-19.0-0.22","prediction","","","",",",""
"null","<div style=""color:white; font-size:60px;"">+</div>","null","html-keyboard-response","495","1269170","0.0-19.0-1.22","fixation","","","","",""
"886.0000000568107","Stimuli/Hangul_M19.bmp","188","image-keyboard-response","496","1270058","0.0-19.0-2.22","c2_test",",","","","",","
"1792.0000000158325","<p style=""color:white;""> Next Figure: Male or Female? </p>","190","html-keyboard-response","497","1271850","0.0-19.0-0.23","prediction","","","",".",""
"null","<div style=""color:white; font-size:60px;"">+</div>","null","html-keyboard-response","498","1272850","0.0-19.0-1.23","fixation","","","","",""
"1103.999999933876","Stimuli/Hangul_F0.bmp","188","image-keyboard-response","499","1273954","0.0-19.0-2.23","c2_test",".","","","",","
"1645.0000000186265","<p style=""color:white;""> Next Figure: Male or Female? </p>","190","html-keyboard-response","500","1275601","0.0-19.0-0.24","prediction","","","",".",""
"null","<div style=""color:white; font-size:60px;"">+</div>","null","html-keyboard-response","501","1276602","0.0-19.0-1.24","fixation","","","","",""
"788.9999999897555","Stimuli/Hangul_F13.bmp","188","image-keyboard-response","502","1277392","0.0-19.0-2.24","c2_test",".","","","",","
"1616.0000000381842","<p style=""color:white;""> Next Figure: Male or Female? </p>","190","html-keyboard-response","503","1279009","0.0-19.0-0.25","prediction","","","",".",""
"null","<div style=""color:white; font-size:60px;"">+</div>","null","html-keyboard-response","504","1280011","0.0-19.0-1.25","fixation","","","","",""
"868.9999999478459","Stimuli/Hangul_M11.bmp","188","image-keyboard-response","505","1280880","0.0-19.0-2.25","c2_test",",","","","",","
"1719.0000000409782","<p style=""color:white;""> Next Figure: Male or Female? </p>","190","html-keyboard-response","506","1282601","0.0-19.0-0.26","prediction","","","",".",""
"null","<div style=""color:white; font-size:60px;"">+</div>","null","html-keyboard-response","507","1283602","0.0-19.0-1.26","fixation","","","","",""
"790.0000000372529","Stimuli/Hangul_F4.bmp","190","image-keyboard-response","508","1284393","0.0-19.0-2.26","c2_test",".","","","","."
"2398.9999999757856","<p style=""color:white;""> Next Figure: Male or Female? </p>","188","html-keyboard-response","509","1286793","0.0-19.0-0.27","prediction","","","",",",""
"null","<div style=""color:white; font-size:60px;"">+</div>","null","html-keyboard-response","510","1287794","0.0-19.0-1.27","fixation","","","","",""
"1324.9999999534339","Stimuli/Hangul_M3.bmp","188","image-keyboard-response","511","1289121","0.0-19.0-2.27","c2_test",",","","","",","
"1775.9999999543652","<p style=""color:white;""> Next Figure: Male or Female? </p>","190","html-keyboard-response","512","1290897","0.0-19.0-0.28","prediction","","","",".",""
"null","<div style=""color:white; font-size:60px;"">+</div>","null","html-keyboard-response","513","1291898","0.0-19.0-1.28","fixation","","","","",""
"973.9999999292195","Stimuli/Hangul_F19.bmp","188","image-keyboard-response","514","1292873","0.0-19.0-2.28","c2_test",".","","","",","
"1990.999999921769","<p style=""color:white;""> Next Figure: Male or Female? </p>","188","html-keyboard-response","515","1294865","0.0-19.0-0.29","prediction","","","",",",""
"null","<div style=""color:white; font-size:60px;"">+</div>","null","html-keyboard-response","516","1295867","0.0-19.0-1.29","fixation","","","","",""
"922.9999999515712","Stimuli/Hangul_M20.bmp","188","image-keyboard-response","517","1296792","0.0-19.0-2.29","c2_test",",","","","",","
"1790.000000037253","<p style=""color:white;""> Next Figure: Male or Female? </p>","190","html-keyboard-response","518","1298584","0.0-19.0-0.30","prediction","","","",".",""
"null","<div style=""color:white; font-size:60px;"">+</div>","null","html-keyboard-response","519","1299586","0.0-19.0-1.30","fixation","","","","",""
"949.0000000223517","Stimuli/Hangul_M2.bmp","188","image-keyboard-response","520","1300536","0.0-19.0-2.30","c2_test",",","","","",","
"1896.000000066124","<p style=""color:white;""> Next Figure: Male or Female? </p>","188","html-keyboard-response","521","1302433","0.0-19.0-0.31","prediction","","","",",",""
"null","<div style=""color:white; font-size:60px;"">+</div>","null","html-keyboard-response","522","1303435","0.0-19.0-1.31","fixation","","","","",""
"949.0000000223517","Stimuli/Hangul_F10.bmp","190","image-keyboard-response","523","1304385","0.0-19.0-2.31","c2_test",".","","","","."
"1638.9999999664724","<p style=""color:white;""> Next Figure: Male or Female? </p>","190","html-keyboard-response","524","1306025","0.0-19.0-0.32","prediction","","","",".",""
"null","<div style=""color:white; font-size:60px;"">+</div>","null","html-keyboard-response","525","1307026","0.0-19.0-1.32","fixation","","","","",""
"813.0000000819564","Stimuli/Hangul_M6.bmp","188","image-keyboard-response","526","1307840","0.0-19.0-2.32","c2_test",",","","","",","
"1287.0000000111759","<p style=""color:white;""> Next Figure: Male or Female? </p>","190","html-keyboard-response","527","1309128","0.0-19.0-0.33","prediction","","","",".",""
"null","<div style=""color:white; font-size:60px;"">+</div>","null","html-keyboard-response","528","1310130","0.0-19.0-1.33","fixation","","","","",""
"886.0000000568107","Stimuli/Hangul_F24.bmp","188","image-keyboard-response","529","1311017","0.0-19.0-2.33","c2_test",".","","","",","
"1775.000000023283","<p style=""color:white;""> Next Figure: Male or Female? </p>","190","html-keyboard-response","530","1312792","0.0-19.0-0.34","prediction","","","",".",""
"null","<div style=""color:white; font-size:60px;"">+</div>","null","html-keyboard-response","531","1313793","0.0-19.0-1.34","fixation","","","","",""
"797.0000000204891","Stimuli/Hangul_F12.bmp","188","image-keyboard-response","532","1314593","0.0-19.0-2.34","c2_test",".","","","",","
"1904.0000000968575","<p style=""color:white;""> Next Figure: Male or Female? </p>","190","html-keyboard-response","533","1316497","0.0-19.0-0.35","prediction","","","",".",""
"null","<div style=""color:white; font-size:60px;"">+</div>","null","html-keyboard-response","534","1317498","0.0-19.0-1.35","fixation","","","","",""
"797.0000000204891","Stimuli/Hangul_F2.bmp","188","image-keyboard-response","535","1318296","0.0-19.0-2.35","c2_test",".","","","",","
"1775.000000023283","<p style=""color:white;""> Next Figure: Male or Female? </p>","190","html-keyboard-response","536","1320073","0.0-19.0-0.36","prediction","","","",".",""
"null","<div style=""color:white; font-size:60px;"">+</div>","null","html-keyboard-response","537","1321074","0.0-19.0-1.36","fixation","","","","",""
"1557.9999999608845","Stimuli/Hangul_M8.bmp","188","image-keyboard-response","538","1322633","0.0-19.0-2.36","c2_test",",","","","",","
"1157.9999999376014","<p style=""color:white;""> Next Figure: Male or Female? </p>","188","html-keyboard-response","539","1323793","0.0-19.0-0.37","prediction","","","",",",""
"null","<div style=""color:white; font-size:60px;"">+</div>","null","html-keyboard-response","540","1324793","0.0-19.0-1.37","fixation","","","","",""
"830.0000000745058","Stimuli/Hangul_M16.bmp","188","image-keyboard-response","541","1325624","0.0-19.0-2.37","c2_test",",","","","",","
"2945.0000000651926","<p style=""color:white;""> Next Figure: Male or Female? </p>","188","html-keyboard-response","542","1328570","0.0-19.0-0.38","prediction","","","",",",""
"null","<div style=""color:white; font-size:60px;"">+</div>","null","html-keyboard-response","543","1329571","0.0-19.0-1.38","fixation","","","","",""
"1876.0000000474975","Stimuli/Hangul_F3.bmp","190","image-keyboard-response","544","1331449","0.0-19.0-2.38","c2_test",".","","","","."
"1808.0000000772998","<p style=""color:white;""> Next Figure: Male or Female? </p>","190","html-keyboard-response","545","1333257","0.0-19.0-0.39","prediction","","","",".",""
"null","<div style=""color:white; font-size:60px;"">+</div>","null","html-keyboard-response","546","1334258","0.0-19.0-1.39","fixation","","","","",""
"924.9999999301508","Stimuli/Hangul_F7.bmp","188","image-keyboard-response","547","1335185","0.0-19.0-2.39","c2_test",".","","","",","
"1912.0000000111759","<p style=""color:white;""> Next Figure: Male or Female? </p>","190","html-keyboard-response","548","1337097","0.0-19.0-0.40","prediction","","","",".",""
"null","<div style=""color:white; font-size:60px;"">+</div>","null","html-keyboard-response","549","1338099","0.0-19.0-1.40","fixation","","","","",""
"847.0000000670552","Stimuli/Hangul_M17.bmp","188","image-keyboard-response","550","1338946","0.0-19.0-2.40","c2_test",",","","","",","
"1863.0000000121072","<p style=""color:white;""> Next Figure: Male or Female? </p>","188","html-keyboard-response","551","1340810","0.0-19.0-0.41","prediction","","","",",",""
"null","<div style=""color:white; font-size:60px;"">+</div>","null","html-keyboard-response","552","1341812","0.0-19.0-1.41","fixation","","","","",""
"820.0000000651926","Stimuli/Hangul_F15.bmp","188","image-keyboard-response","553","1342633","0.0-19.0-2.41","c2_test",".","","","",","
"1831.000000005588","<p style=""color:white;""> Next Figure: Male or Female? </p>","188","html-keyboard-response","554","1344465","0.0-19.0-0.42","prediction","","","",",",""
"null","<div style=""color:white; font-size:60px;"">+</div>","null","html-keyboard-response","555","1345466","0.0-19.0-1.42","fixation","","","","",""
"685.9999999869615","Stimuli/Hangul_M12.bmp","188","image-keyboard-response","556","1346153","0.0-19.0-2.42","c2_test",",","","","",","
"1670.9999999729916","<p style=""color:white;""> Next Figure: Male or Female? </p>","190","html-keyboard-response","557","1347826","0.0-19.0-0.43","prediction","","","",".",""
"null","<div style=""color:white; font-size:60px;"">+</div>","null","html-keyboard-response","558","1348826","0.0-19.0-1.43","fixation","","","","",""
"1023.0000000447035","Stimuli/Hangul_M21.bmp","188","image-keyboard-response","559","1349850","0.0-19.0-2.43","c2_test",",","","","",","
"2245.9999999264255","<p style=""color:white;""> Next Figure: Male or Female? </p>","188","html-keyboard-response","560","1352098","0.0-19.0-0.44","prediction","","","",",",""
"null","<div style=""color:white; font-size:60px;"">+</div>","null","html-keyboard-response","561","1353099","0.0-19.0-1.44","fixation","","","","",""
"805.0000000512227","Stimuli/Hangul_M24.bmp","188","image-keyboard-response","562","1353906","0.0-19.0-2.44","c2_test",",","","","",","
"1967.0000000623986","<p style=""color:white;""> Next Figure: Male or Female? </p>","190","html-keyboard-response","563","1355874","0.0-19.0-0.45","prediction","","","",".",""
"null","<div style=""color:white; font-size:60px;"">+</div>","null","html-keyboard-response","564","1356874","0.0-19.0-1.45","fixation","","","","",""
"1310.9999999869615","Stimuli/Hangul_M22.bmp","188","image-keyboard-response","565","1358186","0.0-19.0-2.45","c2_test",",","","","",","
"1654.0000000968575","<p style=""color:white;""> Next Figure: Male or Female? </p>","188","html-keyboard-response","566","1359841","0.0-19.0-0.46","prediction","","","",",",""
"null","<div style=""color:white; font-size:60px;"">+</div>","null","html-keyboard-response","567","1360842","0.0-19.0-1.46","fixation","","","","",""
"1518.999999971129","Stimuli/Hangul_M7.bmp","190","image-keyboard-response","568","1362362","0.0-19.0-2.46","c2_test",",","","","","."
"1559.000000008382","<p style=""color:white;""> Next Figure: Male or Female? </p>","188","html-keyboard-response","569","1363922","0.0-19.0-0.47","prediction","","","",",",""
"null","<div style=""color:white; font-size:60px;"">+</div>","null","html-keyboard-response","570","1364923","0.0-19.0-1.47","fixation","","","","",""
"1108.9999999385327","Stimuli/Hangul_M15.bmp","188","image-keyboard-response","571","1366034","0.0-19.0-2.47","c2_test",",","","","",","
"1351.0000000242144","<p style=""color:white;""> Next Figure: Male or Female? </p>","190","html-keyboard-response","572","1367385","0.0-19.0-0.48","prediction","","","",".",""
"null","<div style=""color:white; font-size:60px;"">+</div>","null","html-keyboard-response","573","1368387","0.0-19.0-1.48","fixation","","","","",""
"1038.0000000586733","Stimuli/Hangul_F6.bmp","188","image-keyboard-response","574","1369426","0.0-19.0-2.48","c2_test",".","","","",","
"1853.999999933876","<p style=""color:white;""> Next Figure: Male or Female? </p>","188","html-keyboard-response","575","1371281","0.0-19.0-0.49","prediction","","","",",",""
"null","<div style=""color:white; font-size:60px;"">+</div>","null","html-keyboard-response","576","1372282","0.0-19.0-1.49","fixation","","","","",""
"808.0000000772998","Stimuli/Hangul_F11.bmp","188","image-keyboard-response","577","1373091","0.0-19.0-2.49","c2_test",".","","","",","
"4925.999999977648","<p style=""color:white;"">Good job, block 1 complete! Please take a moment to rest.</p> <p style=""color:white;"">When you are ready to continue with block 2 of 4, press the space bar.</p> ","32","html-keyboard-response","578","1378018","0.0-20.0","","","","","",""
"814.9999999441206","<p style=""color:white;""> Next Figure: Male or Female? </p>","190","html-keyboard-response","579","1380834","0.0-21.0-0.0","prediction","","","",".",""
"null","<div style=""color:white; font-size:60px;"">+</div>","null","html-keyboard-response","580","1381836","0.0-21.0-1.0","fixation","","","","",""
"1589.0000000363216","Stimuli/Hangul_M29.bmp","188","image-keyboard-response","581","1383426","0.0-21.0-2.0","c2_test",",","","","",","
"1277.9999999329448","<p style=""color:white;""> Next Figure: Male or Female? </p>","190","html-keyboard-response","582","1384706","0.0-21.0-0.1","prediction","","","",".",""
"null","<div style=""color:white; font-size:60px;"">+</div>","null","html-keyboard-response","583","1385707","0.0-21.0-1.1","fixation","","","","",""
"1148.9999999757856","Stimuli/Hangul_F46.bmp","188","image-keyboard-response","584","1386858","0.0-21.0-2.1","c2_test",".","","","",","
"1871.999999973923","<p style=""color:white;""> Next Figure: Male or Female? </p>","190","html-keyboard-response","585","1388731","0.0-21.0-0.2","prediction","","","",".",""
"null","<div style=""color:white; font-size:60px;"">+</div>","null","html-keyboard-response","586","1389731","0.0-21.0-1.2","fixation","","","","",""
"1123.9999999525025","Stimuli/Hangul_M26.bmp","188","image-keyboard-response","587","1390858","0.0-21.0-2.2","c2_test",",","","","",","
"1743.999999947846","<p style=""color:white;""> Next Figure: Male or Female? </p>","188","html-keyboard-response","588","1392602","0.0-21.0-0.3","prediction","","","",",",""
"null","<div style=""color:white; font-size:60px;"">+</div>","null","html-keyboard-response","589","1393602","0.0-21.0-1.3","fixation","","","","",""
"1022.9999999282882","Stimuli/Hangul_F40.bmp","188","image-keyboard-response","590","1394625","0.0-21.0-2.3","c2_test",".","","","",","
"1524.9999999068677","<p style=""color:white;""> Next Figure: Male or Female? </p>","190","html-keyboard-response","591","1396152","0.0-21.0-0.4","prediction","","","",".",""
"null","<div style=""color:white; font-size:60px;"">+</div>","null","html-keyboard-response","592","1397153","0.0-21.0-1.4","fixation","","","","",""
"1005.9999999357387","Stimuli/Hangul_M42.bmp","188","image-keyboard-response","593","1398160","0.0-21.0-2.4","c2_test",",","","","",","
"1751.9999999785796","<p style=""color:white;""> Next Figure: Male or Female? </p>","190","html-keyboard-response","594","1399913","0.0-21.0-0.5","prediction","","","",".",""
"null","<div style=""color:white; font-size:60px;"">+</div>","null","html-keyboard-response","595","1400914","0.0-21.0-1.5","fixation","","","","",""
"868.9999999478459","Stimuli/Hangul_M46.bmp","188","image-keyboard-response","596","1401784","0.0-21.0-2.5","c2_test",",","","","",","
"2167.0000000158325","<p style=""color:white;""> Next Figure: Male or Female? </p>","188","html-keyboard-response","597","1403953","0.0-21.0-0.6","prediction","","","",",",""
"null","<div style=""color:white; font-size:60px;"">+</div>","null","html-keyboard-response","598","1404954","0.0-21.0-1.6","fixation","","","","",""
"973.9999999292195","Stimuli/Hangul_F31.bmp","190","image-keyboard-response","599","1405930","0.0-21.0-2.6","c2_test",".","","","","."
"1732.9999998910353","<p style=""color:white;""> Next Figure: Male or Female? </p>","190","html-keyboard-response","600","1407664","0.0-21.0-0.7","prediction","","","",".",""
"null","<div style=""color:white; font-size:60px;"">+</div>","null","html-keyboard-response","601","1408665","0.0-21.0-1.7","fixation","","","","",""
"1165.999999968335","Stimuli/Hangul_F38.bmp","188","image-keyboard-response","602","1409832","0.0-21.0-2.7","c2_test",".","","","",","
"1647.0000001136214","<p style=""color:white;""> Next Figure: Male or Female? </p>","188","html-keyboard-response","603","1411481","0.0-21.0-0.8","prediction","","","",",",""
"null","<div style=""color:white; font-size:60px;"">+</div>","null","html-keyboard-response","604","1412481","0.0-21.0-1.8","fixation","","","","",""
"902.9999999329448","Stimuli/Hangul_M32.bmp","188","image-keyboard-response","605","1413385","0.0-21.0-2.8","c2_test",",","","","",","
"1630.9999999357387","<p style=""color:white;""> Next Figure: Male or Female? </p>","188","html-keyboard-response","606","1415017","0.0-21.0-0.9","prediction","","","",",",""
"null","<div style=""color:white; font-size:60px;"">+</div>","null","html-keyboard-response","607","1416018","0.0-21.0-1.9","fixation","","","","",""
"878.9999999571592","Stimuli/Hangul_F44.bmp","190","image-keyboard-response","608","1416897","0.0-21.0-2.9","c2_test",".","","","","."
"1542.0000000158325","<p style=""color:white;""> Next Figure: Male or Female? </p>","190","html-keyboard-response","609","1418440","0.0-21.0-0.10","prediction","","","",".",""
"null","<div style=""color:white; font-size:60px;"">+</div>","null","html-keyboard-response","610","1419442","0.0-21.0-1.10","fixation","","","","",""
"925.9999999776483","Stimuli/Hangul_M31.bmp","188","image-keyboard-response","611","1420368","0.0-21.0-2.10","c2_test",",","","","",","
"1488.9999999431893","<p style=""color:white;""> Next Figure: Male or Female? </p>","190","html-keyboard-response","612","1421858","0.0-21.0-0.11","prediction","","","",".",""
"null","<div style=""color:white; font-size:60px;"">+</div>","null","html-keyboard-response","613","1422860","0.0-21.0-1.11","fixation","","","","",""
"819.0000000176951","Stimuli/Hangul_M48.bmp","188","image-keyboard-response","614","1423680","0.0-21.0-2.11","c2_test",",","","","",","
"1558.9999998919666","<p style=""color:white;""> Next Figure: Male or Female? </p>","188","html-keyboard-response","615","1425241","0.0-21.0-0.12","prediction","","","",",",""
"null","<div style=""color:white; font-size:60px;"">+</div>","null","html-keyboard-response","616","1426242","0.0-21.0-1.12","fixation","","","","",""
"814.0000000130385","Stimuli/Hangul_F29.bmp","190","image-keyboard-response","617","1427057","0.0-21.0-2.12","c2_test",".","","","","."
"1623.0000000214204","<p style=""color:white;""> Next Figure: Male or Female? </p>","188","html-keyboard-response","618","1428681","0.0-21.0-0.13","prediction","","","",",",""
"null","<div style=""color:white; font-size:60px;"">+</div>","null","html-keyboard-response","619","1429683","0.0-21.0-1.13","fixation","","","","",""
"893.0000000400469","Stimuli/Hangul_F25.bmp","188","image-keyboard-response","620","1430578","0.0-21.0-2.13","c2_test",".","","","",","
"1525.9999999543652","<p style=""color:white;""> Next Figure: Male or Female? </p>","190","html-keyboard-response","621","1432105","0.0-21.0-0.14","prediction","","","",".",""
"null","<div style=""color:white; font-size:60px;"">+</div>","null","html-keyboard-response","622","1433106","0.0-21.0-1.14","fixation","","","","",""
"908.9999999850988","Stimuli/Hangul_F48.bmp","188","image-keyboard-response","623","1434016","0.0-21.0-2.14","c2_test",".","","","",","
"1736.0000000335276","<p style=""color:white;""> Next Figure: Male or Female? </p>","188","html-keyboard-response","624","1435753","0.0-21.0-0.15","prediction","","","",",",""
"null","<div style=""color:white; font-size:60px;"">+</div>","null","html-keyboard-response","625","1436753","0.0-21.0-1.15","fixation","","","","",""
"839.9999999674037","Stimuli/Hangul_F39.bmp","190","image-keyboard-response","626","1437594","0.0-21.0-2.15","c2_test",".","","","","."
"1669.9999999254942","<p style=""color:white;""> Next Figure: Male or Female? </p>","190","html-keyboard-response","627","1439265","0.0-21.0-0.16","prediction","","","",".",""
"null","<div style=""color:white; font-size:60px;"">+</div>","null","html-keyboard-response","628","1440266","0.0-21.0-1.16","fixation","","","","",""
"773.0000000447035","Stimuli/Hangul_F47.bmp","188","image-keyboard-response","629","1441041","0.0-21.0-2.16","c2_test",".","","","",","
"1239.9999999906868","<p style=""color:white;""> Next Figure: Male or Female? </p>","190","html-keyboard-response","630","1442281","0.0-21.0-0.17","prediction","","","",".",""
"null","<div style=""color:white; font-size:60px;"">+</div>","null","html-keyboard-response","631","1443283","0.0-21.0-1.17","fixation","","","","",""
"820.9999999962747","Stimuli/Hangul_F27.bmp","188","image-keyboard-response","632","1444104","0.0-21.0-2.17","c2_test",".","","","",","
"1726.9999999552965","<p style=""color:white;""> Next Figure: Male or Female? </p>","188","html-keyboard-response","633","1445833","0.0-21.0-0.18","prediction","","","",",",""
"null","<div style=""color:white; font-size:60px;"">+</div>","null","html-keyboard-response","634","1446835","0.0-21.0-1.18","fixation","","","","",""
"700.0000000698492","Stimuli/Hangul_M47.bmp","188","image-keyboard-response","635","1447536","0.0-21.0-2.18","c2_test",",","","","",","
"1608.0000000074506","<p style=""color:white;""> Next Figure: Male or Female? </p>","188","html-keyboard-response","636","1449146","0.0-21.0-0.19","prediction","","","",",",""
"null","<div style=""color:white; font-size:60px;"">+</div>","null","html-keyboard-response","637","1450147","0.0-21.0-1.19","fixation","","","","",""
"648.9999999757856","Stimuli/Hangul_M40.bmp","188","image-keyboard-response","638","1450801","0.0-21.0-2.19","c2_test",",","","","",","
"1534.999999916181","<p style=""color:white;""> Next Figure: Male or Female? </p>","188","html-keyboard-response","639","1452337","0.0-21.0-0.20","prediction","","","",",",""
"null","<div style=""color:white; font-size:60px;"">+</div>","null","html-keyboard-response","640","1453337","0.0-21.0-1.20","fixation","","","","",""
"831.0000000055879","Stimuli/Hangul_F42.bmp","190","image-keyboard-response","641","1454169","0.0-21.0-2.20","c2_test",".","","","","."
"1182.9999999608845","<p style=""color:white;""> Next Figure: Male or Female? </p>","188","html-keyboard-response","642","1455353","0.0-21.0-0.21","prediction","","","",",",""
"null","<div style=""color:white; font-size:60px;"">+</div>","null","html-keyboard-response","643","1456354","0.0-21.0-1.21","fixation","","","","",""
"1420.9999999729916","Stimuli/Hangul_M36.bmp","188","image-keyboard-response","644","1457777","0.0-21.0-2.21","c2_test",",","","","",","
"1247.0000000903383","<p style=""color:white;""> Next Figure: Male or Female? </p>","190","html-keyboard-response","645","1459024","0.0-21.0-0.22","prediction","","","",".",""
"null","<div style=""color:white; font-size:60px;"">+</div>","null","html-keyboard-response","646","1460025","0.0-21.0-1.22","fixation","","","","",""
"920.0000000419095","Stimuli/Hangul_M28.bmp","188","image-keyboard-response","647","1460946","0.0-21.0-2.22","c2_test",",","","","",","
"1413.9999999897555","<p style=""color:white;""> Next Figure: Male or Female? </p>","188","html-keyboard-response","648","1462360","0.0-21.0-0.23","prediction","","","",",",""
"null","<div style=""color:white; font-size:60px;"">+</div>","null","html-keyboard-response","649","1463362","0.0-21.0-1.23","fixation","","","","",""
"717.0000000623986","Stimuli/Hangul_M44.bmp","188","image-keyboard-response","650","1464080","0.0-21.0-2.23","c2_test",",","","","",","
"1342.9999999934807","<p style=""color:white;""> Next Figure: Male or Female? </p>","188","html-keyboard-response","651","1465424","0.0-21.0-0.24","prediction","","","",",",""
"null","<div style=""color:white; font-size:60px;"">+</div>","null","html-keyboard-response","652","1466425","0.0-21.0-1.24","fixation","","","","",""
"837.9999999888241","Stimuli/Hangul_M35.bmp","188","image-keyboard-response","653","1467265","0.0-21.0-2.24","c2_test",",","","","",","
"1423.9999999990687","<p style=""color:white;""> Next Figure: Male or Female? </p>","188","html-keyboard-response","654","1468689","0.0-21.0-0.25","prediction","","","",",",""
"null","<div style=""color:white; font-size:60px;"">+</div>","null","html-keyboard-response","655","1469690","0.0-21.0-1.25","fixation","","","","",""
