"rt","stimulus","key_press","trial_type","trial_index","time_elapsed","internal_node_id","test_part","correct_response","C1_train","C1","A","C2"
"1596","<p style=""color:white;"">Welcome to the experiment! Press any key to begin.</p>","32","html-keyboard-response","0","1601","0.0-0.0","","","","","",""
"58328","<p style=""color:white;"">You will see a series of abstract figures. They are adaptations of signs in the Korean alphabet, but that is not important for this study. </p><p style=""color:white;"">Abstract figures sometimes have a more masculine or feminine shape. Here, each figure has already been assigned a gender as <q>Male</q> or <q>Female</q> by a panel of respondents in a pilot study. The respondents were not given specific instructions on how to do this, but were only told to use their intuition and to take into account the entire configuration of the stimulus. </p><p style=""color:white;"">Your task now is to guess the assigned gender of each figure. Please press the corresponding response keys to indicate your choice: </p><p style=""color:white;""> Male &#8594 <q>,</q> (comma)</p><p style=""color:white;""> Female &#8594 <q>.</q> (period)</p><p style=""color:white;"">Press either response keys to continue.</p>","188","html-keyboard-response","1","59932","0.0-1.0","","","","","",""
"9254","<p style=""color:white;"">Your choice is correct if it matches the gender assigned by the majority of respondents in the pilot study.</p> <p style=""color:white;"">For each correct choice you will receive 2 cents. There will be 200 trials divided into 4 blocks of 50 trials. You will be able to take a break after every 50 trials.</p> <p style=""color:white;"">Press the space bar to continue.</p>","32","html-keyboard-response","2","69188","0.0-2.0","","","","","",""
"4684","<p style=""color:white;"">Here are some examples.</p> <p style=""color:white;"">For each, guess whether the assigned figure is male-like or female-like and indicate your choice by pressing either response keys.</p> <p style=""color:white;"">Press the space bar to continue.</p>","32","html-keyboard-response","3","73877","0.0-3.0","","","","","",""
"null","<div style=""color:white; font-size:60px;"">+</div>","null","html-keyboard-response","4","76881","0.0-4.0-0.0","fixation","","","","",""
"1804","Stimuli/Hangul_E1.bmp","188","image-keyboard-response","5","78692","0.0-4.0-1.0","c1_train",",",",","","",""
"null","<div style=""color:white; font-size:60px;"">+</div>","null","html-keyboard-response","6","79694","0.0-4.0-0.1","fixation","","","","",""
"1419","Stimuli/Hangul_E2.bmp","188","image-keyboard-response","7","81115","0.0-4.0-1.1","c1_train",".",",","","",""
"null","<div style=""color:white; font-size:60px;"">+</div>","null","html-keyboard-response","8","82117","0.0-4.0-0.2","fixation","","","","",""
"1588","Stimuli/Hangul_E0.bmp","190","image-keyboard-response","9","83707","0.0-4.0-1.2","c1_train",",",".","","",""
"1545","<p style=""color:white;"">Let us begin! Press the space bar when you are ready to start block 1 of 4.</p> ","32","html-keyboard-response","10","85255","0.0-5.0","","","","","",""
"null","<div style=""color:white; font-size:60px;"">+</div>","null","html-keyboard-response","11","88258","0.0-6.0-0.0","fixation","","","","",""
"1195","Stimuli/Hangul_F12.bmp","190","image-keyboard-response","12","89456","0.0-6.0-1.0","test",".","",".","",""
"null","<div style=""color:white; font-size:60px;"">+</div>","null","html-keyboard-response","13","90458","0.0-6.0-0.1","fixation","","","","",""
"1792","Stimuli/Hangul_M8.bmp","188","image-keyboard-response","14","92254","0.0-6.0-1.1","test",",","",",","",""
"null","<div style=""color:white; font-size:60px;"">+</div>","null","html-keyboard-response","15","93255","0.0-6.0-0.2","fixation","","","","",""
"1787","Stimuli/Hangul_M9.bmp","190","image-keyboard-response","16","95044","0.0-6.0-1.2","test",",","",".","",""
"null","<div style=""color:white; font-size:60px;"">+</div>","null","html-keyboard-response","17","96045","0.0-6.0-0.3","fixation","","","","",""
"2503","Stimuli/Hangul_M17.bmp","188","image-keyboard-response","18","98551","0.0-6.0-1.3","test",",","",",","",""
"null","<div style=""color:white; font-size:60px;"">+</div>","null","html-keyboard-response","19","99552","0.0-6.0-0.4","fixation","","","","",""
"1946","Stimuli/Hangul_F3.bmp","190","image-keyboard-response","20","101500","0.0-6.0-1.4","test",".","",".","",""
"null","<div style=""color:white; font-size:60px;"">+</div>","null","html-keyboard-response","21","102503","0.0-6.0-0.5","fixation","","","","",""
"1771","Stimuli/Hangul_M23.bmp","188","image-keyboard-response","22","104277","0.0-6.0-1.5","test",",","",",","",""
"null","<div style=""color:white; font-size:60px;"">+</div>","null","html-keyboard-response","23","105279","0.0-6.0-0.6","fixation","","","","",""
"1454","Stimuli/Hangul_F8.bmp","190","image-keyboard-response","24","106735","0.0-6.0-1.6","test",".","",".","",""
"null","<div style=""color:white; font-size:60px;"">+</div>","null","html-keyboard-response","25","107736","0.0-6.0-0.7","fixation","","","","",""
"1453","Stimuli/Hangul_M14.bmp","188","image-keyboard-response","26","109192","0.0-6.0-1.7","test",",","",",","",""
"null","<div style=""color:white; font-size:60px;"">+</div>","null","html-keyboard-response","27","110192","0.0-6.0-0.8","fixation","","","","",""
"1386","Stimuli/Hangul_F23.bmp","188","image-keyboard-response","28","111579","0.0-6.0-1.8","test",".","",",","",""
"null","<div style=""color:white; font-size:60px;"">+</div>","null","html-keyboard-response","29","112581","0.0-6.0-0.9","fixation","","","","",""
"1464","Stimuli/Hangul_F13.bmp","188","image-keyboard-response","30","114048","0.0-6.0-1.9","test",".","",",","",""
"null","<div style=""color:white; font-size:60px;"">+</div>","null","html-keyboard-response","31","115049","0.0-6.0-0.10","fixation","","","","",""
"1695","Stimuli/Hangul_F20.bmp","188","image-keyboard-response","32","116745","0.0-6.0-1.10","test",".","",",","",""
"null","<div style=""color:white; font-size:60px;"">+</div>","null","html-keyboard-response","33","117748","0.0-6.0-0.11","fixation","","","","",""
"941","Stimuli/Hangul_M18.bmp","190","image-keyboard-response","34","118691","0.0-6.0-1.11","test",",","",".","",""
"null","<div style=""color:white; font-size:60px;"">+</div>","null","html-keyboard-response","35","119693","0.0-6.0-0.12","fixation","","","","",""
"1050","Stimuli/Hangul_M1.bmp","190","image-keyboard-response","36","120745","0.0-6.0-1.12","test",",","",".","",""
"null","<div style=""color:white; font-size:60px;"">+</div>","null","html-keyboard-response","37","121746","0.0-6.0-0.13","fixation","","","","",""
"1649","Stimuli/Hangul_M3.bmp","190","image-keyboard-response","38","123398","0.0-6.0-1.13","test",",","",".","",""
"null","<div style=""color:white; font-size:60px;"">+</div>","null","html-keyboard-response","39","124400","0.0-6.0-0.14","fixation","","","","",""
"1323","Stimuli/Hangul_F24.bmp","188","image-keyboard-response","40","125724","0.0-6.0-1.14","test",".","",",","",""
"null","<div style=""color:white; font-size:60px;"">+</div>","null","html-keyboard-response","41","126726","0.0-6.0-0.15","fixation","","","","",""
"1663","Stimuli/Hangul_F6.bmp","188","image-keyboard-response","42","128390","0.0-6.0-1.15","test",".","",",","",""
"null","<div style=""color:white; font-size:60px;"">+</div>","null","html-keyboard-response","43","129391","0.0-6.0-0.16","fixation","","","","",""
"1858","Stimuli/Hangul_F1.bmp","190","image-keyboard-response","44","131251","0.0-6.0-1.16","test",".","",".","",""
"null","<div style=""color:white; font-size:60px;"">+</div>","null","html-keyboard-response","45","132251","0.0-6.0-0.17","fixation","","","","",""
"1317","Stimuli/Hangul_M4.bmp","188","image-keyboard-response","46","133570","0.0-6.0-1.17","test",",","",",","",""
"null","<div style=""color:white; font-size:60px;"">+</div>","null","html-keyboard-response","47","134573","0.0-6.0-0.18","fixation","","","","",""
"847","Stimuli/Hangul_M11.bmp","188","image-keyboard-response","48","135421","0.0-6.0-1.18","test",",","",",","",""
"null","<div style=""color:white; font-size:60px;"">+</div>","null","html-keyboard-response","49","136423","0.0-6.0-0.19","fixation","","","","",""
"1137","Stimuli/Hangul_F21.bmp","190","image-keyboard-response","50","137562","0.0-6.0-1.19","test",".","",".","",""
"null","<div style=""color:white; font-size:60px;"">+</div>","null","html-keyboard-response","51","138563","0.0-6.0-0.20","fixation","","","","",""
"1366","Stimuli/Hangul_M2.bmp","190","image-keyboard-response","52","139932","0.0-6.0-1.20","test",",","",".","",""
"null","<div style=""color:white; font-size:60px;"">+</div>","null","html-keyboard-response","53","140933","0.0-6.0-0.21","fixation","","","","",""
"953","Stimuli/Hangul_F10.bmp","188","image-keyboard-response","54","141888","0.0-6.0-1.21","test",".","",",","",""
"null","<div style=""color:white; font-size:60px;"">+</div>","null","html-keyboard-response","55","142889","0.0-6.0-0.22","fixation","","","","",""
"1003","Stimuli/Hangul_M21.bmp","190","image-keyboard-response","56","143894","0.0-6.0-1.22","test",",","",".","",""
"null","<div style=""color:white; font-size:60px;"">+</div>","null","html-keyboard-response","57","144896","0.0-6.0-0.23","fixation","","","","",""
"1087","Stimuli/Hangul_F0.bmp","188","image-keyboard-response","58","145985","0.0-6.0-1.23","test",".","",",","",""
"null","<div style=""color:white; font-size:60px;"">+</div>","null","html-keyboard-response","59","146986","0.0-6.0-0.24","fixation","","","","",""
"1872","Stimuli/Hangul_M24.bmp","188","image-keyboard-response","60","148860","0.0-6.0-1.24","test",",","",",","",""
"null","<div style=""color:white; font-size:60px;"">+</div>","null","html-keyboard-response","61","149861","0.0-6.0-0.25","fixation","","","","",""
"1620","Stimuli/Hangul_M22.bmp","190","image-keyboard-response","62","151482","0.0-6.0-1.25","test",",","",".","",""
"null","<div style=""color:white; font-size:60px;"">+</div>","null","html-keyboard-response","63","152484","0.0-6.0-0.26","fixation","","","","",""
"1526","Stimuli/Hangul_M13.bmp","188","image-keyboard-response","64","154011","0.0-6.0-1.26","test",",","",",","",""
"null","<div style=""color:white; font-size:60px;"">+</div>","null","html-keyboard-response","65","155013","0.0-6.0-0.27","fixation","","","","",""
"1708","Stimuli/Hangul_M12.bmp","188","image-keyboard-response","66","156721","0.0-6.0-1.27","test",",","",",","",""
"null","<div style=""color:white; font-size:60px;"">+</div>","null","html-keyboard-response","67","157723","0.0-6.0-0.28","fixation","","","","",""
"1983","Stimuli/Hangul_F4.bmp","190","image-keyboard-response","68","159706","0.0-6.0-1.28","test",".","",".","",""
"null","<div style=""color:white; font-size:60px;"">+</div>","null","html-keyboard-response","69","160708","0.0-6.0-0.29","fixation","","","","",""
"1522","Stimuli/Hangul_F22.bmp","188","image-keyboard-response","70","162231","0.0-6.0-1.29","test",".","",",","",""
"null","<div style=""color:white; font-size:60px;"">+</div>","null","html-keyboard-response","71","163233","0.0-6.0-0.30","fixation","","","","",""
"2677","Stimuli/Hangul_F11.bmp","190","image-keyboard-response","72","165911","0.0-6.0-1.30","test",".","",".","",""
"null","<div style=""color:white; font-size:60px;"">+</div>","null","html-keyboard-response","73","166913","0.0-6.0-0.31","fixation","","","","",""
"1904","Stimuli/Hangul_F15.bmp","188","image-keyboard-response","74","168819","0.0-6.0-1.31","test",".","",",","",""
"null","<div style=""color:white; font-size:60px;"">+</div>","null","html-keyboard-response","75","169821","0.0-6.0-0.32","fixation","","","","",""
"1677","Stimuli/Hangul_F7.bmp","188","image-keyboard-response","76","171500","0.0-6.0-1.32","test",".","",",","",""
"null","<div style=""color:white; font-size:60px;"">+</div>","null","html-keyboard-response","77","172500","0.0-6.0-0.33","fixation","","","","",""
"1523","Stimuli/Hangul_M16.bmp","188","image-keyboard-response","78","174025","0.0-6.0-1.33","test",",","",",","",""
"null","<div style=""color:white; font-size:60px;"">+</div>","null","html-keyboard-response","79","175027","0.0-6.0-0.34","fixation","","","","",""
"1022","Stimuli/Hangul_F2.bmp","190","image-keyboard-response","80","176051","0.0-6.0-1.34","test",".","",".","",""
"null","<div style=""color:white; font-size:60px;"">+</div>","null","html-keyboard-response","81","177052","0.0-6.0-0.35","fixation","","","","",""
"1510","Stimuli/Hangul_M20.bmp","188","image-keyboard-response","82","178564","0.0-6.0-1.35","test",",","",",","",""
"null","<div style=""color:white; font-size:60px;"">+</div>","null","html-keyboard-response","83","179565","0.0-6.0-0.36","fixation","","","","",""
"1610","Stimuli/Hangul_M6.bmp","188","image-keyboard-response","84","181178","0.0-6.0-1.36","test",",","",",","",""
"null","<div style=""color:white; font-size:60px;"">+</div>","null","html-keyboard-response","85","182179","0.0-6.0-0.37","fixation","","","","",""
"1025","Stimuli/Hangul_F14.bmp","190","image-keyboard-response","86","183205","0.0-6.0-1.37","test",".","",".","",""
"null","<div style=""color:white; font-size:60px;"">+</div>","null","html-keyboard-response","87","184207","0.0-6.0-0.38","fixation","","","","",""
"1274","Stimuli/Hangul_F17.bmp","188","image-keyboard-response","88","185483","0.0-6.0-1.38","test",".","",",","",""
"null","<div style=""color:white; font-size:60px;"">+</div>","null","html-keyboard-response","89","186485","0.0-6.0-0.39","fixation","","","","",""
"938","Stimuli/Hangul_M10.bmp","188","image-keyboard-response","90","187424","0.0-6.0-1.39","test",",","",",","",""
"null","<div style=""color:white; font-size:60px;"">+</div>","null","html-keyboard-response","91","188426","0.0-6.0-0.40","fixation","","","","",""
"1517","Stimuli/Hangul_M7.bmp","190","image-keyboard-response","92","189946","0.0-6.0-1.40","test",",","",".","",""
"null","<div style=""color:white; font-size:60px;"">+</div>","null","html-keyboard-response","93","190947","0.0-6.0-0.41","fixation","","","","",""
"1806","Stimuli/Hangul_F9.bmp","188","image-keyboard-response","94","192754","0.0-6.0-1.41","test",".","",",","",""
"null","<div style=""color:white; font-size:60px;"">+</div>","null","html-keyboard-response","95","193756","0.0-6.0-0.42","fixation","","","","",""
"1140","Stimuli/Hangul_M15.bmp","188","image-keyboard-response","96","194896","0.0-6.0-1.42","test",",","",",","",""
"null","<div style=""color:white; font-size:60px;"">+</div>","null","html-keyboard-response","97","195898","0.0-6.0-0.43","fixation","","","","",""
"1384","Stimuli/Hangul_M0.bmp","190","image-keyboard-response","98","197284","0.0-6.0-1.43","test",",","",".","",""
"null","<div style=""color:white; font-size:60px;"">+</div>","null","html-keyboard-response","99","198286","0.0-6.0-0.44","fixation","","","","",""
"1872","Stimuli/Hangul_F16.bmp","188","image-keyboard-response","100","200160","0.0-6.0-1.44","test",".","",",","",""
"null","<div style=""color:white; font-size:60px;"">+</div>","null","html-keyboard-response","101","201163","0.0-6.0-0.45","fixation","","","","",""
"1353","Stimuli/Hangul_M5.bmp","188","image-keyboard-response","102","202519","0.0-6.0-1.45","test",",","",",","",""
"null","<div style=""color:white; font-size:60px;"">+</div>","null","html-keyboard-response","103","203521","0.0-6.0-0.46","fixation","","","","",""
"1606","Stimuli/Hangul_M19.bmp","190","image-keyboard-response","104","205129","0.0-6.0-1.46","test",",","",".","",""
"null","<div style=""color:white; font-size:60px;"">+</div>","null","html-keyboard-response","105","206130","0.0-6.0-0.47","fixation","","","","",""
"1449","Stimuli/Hangul_F19.bmp","190","image-keyboard-response","106","207580","0.0-6.0-1.47","test",".","",".","",""
"null","<div style=""color:white; font-size:60px;"">+</div>","null","html-keyboard-response","107","208582","0.0-6.0-0.48","fixation","","","","",""
"1266","Stimuli/Hangul_F5.bmp","188","image-keyboard-response","108","209852","0.0-6.0-1.48","test",".","",",","",""
"null","<div style=""color:white; font-size:60px;"">+</div>","null","html-keyboard-response","109","210854","0.0-6.0-0.49","fixation","","","","",""
"976","Stimuli/Hangul_F18.bmp","188","image-keyboard-response","110","211830","0.0-6.0-1.49","test",".","",",","",""
"28104","<p style=""color:white;"">Good job, block 1 complete! Please take a moment to rest.</p> <p style=""color:white;"">When you are ready to continue with block 2 of 4, press the space bar.</p> ","32","html-keyboard-response","111","239937","0.0-7.0","","","","","",""
"null","<div style=""color:white; font-size:60px;"">+</div>","null","html-keyboard-response","112","242937","0.0-8.0-0.0","fixation","","","","",""
"1701","Stimuli/Hangul_F43.bmp","190","image-keyboard-response","113","244641","0.0-8.0-1.0","test",".","",".","",""
"null","<div style=""color:white; font-size:60px;"">+</div>","null","html-keyboard-response","114","245643","0.0-8.0-0.1","fixation","","","","",""
"1454","Stimuli/Hangul_M35.bmp","188","image-keyboard-response","115","247099","0.0-8.0-1.1","test",",","",",","",""
"null","<div style=""color:white; font-size:60px;"">+</div>","null","html-keyboard-response","116","248100","0.0-8.0-0.2","fixation","","","","",""
"1050","Stimuli/Hangul_M48.bmp","188","image-keyboard-response","117","249152","0.0-8.0-1.2","test",",","",",","",""
"null","<div style=""color:white; font-size:60px;"">+</div>","null","html-keyboard-response","118","250154","0.0-8.0-0.3","fixation","","","","",""
"1615","Stimuli/Hangul_M27.bmp","190","image-keyboard-response","119","251770","0.0-8.0-1.3","test",",","",".","",""
"null","<div style=""color:white; font-size:60px;"">+</div>","null","html-keyboard-response","120","252771","0.0-8.0-0.4","fixation","","","","",""
"1793","Stimuli/Hangul_F48.bmp","190","image-keyboard-response","121","254565","0.0-8.0-1.4","test",".","",".","",""
"null","<div style=""color:white; font-size:60px;"">+</div>","null","html-keyboard-response","122","255565","0.0-8.0-0.5","fixation","","","","",""
"1852","Stimuli/Hangul_M42.bmp","190","image-keyboard-response","123","257418","0.0-8.0-1.5","test",",","",".","",""
"null","<div style=""color:white; font-size:60px;"">+</div>","null","html-keyboard-response","124","258419","0.0-8.0-0.6","fixation","","","","",""
"1663","Stimuli/Hangul_M41.bmp","188","image-keyboard-response","125","260083","0.0-8.0-1.6","test",",","",",","",""
"null","<div style=""color:white; font-size:60px;"">+</div>","null","html-keyboard-response","126","261085","0.0-8.0-0.7","fixation","","","","",""
"1151","Stimuli/Hangul_M45.bmp","188","image-keyboard-response","127","262238","0.0-8.0-1.7","test",",","",",","",""
"null","<div style=""color:white; font-size:60px;"">+</div>","null","html-keyboard-response","128","263239","0.0-8.0-0.8","fixation","","","","",""
"1056","Stimuli/Hangul_F31.bmp","188","image-keyboard-response","129","264298","0.0-8.0-1.8","test",".","",",","",""
"null","<div style=""color:white; font-size:60px;"">+</div>","null","html-keyboard-response","130","265300","0.0-8.0-0.9","fixation","","","","",""
"1377","Stimuli/Hangul_F32.bmp","190","image-keyboard-response","131","266677","0.0-8.0-1.9","test",".","",".","",""
"null","<div style=""color:white; font-size:60px;"">+</div>","null","html-keyboard-response","132","267677","0.0-8.0-0.10","fixation","","","","",""
"1624","Stimuli/Hangul_M40.bmp","188","image-keyboard-response","133","269302","0.0-8.0-1.10","test",",","",",","",""
"null","<div style=""color:white; font-size:60px;"">+</div>","null","html-keyboard-response","134","270303","0.0-8.0-0.11","fixation","","","","",""
"1935","Stimuli/Hangul_M37.bmp","188","image-keyboard-response","135","272239","0.0-8.0-1.11","test",",","",",","",""
"null","<div style=""color:white; font-size:60px;"">+</div>","null","html-keyboard-response","136","273241","0.0-8.0-0.12","fixation","","","","",""
"1126","Stimuli/Hangul_M25.bmp","188","image-keyboard-response","137","274370","0.0-8.0-1.12","test",",","",",","",""
"null","<div style=""color:white; font-size:60px;"">+</div>","null","html-keyboard-response","138","275371","0.0-8.0-0.13","fixation","","","","",""
"1423","Stimuli/Hangul_M47.bmp","190","image-keyboard-response","139","276796","0.0-8.0-1.13","test",",","",".","",""
"null","<div style=""color:white; font-size:60px;"">+</div>","null","html-keyboard-response","140","277798","0.0-8.0-0.14","fixation","","","","",""
"1801","Stimuli/Hangul_F46.bmp","188","image-keyboard-response","141","279601","0.0-8.0-1.14","test",".","",",","",""
"null","<div style=""color:white; font-size:60px;"">+</div>","null","html-keyboard-response","142","280603","0.0-8.0-0.15","fixation","","","","",""
"2234","Stimuli/Hangul_F37.bmp","188","image-keyboard-response","143","282838","0.0-8.0-1.15","test",".","",",","",""
"null","<div style=""color:white; font-size:60px;"">+</div>","null","html-keyboard-response","144","283839","0.0-8.0-0.16","fixation","","","","",""
"1854","Stimuli/Hangul_F42.bmp","190","image-keyboard-response","145","285695","0.0-8.0-1.16","test",".","",".","",""
"null","<div style=""color:white; font-size:60px;"">+</div>","null","html-keyboard-response","146","286697","0.0-8.0-0.17","fixation","","","","",""
"1192","Stimuli/Hangul_M31.bmp","188","image-keyboard-response","147","287892","0.0-8.0-1.17","test",",","",",","",""
"null","<div style=""color:white; font-size:60px;"">+</div>","null","html-keyboard-response","148","288893","0.0-8.0-0.18","fixation","","","","",""
"962","Stimuli/Hangul_F26.bmp","188","image-keyboard-response","149","289857","0.0-8.0-1.18","test",".","",",","",""
"null","<div style=""color:white; font-size:60px;"">+</div>","null","html-keyboard-response","150","290858","0.0-8.0-0.19","fixation","","","","",""
"1215","Stimuli/Hangul_F27.bmp","188","image-keyboard-response","151","292077","0.0-8.0-1.19","test",".","",",","",""
"null","<div style=""color:white; font-size:60px;"">+</div>","null","html-keyboard-response","152","293078","0.0-8.0-0.20","fixation","","","","",""
"893","Stimuli/Hangul_M28.bmp","188","image-keyboard-response","153","293972","0.0-8.0-1.20","test",",","",",","",""
"null","<div style=""color:white; font-size:60px;"">+</div>","null","html-keyboard-response","154","294974","0.0-8.0-0.21","fixation","","","","",""
"1771","Stimuli/Hangul_F49.bmp","188","image-keyboard-response","155","296748","0.0-8.0-1.21","test",".","",",","",""
"null","<div style=""color:white; font-size:60px;"">+</div>","null","html-keyboard-response","156","297749","0.0-8.0-0.22","fixation","","","","",""
"1834","Stimuli/Hangul_F30.bmp","190","image-keyboard-response","157","299585","0.0-8.0-1.22","test",".","",".","",""
"null","<div style=""color:white; font-size:60px;"">+</div>","null","html-keyboard-response","158","300586","0.0-8.0-0.23","fixation","","","","",""
"1566","Stimuli/Hangul_M32.bmp","188","image-keyboard-response","159","302155","0.0-8.0-1.23","test",",","",",","",""
"null","<div style=""color:white; font-size:60px;"">+</div>","null","html-keyboard-response","160","303156","0.0-8.0-0.24","fixation","","","","",""
"1329","Stimuli/Hangul_M49.bmp","190","image-keyboard-response","161","304486","0.0-8.0-1.24","test",",","",".","",""
"null","<div style=""color:white; font-size:60px;"">+</div>","null","html-keyboard-response","162","305488","0.0-8.0-0.25","fixation","","","","",""
"1630","Stimuli/Hangul_F47.bmp","190","image-keyboard-response","163","307120","0.0-8.0-1.25","test",".","",".","",""
"null","<div style=""color:white; font-size:60px;"">+</div>","null","html-keyboard-response","164","308121","0.0-8.0-0.26","fixation","","","","",""
"1832","Stimuli/Hangul_M30.bmp","188","image-keyboard-response","165","309954","0.0-8.0-1.26","test",",","",",","",""
"null","<div style=""color:white; font-size:60px;"">+</div>","null","html-keyboard-response","166","310955","0.0-8.0-0.27","fixation","","","","",""
"1585","Stimuli/Hangul_M43.bmp","188","image-keyboard-response","167","312542","0.0-8.0-1.27","test",",","",",","",""
"null","<div style=""color:white; font-size:60px;"">+</div>","null","html-keyboard-response","168","313544","0.0-8.0-0.28","fixation","","","","",""
"1209","Stimuli/Hangul_M33.bmp","188","image-keyboard-response","169","314755","0.0-8.0-1.28","test",",","",",","",""
"null","<div style=""color:white; font-size:60px;"">+</div>","null","html-keyboard-response","170","315757","0.0-8.0-0.29","fixation","","","","",""
"2515","Stimuli/Hangul_F28.bmp","190","image-keyboard-response","171","318274","0.0-8.0-1.29","test",".","",".","",""
"null","<div style=""color:white; font-size:60px;"">+</div>","null","html-keyboard-response","172","319275","0.0-8.0-0.30","fixation","","","","",""
"1292","Stimuli/Hangul_F45.bmp","188","image-keyboard-response","173","320568","0.0-8.0-1.30","test",".","",",","",""
"null","<div style=""color:white; font-size:60px;"">+</div>","null","html-keyboard-response","174","321570","0.0-8.0-0.31","fixation","","","","",""
"1853","Stimuli/Hangul_F35.bmp","188","image-keyboard-response","175","323425","0.0-8.0-1.31","test",".","",",","",""
"null","<div style=""color:white; font-size:60px;"">+</div>","null","html-keyboard-response","176","324426","0.0-8.0-0.32","fixation","","","","",""
"1871","Stimuli/Hangul_F41.bmp","190","image-keyboard-response","177","326300","0.0-8.0-1.32","test",".","",".","",""
"null","<div style=""color:white; font-size:60px;"">+</div>","null","html-keyboard-response","178","327301","0.0-8.0-0.33","fixation","","","","",""
"2325","Stimuli/Hangul_M26.bmp","190","image-keyboard-response","179","329627","0.0-8.0-1.33","test",",","",".","",""
"null","<div style=""color:white; font-size:60px;"">+</div>","null","html-keyboard-response","180","330628","0.0-8.0-0.34","fixation","","","","",""
"1130","Stimuli/Hangul_M36.bmp","188","image-keyboard-response","181","331760","0.0-8.0-1.34","test",",","",",","",""
"null","<div style=""color:white; font-size:60px;"">+</div>","null","html-keyboard-response","182","332761","0.0-8.0-0.35","fixation","","","","",""
"1685","Stimuli/Hangul_F39.bmp","188","image-keyboard-response","183","334447","0.0-8.0-1.35","test",".","",",","",""
"null","<div style=""color:white; font-size:60px;"">+</div>","null","html-keyboard-response","184","335449","0.0-8.0-0.36","fixation","","","","",""
"1504","Stimuli/Hangul_M29.bmp","190","image-keyboard-response","185","336957","0.0-8.0-1.36","test",",","",".","",""
"null","<div style=""color:white; font-size:60px;"">+</div>","null","html-keyboard-response","186","337958","0.0-8.0-0.37","fixation","","","","",""
"1859","Stimuli/Hangul_M44.bmp","188","image-keyboard-response","187","339818","0.0-8.0-1.37","test",",","",",","",""
"null","<div style=""color:white; font-size:60px;"">+</div>","null","html-keyboard-response","188","340820","0.0-8.0-0.38","fixation","","","","",""
"1618","Stimuli/Hangul_M46.bmp","188","image-keyboard-response","189","342440","0.0-8.0-1.38","test",",","",",","",""
"null","<div style=""color:white; font-size:60px;"">+</div>","null","html-keyboard-response","190","343442","0.0-8.0-0.39","fixation","","","","",""
"1691","Stimuli/Hangul_F33.bmp","188","image-keyboard-response","191","345134","0.0-8.0-1.39","test",".","",",","",""
"null","<div style=""color:white; font-size:60px;"">+</div>","null","html-keyboard-response","192","346135","0.0-8.0-0.40","fixation","","","","",""
"2190","Stimuli/Hangul_F44.bmp","190","image-keyboard-response","193","348327","0.0-8.0-1.40","test",".","",".","",""
"null","<div style=""color:white; font-size:60px;"">+</div>","null","html-keyboard-response","194","349328","0.0-8.0-0.41","fixation","","","","",""
"1761","Stimuli/Hangul_M39.bmp","188","image-keyboard-response","195","351088","0.0-8.0-1.41","test",",","",",","",""
"null","<div style=""color:white; font-size:60px;"">+</div>","null","html-keyboard-response","196","352091","0.0-8.0-0.42","fixation","","","","",""
"1750","Stimuli/Hangul_F34.bmp","190","image-keyboard-response","197","353841","0.0-8.0-1.42","test",".","",".","",""
"null","<div style=""color:white; font-size:60px;"">+</div>","null","html-keyboard-response","198","354843","0.0-8.0-0.43","fixation","","","","",""
"1661","Stimuli/Hangul_F36.bmp","188","image-keyboard-response","199","356507","0.0-8.0-1.43","test",".","",",","",""
"null","<div style=""color:white; font-size:60px;"">+</div>","null","html-keyboard-response","200","357508","0.0-8.0-0.44","fixation","","","","",""
"1590","Stimuli/Hangul_M34.bmp","190","image-keyboard-response","201","359104","0.0-8.0-1.44","test",",","",".","",""
"null","<div style=""color:white; font-size:60px;"">+</div>","null","html-keyboard-response","202","360108","0.0-8.0-0.45","fixation","","","","",""
"1927","Stimuli/Hangul_F38.bmp","190","image-keyboard-response","203","362036","0.0-8.0-1.45","test",".","",".","",""
"null","<div style=""color:white; font-size:60px;"">+</div>","null","html-keyboard-response","204","363039","0.0-8.0-0.46","fixation","","","","",""
"1940","Stimuli/Hangul_F29.bmp","190","image-keyboard-response","205","364984","0.0-8.0-1.46","test",".","",".","",""
"null","<div style=""color:white; font-size:60px;"">+</div>","null","html-keyboard-response","206","365988","0.0-8.0-0.47","fixation","","","","",""
"1846","Stimuli/Hangul_F40.bmp","188","image-keyboard-response","207","367837","0.0-8.0-1.47","test",".","",",","",""
"null","<div style=""color:white; font-size:60px;"">+</div>","null","html-keyboard-response","208","368838","0.0-8.0-0.48","fixation","","","","",""
"1262","Stimuli/Hangul_M38.bmp","188","image-keyboard-response","209","370102","0.0-8.0-1.48","test",",","",",","",""
"null","<div style=""color:white; font-size:60px;"">+</div>","null","html-keyboard-response","210","371103","0.0-8.0-0.49","fixation","","","","",""
"2039","Stimuli/Hangul_F25.bmp","188","image-keyboard-response","211","373144","0.0-8.0-1.49","test",".","",",","",""
"468473","<p style=""color:white;"">Half way there! Please take a moment to rest.</p> <p style=""color:white;"">When you are ready to continue with block 3 of 4, press the space bar.</p> ","32","html-keyboard-response","212","841618","0.0-9.0","","","","","",""
"null","<div style=""color:white; font-size:60px;"">+</div>","null","html-keyboard-response","213","844621","0.0-10.0-0.0","fixation","","","","",""
"1597","Stimuli/Hangul_M72.bmp","190","image-keyboard-response","214","846221","0.0-10.0-1.0","test",",","",".","",""
"null","<div style=""color:white; font-size:60px;"">+</div>","null","html-keyboard-response","215","847223","0.0-10.0-0.1","fixation","","","","",""
"1662","Stimuli/Hangul_F71.bmp","190","image-keyboard-response","216","848888","0.0-10.0-1.1","test",".","",".","",""
"null","<div style=""color:white; font-size:60px;"">+</div>","null","html-keyboard-response","217","849890","0.0-10.0-0.2","fixation","","","","",""
"1984","Stimuli/Hangul_M51.bmp","188","image-keyboard-response","218","851877","0.0-10.0-1.2","test",",","",",","",""
"null","<div style=""color:white; font-size:60px;"">+</div>","null","html-keyboard-response","219","852877","0.0-10.0-0.3","fixation","","","","",""
"2317","Stimuli/Hangul_F65.bmp","190","image-keyboard-response","220","855197","0.0-10.0-1.3","test",".","",".","",""
"null","<div style=""color:white; font-size:60px;"">+</div>","null","html-keyboard-response","221","856199","0.0-10.0-0.4","fixation","","","","",""
"1565","Stimuli/Hangul_M60.bmp","188","image-keyboard-response","222","857767","0.0-10.0-1.4","test",",","",",","",""
"null","<div style=""color:white; font-size:60px;"">+</div>","null","html-keyboard-response","223","858772","0.0-10.0-0.5","fixation","","","","",""
"1154","Stimuli/Hangul_F66.bmp","190","image-keyboard-response","224","859928","0.0-10.0-1.5","test",".","",".","",""
"null","<div style=""color:white; font-size:60px;"">+</div>","null","html-keyboard-response","225","860929","0.0-10.0-0.6","fixation","","","","",""
"1485","Stimuli/Hangul_F61.bmp","188","image-keyboard-response","226","862416","0.0-10.0-1.6","test",".","",",","",""
"null","<div style=""color:white; font-size:60px;"">+</div>","null","html-keyboard-response","227","863418","0.0-10.0-0.7","fixation","","","","",""
"1779","Stimuli/Hangul_M68.bmp","190","image-keyboard-response","228","865200","0.0-10.0-1.7","test",",","",".","",""
"null","<div style=""color:white; font-size:60px;"">+</div>","null","html-keyboard-response","229","866201","0.0-10.0-0.8","fixation","","","","",""
"1756","Stimuli/Hangul_M58.bmp","188","image-keyboard-response","230","867961","0.0-10.0-1.8","test",",","",",","",""
"null","<div style=""color:white; font-size:60px;"">+</div>","null","html-keyboard-response","231","868962","0.0-10.0-0.9","fixation","","","","",""
"1623","Stimuli/Hangul_M74.bmp","188","image-keyboard-response","232","870588","0.0-10.0-1.9","test",",","",",","",""
"null","<div style=""color:white; font-size:60px;"">+</div>","null","html-keyboard-response","233","871589","0.0-10.0-0.10","fixation","","","","",""
"1746","Stimuli/Hangul_F51.bmp","190","image-keyboard-response","234","873337","0.0-10.0-1.10","test",".","",".","",""
"null","<div style=""color:white; font-size:60px;"">+</div>","null","html-keyboard-response","235","874338","0.0-10.0-0.11","fixation","","","","",""
"1380","Stimuli/Hangul_M66.bmp","190","image-keyboard-response","236","875720","0.0-10.0-1.11","test",",","",".","",""
"null","<div style=""color:white; font-size:60px;"">+</div>","null","html-keyboard-response","237","876720","0.0-10.0-0.12","fixation","","","","",""
"1317","Stimuli/Hangul_F64.bmp","190","image-keyboard-response","238","878039","0.0-10.0-1.12","test",".","",".","",""
"null","<div style=""color:white; font-size:60px;"">+</div>","null","html-keyboard-response","239","879041","0.0-10.0-0.13","fixation","","","","",""
"920","Stimuli/Hangul_F70.bmp","188","image-keyboard-response","240","879963","0.0-10.0-1.13","test",".","",",","",""
"null","<div style=""color:white; font-size:60px;"">+</div>","null","html-keyboard-response","241","880965","0.0-10.0-0.14","fixation","","","","",""
"2989","Stimuli/Hangul_F68.bmp","188","image-keyboard-response","242","883956","0.0-10.0-1.14","test",".","",",","",""
"null","<div style=""color:white; font-size:60px;"">+</div>","null","html-keyboard-response","243","884958","0.0-10.0-0.15","fixation","","","","",""
"1969","Stimuli/Hangul_F59.bmp","190","image-keyboard-response","244","886928","0.0-10.0-1.15","test",".","",".","",""
"null","<div style=""color:white; font-size:60px;"">+</div>","null","html-keyboard-response","245","887929","0.0-10.0-0.16","fixation","","","","",""
"1684","Stimuli/Hangul_M53.bmp","188","image-keyboard-response","246","889614","0.0-10.0-1.16","test",",","",",","",""
"null","<div style=""color:white; font-size:60px;"">+</div>","null","html-keyboard-response","247","890616","0.0-10.0-0.17","fixation","","","","",""
"1010","Stimuli/Hangul_F52.bmp","188","image-keyboard-response","248","891629","0.0-10.0-1.17","test",".","",",","",""
"null","<div style=""color:white; font-size:60px;"">+</div>","null","html-keyboard-response","249","892631","0.0-10.0-0.18","fixation","","","","",""
"2020","Stimuli/Hangul_M67.bmp","190","image-keyboard-response","250","894653","0.0-10.0-1.18","test",",","",".","",""
"null","<div style=""color:white; font-size:60px;"">+</div>","null","html-keyboard-response","251","895655","0.0-10.0-0.19","fixation","","","","",""
"1643","Stimuli/Hangul_F53.bmp","188","image-keyboard-response","252","897300","0.0-10.0-1.19","test",".","",",","",""
"null","<div style=""color:white; font-size:60px;"">+</div>","null","html-keyboard-response","253","898301","0.0-10.0-0.20","fixation","","","","",""
"1637","Stimuli/Hangul_F58.bmp","188","image-keyboard-response","254","899940","0.0-10.0-1.20","test",".","",",","",""
"null","<div style=""color:white; font-size:60px;"">+</div>","null","html-keyboard-response","255","900942","0.0-10.0-0.21","fixation","","","","",""
"1600","Stimuli/Hangul_M65.bmp","188","image-keyboard-response","256","902543","0.0-10.0-1.21","test",",","",",","",""
"null","<div style=""color:white; font-size:60px;"">+</div>","null","html-keyboard-response","257","903545","0.0-10.0-0.22","fixation","","","","",""
"1387","Stimuli/Hangul_F74.bmp","190","image-keyboard-response","258","904935","0.0-10.0-1.22","test",".","",".","",""
"null","<div style=""color:white; font-size:60px;"">+</div>","null","html-keyboard-response","259","905935","0.0-10.0-0.23","fixation","","","","",""
"1037","Stimuli/Hangul_F62.bmp","190","image-keyboard-response","260","906975","0.0-10.0-1.23","test",".","",".","",""
"null","<div style=""color:white; font-size:60px;"">+</div>","null","html-keyboard-response","261","907976","0.0-10.0-0.24","fixation","","","","",""
"919","Stimuli/Hangul_M69.bmp","188","image-keyboard-response","262","908898","0.0-10.0-1.24","test",",","",",","",""
"null","<div style=""color:white; font-size:60px;"">+</div>","null","html-keyboard-response","263","909900","0.0-10.0-0.25","fixation","","","","",""
"1613","Stimuli/Hangul_M57.bmp","188","image-keyboard-response","264","911515","0.0-10.0-1.25","test",",","",",","",""
"null","<div style=""color:white; font-size:60px;"">+</div>","null","html-keyboard-response","265","912516","0.0-10.0-0.26","fixation","","","","",""
"1649","Stimuli/Hangul_F54.bmp","190","image-keyboard-response","266","914167","0.0-10.0-1.26","test",".","",".","",""
"null","<div style=""color:white; font-size:60px;"">+</div>","null","html-keyboard-response","267","915169","0.0-10.0-0.27","fixation","","","","",""
"1429","Stimuli/Hangul_F55.bmp","190","image-keyboard-response","268","916600","0.0-10.0-1.27","test",".","",".","",""
"null","<div style=""color:white; font-size:60px;"">+</div>","null","html-keyboard-response","269","917602","0.0-10.0-0.28","fixation","","","","",""
"1737","Stimuli/Hangul_M54.bmp","190","image-keyboard-response","270","919340","0.0-10.0-1.28","test",",","",".","",""
"null","<div style=""color:white; font-size:60px;"">+</div>","null","html-keyboard-response","271","920342","0.0-10.0-0.29","fixation","","","","",""
"1645","Stimuli/Hangul_M70.bmp","188","image-keyboard-response","272","921988","0.0-10.0-1.29","test",",","",",","",""
"null","<div style=""color:white; font-size:60px;"">+</div>","null","html-keyboard-response","273","922989","0.0-10.0-0.30","fixation","","","","",""
"1484","Stimuli/Hangul_M64.bmp","190","image-keyboard-response","274","924476","0.0-10.0-1.30","test",",","",".","",""
"null","<div style=""color:white; font-size:60px;"">+</div>","null","html-keyboard-response","275","925477","0.0-10.0-0.31","fixation","","","","",""
"1045","Stimuli/Hangul_M63.bmp","188","image-keyboard-response","276","926525","0.0-10.0-1.31","test",",","",",","",""
"null","<div style=""color:white; font-size:60px;"">+</div>","null","html-keyboard-response","277","927527","0.0-10.0-0.32","fixation","","","","",""
"1526","Stimuli/Hangul_F60.bmp","188","image-keyboard-response","278","929054","0.0-10.0-1.32","test",".","",",","",""
"null","<div style=""color:white; font-size:60px;"">+</div>","null","html-keyboard-response","279","930055","0.0-10.0-0.33","fixation","","","","",""
"1655","Stimuli/Hangul_M55.bmp","188","image-keyboard-response","280","931711","0.0-10.0-1.33","test",",","",",","",""
"null","<div style=""color:white; font-size:60px;"">+</div>","null","html-keyboard-response","281","932713","0.0-10.0-0.34","fixation","","","","",""
"1414","Stimuli/Hangul_M61.bmp","190","image-keyboard-response","282","934129","0.0-10.0-1.34","test",",","",".","",""
"null","<div style=""color:white; font-size:60px;"">+</div>","null","html-keyboard-response","283","935131","0.0-10.0-0.35","fixation","","","","",""
"1727","Stimuli/Hangul_F69.bmp","188","image-keyboard-response","284","936861","0.0-10.0-1.35","test",".","",",","",""
"null","<div style=""color:white; font-size:60px;"">+</div>","null","html-keyboard-response","285","937862","0.0-10.0-0.36","fixation","","","","",""
"1573","Stimuli/Hangul_M56.bmp","190","image-keyboard-response","286","939436","0.0-10.0-1.36","test",",","",".","",""
"null","<div style=""color:white; font-size:60px;"">+</div>","null","html-keyboard-response","287","940438","0.0-10.0-0.37","fixation","","","","",""
"1104","Stimuli/Hangul_F72.bmp","188","image-keyboard-response","288","941543","0.0-10.0-1.37","test",".","",",","",""
"null","<div style=""color:white; font-size:60px;"">+</div>","null","html-keyboard-response","289","942544","0.0-10.0-0.38","fixation","","","","",""
"1123","Stimuli/Hangul_M59.bmp","188","image-keyboard-response","290","943670","0.0-10.0-1.38","test",",","",",","",""
"null","<div style=""color:white; font-size:60px;"">+</div>","null","html-keyboard-response","291","944672","0.0-10.0-0.39","fixation","","","","",""
"1571","Stimuli/Hangul_M50.bmp","188","image-keyboard-response","292","946244","0.0-10.0-1.39","test",",","",",","",""
"null","<div style=""color:white; font-size:60px;"">+</div>","null","html-keyboard-response","293","947248","0.0-10.0-0.40","fixation","","","","",""
"1754","Stimuli/Hangul_F67.bmp","188","image-keyboard-response","294","949004","0.0-10.0-1.40","test",".","",",","",""
"null","<div style=""color:white; font-size:60px;"">+</div>","null","html-keyboard-response","295","950007","0.0-10.0-0.41","fixation","","","","",""
"998","Stimuli/Hangul_M73.bmp","190","image-keyboard-response","296","951006","0.0-10.0-1.41","test",",","",".","",""
"null","<div style=""color:white; font-size:60px;"">+</div>","null","html-keyboard-response","297","952008","0.0-10.0-0.42","fixation","","","","",""
"1596","Stimuli/Hangul_F57.bmp","188","image-keyboard-response","298","953604","0.0-10.0-1.42","test",".","",",","",""
"null","<div style=""color:white; font-size:60px;"">+</div>","null","html-keyboard-response","299","954605","0.0-10.0-0.43","fixation","","","","",""
"1578","Stimuli/Hangul_F73.bmp","188","image-keyboard-response","300","956185","0.0-10.0-1.43","test",".","",",","",""
"null","<div style=""color:white; font-size:60px;"">+</div>","null","html-keyboard-response","301","957185","0.0-10.0-0.44","fixation","","","","",""
"1645","Stimuli/Hangul_M52.bmp","190","image-keyboard-response","302","958832","0.0-10.0-1.44","test",",","",".","",""
"null","<div style=""color:white; font-size:60px;"">+</div>","null","html-keyboard-response","303","959834","0.0-10.0-0.45","fixation","","","","",""
"1560","Stimuli/Hangul_F63.bmp","188","image-keyboard-response","304","961397","0.0-10.0-1.45","test",".","",",","",""
"null","<div style=""color:white; font-size:60px;"">+</div>","null","html-keyboard-response","305","962399","0.0-10.0-0.46","fixation","","","","",""
"1640","Stimuli/Hangul_M62.bmp","188","image-keyboard-response","306","964041","0.0-10.0-1.46","test",",","",",","",""
"null","<div style=""color:white; font-size:60px;"">+</div>","null","html-keyboard-response","307","965043","0.0-10.0-0.47","fixation","","","","",""
"2147","Stimuli/Hangul_F56.bmp","188","image-keyboard-response","308","967193","0.0-10.0-1.47","test",".","",",","",""
"null","<div style=""color:white; font-size:60px;"">+</div>","null","html-keyboard-response","309","968194","0.0-10.0-0.48","fixation","","","","",""
"1773","Stimuli/Hangul_M71.bmp","190","image-keyboard-response","310","969969","0.0-10.0-1.48","test",",","",".","",""
"null","<div style=""color:white; font-size:60px;"">+</div>","null","html-keyboard-response","311","970971","0.0-10.0-0.49","fixation","","","","",""
"2190","Stimuli/Hangul_F50.bmp","188","image-keyboard-response","312","973162","0.0-10.0-1.49","test",".","",",","",""
"120704","<p style=""color:white;"">One more block to go! Please take a moment to rest.</p> <p style=""color:white;"">When you are ready to continue with block 4 of 4, press the space bar.</p> ","32","html-keyboard-response","313","1093869","0.0-11.0","","","","","",""
"null","<div style=""color:white; font-size:60px;"">+</div>","null","html-keyboard-response","314","1096871","0.0-12.0-0.0","fixation","","","","",""
"2125","Stimuli/Hangul_F94.bmp","190","image-keyboard-response","315","1099000","0.0-12.0-1.0","test",".","",".","",""
"null","<div style=""color:white; font-size:60px;"">+</div>","null","html-keyboard-response","316","1100002","0.0-12.0-0.1","fixation","","","","",""
"2628","Stimuli/Hangul_M95.bmp","188","image-keyboard-response","317","1102632","0.0-12.0-1.1","test",",","",",","",""
"null","<div style=""color:white; font-size:60px;"">+</div>","null","html-keyboard-response","318","1103634","0.0-12.0-0.2","fixation","","","","",""
"2224","Stimuli/Hangul_M77.bmp","188","image-keyboard-response","319","1105862","0.0-12.0-1.2","test",",","",",","",""
"null","<div style=""color:white; font-size:60px;"">+</div>","null","html-keyboard-response","320","1106867","0.0-12.0-0.3","fixation","","","","",""
"1906","Stimuli/Hangul_M96.bmp","188","image-keyboard-response","321","1108774","0.0-12.0-1.3","test",",","",",","",""
"null","<div style=""color:white; font-size:60px;"">+</div>","null","html-keyboard-response","322","1109776","0.0-12.0-0.4","fixation","","","","",""
"2447","Stimuli/Hangul_F95.bmp","190","image-keyboard-response","323","1112225","0.0-12.0-1.4","test",".","",".","",""
"null","<div style=""color:white; font-size:60px;"">+</div>","null","html-keyboard-response","324","1113226","0.0-12.0-0.5","fixation","","","","",""
"1950","Stimuli/Hangul_F84.bmp","188","image-keyboard-response","325","1115177","0.0-12.0-1.5","test",".","",",","",""
"null","<div style=""color:white; font-size:60px;"">+</div>","null","html-keyboard-response","326","1116178","0.0-12.0-0.6","fixation","","","","",""
"1660","Stimuli/Hangul_M83.bmp","188","image-keyboard-response","327","1117840","0.0-12.0-1.6","test",",","",",","",""
"null","<div style=""color:white; font-size:60px;"">+</div>","null","html-keyboard-response","328","1118842","0.0-12.0-0.7","fixation","","","","",""
"3628","Stimuli/Hangul_F90.bmp","188","image-keyboard-response","329","1122471","0.0-12.0-1.7","test",".","",",","",""
"null","<div style=""color:white; font-size:60px;"">+</div>","null","html-keyboard-response","330","1123472","0.0-12.0-0.8","fixation","","","","",""
"2330","Stimuli/Hangul_M78.bmp","190","image-keyboard-response","331","1125804","0.0-12.0-1.8","test",",","",".","",""
"null","<div style=""color:white; font-size:60px;"">+</div>","null","html-keyboard-response","332","1126806","0.0-12.0-0.9","fixation","","","","",""
"2429","Stimuli/Hangul_F87.bmp","188","image-keyboard-response","333","1129236","0.0-12.0-1.9","test",".","",",","",""
"null","<div style=""color:white; font-size:60px;"">+</div>","null","html-keyboard-response","334","1130238","0.0-12.0-0.10","fixation","","","","",""
"1748","Stimuli/Hangul_M90.bmp","188","image-keyboard-response","335","1131986","0.0-12.0-1.10","test",",","",",","",""
"null","<div style=""color:white; font-size:60px;"">+</div>","null","html-keyboard-response","336","1132988","0.0-12.0-0.11","fixation","","","","",""
"2089","Stimuli/Hangul_M79.bmp","190","image-keyboard-response","337","1135077","0.0-12.0-1.11","test",",","",".","",""
"null","<div style=""color:white; font-size:60px;"">+</div>","null","html-keyboard-response","338","1136079","0.0-12.0-0.12","fixation","","","","",""
"1417","Stimuli/Hangul_F77.bmp","190","image-keyboard-response","339","1137498","0.0-12.0-1.12","test",".","",".","",""
"null","<div style=""color:white; font-size:60px;"">+</div>","null","html-keyboard-response","340","1138499","0.0-12.0-0.13","fixation","","","","",""
"1302","Stimuli/Hangul_F75.bmp","188","image-keyboard-response","341","1139804","0.0-12.0-1.13","test",".","",",","",""
"null","<div style=""color:white; font-size:60px;"">+</div>","null","html-keyboard-response","342","1140806","0.0-12.0-0.14","fixation","","","","",""
"1669","Stimuli/Hangul_M75.bmp","188","image-keyboard-response","343","1142477","0.0-12.0-1.14","test",",","",",","",""
"null","<div style=""color:white; font-size:60px;"">+</div>","null","html-keyboard-response","344","1143478","0.0-12.0-0.15","fixation","","","","",""
"1718","Stimuli/Hangul_M82.bmp","190","image-keyboard-response","345","1145199","0.0-12.0-1.15","test",",","",".","",""
"null","<div style=""color:white; font-size:60px;"">+</div>","null","html-keyboard-response","346","1146200","0.0-12.0-0.16","fixation","","","","",""
"1788","Stimuli/Hangul_F82.bmp","188","image-keyboard-response","347","1147991","0.0-12.0-1.16","test",".","",",","",""
"null","<div style=""color:white; font-size:60px;"">+</div>","null","html-keyboard-response","348","1148991","0.0-12.0-0.17","fixation","","","","",""
"1817","Stimuli/Hangul_M87.bmp","190","image-keyboard-response","349","1150810","0.0-12.0-1.17","test",",","",".","",""
"null","<div style=""color:white; font-size:60px;"">+</div>","null","html-keyboard-response","350","1151812","0.0-12.0-0.18","fixation","","","","",""
"1895","Stimuli/Hangul_M85.bmp","188","image-keyboard-response","351","1153709","0.0-12.0-1.18","test",",","",",","",""
"null","<div style=""color:white; font-size:60px;"">+</div>","null","html-keyboard-response","352","1154711","0.0-12.0-0.19","fixation","","","","",""
"1867","Stimuli/Hangul_M92.bmp","188","image-keyboard-response","353","1156580","0.0-12.0-1.19","test",",","",",","",""
"null","<div style=""color:white; font-size:60px;"">+</div>","null","html-keyboard-response","354","1157581","0.0-12.0-0.20","fixation","","","","",""
"2545","Stimuli/Hangul_M99.bmp","190","image-keyboard-response","355","1160127","0.0-12.0-1.20","test",",","",".","",""
"null","<div style=""color:white; font-size:60px;"">+</div>","null","html-keyboard-response","356","1161129","0.0-12.0-0.21","fixation","","","","",""
"2041","Stimuli/Hangul_M97.bmp","188","image-keyboard-response","357","1163172","0.0-12.0-1.21","test",",","",",","",""
"null","<div style=""color:white; font-size:60px;"">+</div>","null","html-keyboard-response","358","1164174","0.0-12.0-0.22","fixation","","","","",""
"2420","Stimuli/Hangul_F76.bmp","190","image-keyboard-response","359","1166596","0.0-12.0-1.22","test",".","",".","",""
"null","<div style=""color:white; font-size:60px;"">+</div>","null","html-keyboard-response","360","1167598","0.0-12.0-0.23","fixation","","","","",""
"2475","Stimuli/Hangul_F99.bmp","190","image-keyboard-response","361","1170074","0.0-12.0-1.23","test",".","",".","",""
"null","<div style=""color:white; font-size:60px;"">+</div>","null","html-keyboard-response","362","1171075","0.0-12.0-0.24","fixation","","","","",""
"1464","Stimuli/Hangul_M84.bmp","188","image-keyboard-response","363","1172541","0.0-12.0-1.24","test",",","",",","",""
"null","<div style=""color:white; font-size:60px;"">+</div>","null","html-keyboard-response","364","1173543","0.0-12.0-0.25","fixation","","","","",""
"1521","Stimuli/Hangul_F81.bmp","188","image-keyboard-response","365","1175066","0.0-12.0-1.25","test",".","",",","",""
"null","<div style=""color:white; font-size:60px;"">+</div>","null","html-keyboard-response","366","1176069","0.0-12.0-0.26","fixation","","","","",""
"2491","Stimuli/Hangul_F93.bmp","190","image-keyboard-response","367","1178562","0.0-12.0-1.26","test",".","",".","",""
"null","<div style=""color:white; font-size:60px;"">+</div>","null","html-keyboard-response","368","1179564","0.0-12.0-0.27","fixation","","","","",""
"1386","Stimuli/Hangul_F97.bmp","188","image-keyboard-response","369","1180952","0.0-12.0-1.27","test",".","",",","",""
"null","<div style=""color:white; font-size:60px;"">+</div>","null","html-keyboard-response","370","1181953","0.0-12.0-0.28","fixation","","","","",""
"1916","Stimuli/Hangul_F80.bmp","190","image-keyboard-response","371","1183871","0.0-12.0-1.28","test",".","",".","",""
"null","<div style=""color:white; font-size:60px;"">+</div>","null","html-keyboard-response","372","1184873","0.0-12.0-0.29","fixation","","","","",""
"1613","Stimuli/Hangul_F98.bmp","188","image-keyboard-response","373","1186490","0.0-12.0-1.29","test",".","",",","",""
"null","<div style=""color:white; font-size:60px;"">+</div>","null","html-keyboard-response","374","1187494","0.0-12.0-0.30","fixation","","","","",""
"962","Stimuli/Hangul_F89.bmp","188","image-keyboard-response","375","1188458","0.0-12.0-1.30","test",".","",",","",""
"null","<div style=""color:white; font-size:60px;"">+</div>","null","html-keyboard-response","376","1189459","0.0-12.0-0.31","fixation","","","","",""
"1368","Stimuli/Hangul_F78.bmp","188","image-keyboard-response","377","1190829","0.0-12.0-1.31","test",".","",",","",""
"null","<div style=""color:white; font-size:60px;"">+</div>","null","html-keyboard-response","378","1191831","0.0-12.0-0.32","fixation","","","","",""
"1959","Stimuli/Hangul_M93.bmp","190","image-keyboard-response","379","1193791","0.0-12.0-1.32","test",",","",".","",""
"null","<div style=""color:white; font-size:60px;"">+</div>","null","html-keyboard-response","380","1194792","0.0-12.0-0.33","fixation","","","","",""
"2179","Stimuli/Hangul_M89.bmp","188","image-keyboard-response","381","1196973","0.0-12.0-1.33","test",",","",",","",""
"null","<div style=""color:white; font-size:60px;"">+</div>","null","html-keyboard-response","382","1197974","0.0-12.0-0.34","fixation","","","","",""
"1981","Stimuli/Hangul_F91.bmp","188","image-keyboard-response","383","1199957","0.0-12.0-1.34","test",".","",",","",""
"null","<div style=""color:white; font-size:60px;"">+</div>","null","html-keyboard-response","384","1200960","0.0-12.0-0.35","fixation","","","","",""
"2178","Stimuli/Hangul_F92.bmp","190","image-keyboard-response","385","1203140","0.0-12.0-1.35","test",".","",".","",""
"null","<div style=""color:white; font-size:60px;"">+</div>","null","html-keyboard-response","386","1204141","0.0-12.0-0.36","fixation","","","","",""
"1727","Stimuli/Hangul_F79.bmp","188","image-keyboard-response","387","1205870","0.0-12.0-1.36","test",".","",",","",""
"null","<div style=""color:white; font-size:60px;"">+</div>","null","html-keyboard-response","388","1206872","0.0-12.0-0.37","fixation","","","","",""
"1090","Stimuli/Hangul_F88.bmp","188","image-keyboard-response","389","1207963","0.0-12.0-1.37","test",".","",",","",""
"null","<div style=""color:white; font-size:60px;"">+</div>","null","html-keyboard-response","390","1208965","0.0-12.0-0.38","fixation","","","","",""
"1712","Stimuli/Hangul_M80.bmp","190","image-keyboard-response","391","1210678","0.0-12.0-1.38","test",",","",".","",""
"null","<div style=""color:white; font-size:60px;"">+</div>","null","html-keyboard-response","392","1211679","0.0-12.0-0.39","fixation","","","","",""
"1637","Stimuli/Hangul_F96.bmp","188","image-keyboard-response","393","1213318","0.0-12.0-1.39","test",".","",",","",""
"null","<div style=""color:white; font-size:60px;"">+</div>","null","html-keyboard-response","394","1214320","0.0-12.0-0.40","fixation","","","","",""
"1876","Stimuli/Hangul_F86.bmp","190","image-keyboard-response","395","1216197","0.0-12.0-1.40","test",".","",".","",""
"null","<div style=""color:white; font-size:60px;"">+</div>","null","html-keyboard-response","396","1217199","0.0-12.0-0.41","fixation","","","","",""
"1825","Stimuli/Hangul_M91.bmp","188","image-keyboard-response","397","1219025","0.0-12.0-1.41","test",",","",",","",""
"null","<div style=""color:white; font-size:60px;"">+</div>","null","html-keyboard-response","398","1220027","0.0-12.0-0.42","fixation","","","","",""
"2136","Stimuli/Hangul_M86.bmp","188","image-keyboard-response","399","1222165","0.0-12.0-1.42","test",",","",",","",""
"null","<div style=""color:white; font-size:60px;"">+</div>","null","html-keyboard-response","400","1223167","0.0-12.0-0.43","fixation","","","","",""
"1826","Stimuli/Hangul_M98.bmp","188","image-keyboard-response","401","1224996","0.0-12.0-1.43","test",",","",",","",""
"null","<div style=""color:white; font-size:60px;"">+</div>","null","html-keyboard-response","402","1225998","0.0-12.0-0.44","fixation","","","","",""
"2368","Stimuli/Hangul_M81.bmp","190","image-keyboard-response","403","1228367","0.0-12.0-1.44","test",",","",".","",""
"null","<div style=""color:white; font-size:60px;"">+</div>","null","html-keyboard-response","404","1229369","0.0-12.0-0.45","fixation","","","","",""
"1760","Stimuli/Hangul_M76.bmp","188","image-keyboard-response","405","1231131","0.0-12.0-1.45","test",",","",",","",""
"null","<div style=""color:white; font-size:60px;"">+</div>","null","html-keyboard-response","406","1232133","0.0-12.0-0.46","fixation","","","","",""
"2160","Stimuli/Hangul_F85.bmp","190","image-keyboard-response","407","1234296","0.0-12.0-1.46","test",".","",".","",""
"null","<div style=""color:white; font-size:60px;"">+</div>","null","html-keyboard-response","408","1235299","0.0-12.0-0.47","fixation","","","","",""
"1164","Stimuli/Hangul_M94.bmp","188","image-keyboard-response","409","1236465","0.0-12.0-1.47","test",",","",",","",""
"null","<div style=""color:white; font-size:60px;"">+</div>","null","html-keyboard-response","410","1237467","0.0-12.0-0.48","fixation","","","","",""
"1406","Stimuli/Hangul_M88.bmp","188","image-keyboard-response","411","1238876","0.0-12.0-1.48","test",",","",",","",""
"null","<div style=""color:white; font-size:60px;"">+</div>","null","html-keyboard-response","412","1239878","0.0-12.0-0.49","fixation","","","","",""
"2698","Stimuli/Hangul_F83.bmp","190","image-keyboard-response","413","1242577","0.0-12.0-1.49","test",".","",".","",""
"2149","<p style=""color:white;"">Phase I of the experiment is complete.</p> <p style=""color:white;"">Press the space bar to proceed to Phase II of the experiment.</p> ","32","html-keyboard-response","414","1244728","0.0-13.0","","","","","",""
"37351","<p style=""color:white;"">Now we are interested in how well you can predict patterns in the series of figures. You will be asked to predict whether the next figure in the series is more male-like or female-like. When you see the <q>Next Figure</q> prompt, press the corresponding response keys to indicate your prediction: </p><p style=""color:white;""> Male &#8594 <q>,</q> (comma)</p><p style=""color:white;""> Female &#8594 <q>.</q> (period)</p><p style=""color:white;"">The actual figure will then appear on the screen. After you see the figure, please guess the assigned gender with response keys. </p><p style=""color:white;"">As before, you will receive 2 cents for correctly classifying each figure.</p><p style=""color:white;"">Press either response keys to continue.</p>","188","html-keyboard-response","415","1284081","0.0-14.0","","","","","",""
"17952","<p style=""color:white;"">PREDICTION BONUS</p> <p style=""color:white;"">Your prediction accuracy is the total number of correct predictions you make over the 200 trials.</p> <p style=""color:white;"">In addition to the 2 cents per correct figure classification, you have the chance to receive a bonus of 40 dollars IF your accuracy is above average relative to previous participants.</p><p style=""color:white;"">If your accuracy is below average relative to previous participants, then you will not receive the 40 dollar bonus.</p><p style=""color:white;"">Press the space bar to continue.</p>","32","html-keyboard-response","416","1302035","0.0-15.0","","","","","",""
"6062","<p style=""color:white;"">Here are some examples.</p> <p style=""color:white;"">For each, predict whether the next figure looks more male-like or female-like. Then, when the figure appears, guess whether it looks more male-like or female-like and indicate your choice.</p> <p style=""color:white;"">Press the space bar to continue.</p>","32","html-keyboard-response","417","1308098","0.0-16.0","","","","","",""
"1425","<p style=""color:white;""> Next Figure: Male or Female? </p>","188","html-keyboard-response","418","1311523","0.0-17.0-0.0","prediction_train","","","",",",""
"null","<div style=""color:white; font-size:60px;"">+</div>","null","html-keyboard-response","419","1312525","0.0-17.0-1.0","fixation","","","","",""
"1925","Stimuli/Hangul_E2.bmp","188","image-keyboard-response","420","1314454","0.0-17.0-2.0","c2_train",".","","","",","
"1007","<p style=""color:white;""> Next Figure: Male or Female? </p>","188","html-keyboard-response","421","1315463","0.0-17.0-0.1","prediction_train","","","",",",""
"null","<div style=""color:white; font-size:60px;"">+</div>","null","html-keyboard-response","422","1316464","0.0-17.0-1.1","fixation","","","","",""
"1364","Stimuli/Hangul_E0.bmp","188","image-keyboard-response","423","1317829","0.0-17.0-2.1","c2_train",",","","","",","
"672","<p style=""color:white;""> Next Figure: Male or Female? </p>","190","html-keyboard-response","424","1318502","0.0-17.0-0.2","prediction_train","","","",".",""
"null","<div style=""color:white; font-size:60px;"">+</div>","null","html-keyboard-response","425","1319504","0.0-17.0-1.2","fixation","","","","",""
"825","Stimuli/Hangul_E1.bmp","188","image-keyboard-response","426","1320332","0.0-17.0-2.2","c2_train",",","","","",","
"2389","<p style=""color:white;"">Let us begin! Press the space bar when you are ready to start block 1 of 4.</p> ","32","html-keyboard-response","427","1322721","0.0-18.0","","","","","",""
"1316","<p style=""color:white;""> Next Figure: Male or Female? </p>","188","html-keyboard-response","428","1326040","0.0-19.0-0.0","prediction","","","",",",""
"null","<div style=""color:white; font-size:60px;"">+</div>","null","html-keyboard-response","429","1327041","0.0-19.0-1.0","fixation","","","","",""
"706","Stimuli/Hangul_M19.bmp","188","image-keyboard-response","430","1327749","0.0-19.0-2.0","c2_test",",","","","",","
"953","<p style=""color:white;""> Next Figure: Male or Female? </p>","190","html-keyboard-response","431","1328704","0.0-19.0-0.1","prediction","","","",".",""
"null","<div style=""color:white; font-size:60px;"">+</div>","null","html-keyboard-response","432","1329706","0.0-19.0-1.1","fixation","","","","",""
"685","Stimuli/Hangul_M20.bmp","188","image-keyboard-response","433","1330391","0.0-19.0-2.1","c2_test",",","","","",","
"1101","<p style=""color:white;""> Next Figure: Male or Female? </p>","188","html-keyboard-response","434","1331494","0.0-19.0-0.2","prediction","","","",",",""
"null","<div style=""color:white; font-size:60px;"">+</div>","null","html-keyboard-response","435","1332496","0.0-19.0-1.2","fixation","","","","",""
"642","Stimuli/Hangul_M18.bmp","188","image-keyboard-response","436","1333139","0.0-19.0-2.2","c2_test",",","","","",","
"761","<p style=""color:white;""> Next Figure: Male or Female? </p>","190","html-keyboard-response","437","1333902","0.0-19.0-0.3","prediction","","","",".",""
"null","<div style=""color:white; font-size:60px;"">+</div>","null","html-keyboard-response","438","1334904","0.0-19.0-1.3","fixation","","","","",""
"1351","Stimuli/Hangul_M21.bmp","190","image-keyboard-response","439","1336258","0.0-19.0-2.3","c2_test",",","","","","."
"1104","<p style=""color:white;""> Next Figure: Male or Female? </p>","188","html-keyboard-response","440","1337363","0.0-19.0-0.4","prediction","","","",",",""
"null","<div style=""color:white; font-size:60px;"">+</div>","null","html-keyboard-response","441","1338365","0.0-19.0-1.4","fixation","","","","",""
"605","Stimuli/Hangul_F24.bmp","188","image-keyboard-response","442","1338974","0.0-19.0-2.4","c2_test",".","","","",","
"1042","<p style=""color:white;""> Next Figure: Male or Female? </p>","188","html-keyboard-response","443","1340017","0.0-19.0-0.5","prediction","","","",",",""
"null","<div style=""color:white; font-size:60px;"">+</div>","null","html-keyboard-response","444","1341020","0.0-19.0-1.5","fixation","","","","",""
"1446","Stimuli/Hangul_F14.bmp","190","image-keyboard-response","445","1342468","0.0-19.0-2.5","c2_test",".","","","","."
"862","<p style=""color:white;""> Next Figure: Male or Female? </p>","190","html-keyboard-response","446","1343332","0.0-19.0-0.6","prediction","","","",".",""
"null","<div style=""color:white; font-size:60px;"">+</div>","null","html-keyboard-response","447","1344333","0.0-19.0-1.6","fixation","","","","",""
"645","Stimuli/Hangul_M12.bmp","188","image-keyboard-response","448","1344981","0.0-19.0-2.6","c2_test",",","","","",","
"1140","<p style=""color:white;""> Next Figure: Male or Female? </p>","188","html-keyboard-response","449","1346123","0.0-19.0-0.7","prediction","","","",",",""
"null","<div style=""color:white; font-size:60px;"">+</div>","null","html-keyboard-response","450","1347125","0.0-19.0-1.7","fixation","","","","",""
"619","Stimuli/Hangul_F22.bmp","188","image-keyboard-response","451","1347745","0.0-19.0-2.7","c2_test",".","","","",","
"614","<p style=""color:white;""> Next Figure: Male or Female? </p>","188","html-keyboard-response","452","1348361","0.0-19.0-0.8","prediction","","","",",",""
"null","<div style=""color:white; font-size:60px;"">+</div>","null","html-keyboard-response","453","1349363","0.0-19.0-1.8","fixation","","","","",""
"701","Stimuli/Hangul_F4.bmp","190","image-keyboard-response","454","1350066","0.0-19.0-2.8","c2_test",".","","","","."
"644","<p style=""color:white;""> Next Figure: Male or Female? </p>","188","html-keyboard-response","455","1350712","0.0-19.0-0.9","prediction","","","",",",""
"null","<div style=""color:white; font-size:60px;"">+</div>","null","html-keyboard-response","456","1351714","0.0-19.0-1.9","fixation","","","","",""
"907","Stimuli/Hangul_F3.bmp","190","image-keyboard-response","457","1352623","0.0-19.0-2.9","c2_test",".","","","","."
"589","<p style=""color:white;""> Next Figure: Male or Female? </p>","188","html-keyboard-response","458","1353214","0.0-19.0-0.10","prediction","","","",",",""
"null","<div style=""color:white; font-size:60px;"">+</div>","null","html-keyboard-response","459","1354216","0.0-19.0-1.10","fixation","","","","",""
"927","Stimuli/Hangul_F20.bmp","188","image-keyboard-response","460","1355144","0.0-19.0-2.10","c2_test",".","","","",","
"794","<p style=""color:white;""> Next Figure: Male or Female? </p>","188","html-keyboard-response","461","1355940","0.0-19.0-0.11","prediction","","","",",",""
"null","<div style=""color:white; font-size:60px;"">+</div>","null","html-keyboard-response","462","1356942","0.0-19.0-1.11","fixation","","","","",""
"821","Stimuli/Hangul_M10.bmp","188","image-keyboard-response","463","1357765","0.0-19.0-2.11","c2_test",",","","","",","
"1134","<p style=""color:white;""> Next Figure: Male or Female? </p>","188","html-keyboard-response","464","1358900","0.0-19.0-0.12","prediction","","","",",",""
"null","<div style=""color:white; font-size:60px;"">+</div>","null","html-keyboard-response","465","1359902","0.0-19.0-1.12","fixation","","","","",""
"820","Stimuli/Hangul_F9.bmp","188","image-keyboard-response","466","1360726","0.0-19.0-2.12","c2_test",".","","","",","
"630","<p style=""color:white;""> Next Figure: Male or Female? </p>","188","html-keyboard-response","467","1361359","0.0-19.0-0.13","prediction","","","",",",""
"null","<div style=""color:white; font-size:60px;"">+</div>","null","html-keyboard-response","468","1362360","0.0-19.0-1.13","fixation","","","","",""
"1405","Stimuli/Hangul_F12.bmp","188","image-keyboard-response","469","1363767","0.0-19.0-2.13","c2_test",".","","","",","
"491","<p style=""color:white;""> Next Figure: Male or Female? </p>","188","html-keyboard-response","470","1364259","0.0-19.0-0.14","prediction","","","",",",""
"null","<div style=""color:white; font-size:60px;"">+</div>","null","html-keyboard-response","471","1365261","0.0-19.0-1.14","fixation","","","","",""
"979","Stimuli/Hangul_M23.bmp","188","image-keyboard-response","472","1366243","0.0-19.0-2.14","c2_test",",","","","",","
"402","<p style=""color:white;""> Next Figure: Male or Female? </p>","190","html-keyboard-response","473","1366645","0.0-19.0-0.15","prediction","","","",".",""
"null","<div style=""color:white; font-size:60px;"">+</div>","null","html-keyboard-response","474","1367648","0.0-19.0-1.15","fixation","","","","",""
"4842","Stimuli/Hangul_M6.bmp","190","image-keyboard-response","475","1372490","0.0-19.0-2.15","c2_test",",","","","","."
"1110","<p style=""color:white;""> Next Figure: Male or Female? </p>","188","html-keyboard-response","476","1373602","0.0-19.0-0.16","prediction","","","",",",""
"null","<div style=""color:white; font-size:60px;"">+</div>","null","html-keyboard-response","477","1374604","0.0-19.0-1.16","fixation","","","","",""
"1550","Stimuli/Hangul_M13.bmp","190","image-keyboard-response","478","1376156","0.0-19.0-2.16","c2_test",",","","","","."
"653","<p style=""color:white;""> Next Figure: Male or Female? </p>","188","html-keyboard-response","479","1376810","0.0-19.0-0.17","prediction","","","",",",""
"null","<div style=""color:white; font-size:60px;"">+</div>","null","html-keyboard-response","480","1377812","0.0-19.0-1.17","fixation","","","","",""
"757","Stimuli/Hangul_M15.bmp","188","image-keyboard-response","481","1378571","0.0-19.0-2.17","c2_test",",","","","",","
"840","<p style=""color:white;""> Next Figure: Male or Female? </p>","190","html-keyboard-response","482","1379413","0.0-19.0-0.18","prediction","","","",".",""
"null","<div style=""color:white; font-size:60px;"">+</div>","null","html-keyboard-response","483","1380415","0.0-19.0-1.18","fixation","","","","",""
"896","Stimuli/Hangul_F23.bmp","190","image-keyboard-response","484","1381313","0.0-19.0-2.18","c2_test",".","","","","."
"678","<p style=""color:white;""> Next Figure: Male or Female? </p>","188","html-keyboard-response","485","1381994","0.0-19.0-0.19","prediction","","","",",",""
"null","<div style=""color:white; font-size:60px;"">+</div>","null","html-keyboard-response","486","1382996","0.0-19.0-1.19","fixation","","","","",""
"843","Stimuli/Hangul_F1.bmp","190","image-keyboard-response","487","1383841","0.0-19.0-2.19","c2_test",".","","","","."
"957","<p style=""color:white;""> Next Figure: Male or Female? </p>","190","html-keyboard-response","488","1384799","0.0-19.0-0.20","prediction","","","",".",""
"null","<div style=""color:white; font-size:60px;"">+</div>","null","html-keyboard-response","489","1385800","0.0-19.0-1.20","fixation","","","","",""
"998","Stimuli/Hangul_M24.bmp","190","image-keyboard-response","490","1386802","0.0-19.0-2.20","c2_test",",","","","","."
"991","<p style=""color:white;""> Next Figure: Male or Female? </p>","188","html-keyboard-response","491","1387795","0.0-19.0-0.21","prediction","","","",",",""
"null","<div style=""color:white; font-size:60px;"">+</div>","null","html-keyboard-response","492","1388796","0.0-19.0-1.21","fixation","","","","",""
"609","Stimuli/Hangul_M1.bmp","190","image-keyboard-response","493","1389407","0.0-19.0-2.21","c2_test",",","","","","."
"550","<p style=""color:white;""> Next Figure: Male or Female? </p>","188","html-keyboard-response","494","1389958","0.0-19.0-0.22","prediction","","","",",",""
"null","<div style=""color:white; font-size:60px;"">+</div>","null","html-keyboard-response","495","1390959","0.0-19.0-1.22","fixation","","","","",""
"1260","Stimuli/Hangul_M7.bmp","188","image-keyboard-response","496","1392221","0.0-19.0-2.22","c2_test",",","","","",","
"736","<p style=""color:white;""> Next Figure: Male or Female? </p>","188","html-keyboard-response","497","1392958","0.0-19.0-0.23","prediction","","","",",",""
"null","<div style=""color:white; font-size:60px;"">+</div>","null","html-keyboard-response","498","1393960","0.0-19.0-1.23","fixation","","","","",""
"1121","Stimuli/Hangul_F8.bmp","188","image-keyboard-response","499","1395082","0.0-19.0-2.23","c2_test",".","","","",","
"1163","<p style=""color:white;""> Next Figure: Male or Female? </p>","188","html-keyboard-response","500","1396246","0.0-19.0-0.24","prediction","","","",",",""
"null","<div style=""color:white; font-size:60px;"">+</div>","null","html-keyboard-response","501","1397250","0.0-19.0-1.24","fixation","","","","",""
"1006","Stimuli/Hangul_F17.bmp","188","image-keyboard-response","502","1398258","0.0-19.0-2.24","c2_test",".","","","",","
"507","<p style=""color:white;""> Next Figure: Male or Female? </p>","190","html-keyboard-response","503","1398768","0.0-19.0-0.25","prediction","","","",".",""
"null","<div style=""color:white; font-size:60px;"">+</div>","null","html-keyboard-response","504","1399770","0.0-19.0-1.25","fixation","","","","",""
"903","Stimuli/Hangul_M0.bmp","190","image-keyboard-response","505","1400675","0.0-19.0-2.25","c2_test",",","","","","."
"757","<p style=""color:white;""> Next Figure: Male or Female? </p>","190","html-keyboard-response","506","1401434","0.0-19.0-0.26","prediction","","","",".",""
"null","<div style=""color:white; font-size:60px;"">+</div>","null","html-keyboard-response","507","1402436","0.0-19.0-1.26","fixation","","","","",""
"782","Stimuli/Hangul_M17.bmp","188","image-keyboard-response","508","1403220","0.0-19.0-2.26","c2_test",",","","","",","
"634","<p style=""color:white;""> Next Figure: Male or Female? </p>","188","html-keyboard-response","509","1403854","0.0-19.0-0.27","prediction","","","",",",""
"null","<div style=""color:white; font-size:60px;"">+</div>","null","html-keyboard-response","510","1404856","0.0-19.0-1.27","fixation","","","","",""
"614","Stimuli/Hangul_F5.bmp","188","image-keyboard-response","511","1405473","0.0-19.0-2.27","c2_test",".","","","",","
"547","<p style=""color:white;""> Next Figure: Male or Female? </p>","188","html-keyboard-response","512","1406022","0.0-19.0-0.28","prediction","","","",",",""
"null","<div style=""color:white; font-size:60px;"">+</div>","null","html-keyboard-response","513","1407025","0.0-19.0-1.28","fixation","","","","",""
"949","Stimuli/Hangul_F19.bmp","188","image-keyboard-response","514","1407975","0.0-19.0-2.28","c2_test",".","","","",","
"888","<p style=""color:white;""> Next Figure: Male or Female? </p>","190","html-keyboard-response","515","1408865","0.0-19.0-0.29","prediction","","","",".",""
"null","<div style=""color:white; font-size:60px;"">+</div>","null","html-keyboard-response","516","1409868","0.0-19.0-1.29","fixation","","","","",""
"658","Stimuli/Hangul_F7.bmp","190","image-keyboard-response","517","1410530","0.0-19.0-2.29","c2_test",".","","","","."
"2104","<p style=""color:white;""> Next Figure: Male or Female? </p>","190","html-keyboard-response","518","1412634","0.0-19.0-0.30","prediction","","","",".",""
"null","<div style=""color:white; font-size:60px;"">+</div>","null","html-keyboard-response","519","1413636","0.0-19.0-1.30","fixation","","","","",""
"739","Stimuli/Hangul_M8.bmp","190","image-keyboard-response","520","1414378","0.0-19.0-2.30","c2_test",",","","","","."
"527","<p style=""color:white;""> Next Figure: Male or Female? </p>","188","html-keyboard-response","521","1414908","0.0-19.0-0.31","prediction","","","",",",""
"null","<div style=""color:white; font-size:60px;"">+</div>","null","html-keyboard-response","522","1415909","0.0-19.0-1.31","fixation","","","","",""
"601","Stimuli/Hangul_F6.bmp","188","image-keyboard-response","523","1416512","0.0-19.0-2.31","c2_test",".","","","",","
"701","<p style=""color:white;""> Next Figure: Male or Female? </p>","188","html-keyboard-response","524","1417214","0.0-19.0-0.32","prediction","","","",",",""
"null","<div style=""color:white; font-size:60px;"">+</div>","null","html-keyboard-response","525","1418216","0.0-19.0-1.32","fixation","","","","",""
"767","Stimuli/Hangul_F0.bmp","188","image-keyboard-response","526","1418986","0.0-19.0-2.32","c2_test",".","","","",","
"418","<p style=""color:white;""> Next Figure: Male or Female? </p>","188","html-keyboard-response","527","1419406","0.0-19.0-0.33","prediction","","","",",",""
"null","<div style=""color:white; font-size:60px;"">+</div>","null","html-keyboard-response","528","1420407","0.0-19.0-1.33","fixation","","","","",""
"691","Stimuli/Hangul_F13.bmp","188","image-keyboard-response","529","1421101","0.0-19.0-2.33","c2_test",".","","","",","
"4838","<p style=""color:white;""> Next Figure: Male or Female? </p>","190","html-keyboard-response","530","1425940","0.0-19.0-0.34","prediction","","","",".",""
"null","<div style=""color:white; font-size:60px;"">+</div>","null","html-keyboard-response","531","1426942","0.0-19.0-1.34","fixation","","","","",""
"745","Stimuli/Hangul_M16.bmp","188","image-keyboard-response","532","1427688","0.0-19.0-2.34","c2_test",",","","","",","
"1205","<p style=""color:white;""> Next Figure: Male or Female? </p>","188","html-keyboard-response","533","1428896","0.0-19.0-0.35","prediction","","","",",",""
"null","<div style=""color:white; font-size:60px;"">+</div>","null","html-keyboard-response","534","1429898","0.0-19.0-1.35","fixation","","","","",""
"1297","Stimuli/Hangul_M5.bmp","190","image-keyboard-response","535","1431197","0.0-19.0-2.35","c2_test",",","","","","."
"665","<p style=""color:white;""> Next Figure: Male or Female? </p>","190","html-keyboard-response","536","1431863","0.0-19.0-0.36","prediction","","","",".",""
"null","<div style=""color:white; font-size:60px;"">+</div>","null","html-keyboard-response","537","1432865","0.0-19.0-1.36","fixation","","","","",""
"976","Stimuli/Hangul_F18.bmp","190","image-keyboard-response","538","1433842","0.0-19.0-2.36","c2_test",".","","","","."
"1711","<p style=""color:white;""> Next Figure: Male or Female? </p>","188","html-keyboard-response","539","1435554","0.0-19.0-0.37","prediction","","","",",",""
"null","<div style=""color:white; font-size:60px;"">+</div>","null","html-keyboard-response","540","1436556","0.0-19.0-1.37","fixation","","","","",""
"1101","Stimuli/Hangul_M11.bmp","188","image-keyboard-response","541","1437661","0.0-19.0-2.37","c2_test",",","","","",","
"547","<p style=""color:white;""> Next Figure: Male or Female? </p>","188","html-keyboard-response","542","1438210","0.0-19.0-0.38","prediction","","","",",",""
"null","<div style=""color:white; font-size:60px;"">+</div>","null","html-keyboard-response","543","1439212","0.0-19.0-1.38","fixation","","","","",""
"698","Stimuli/Hangul_M2.bmp","188","image-keyboard-response","544","1439912","0.0-19.0-2.38","c2_test",",","","","",","
"643","<p style=""color:white;""> Next Figure: Male or Female? </p>","190","html-keyboard-response","545","1440557","0.0-19.0-0.39","prediction","","","",".",""
"null","<div style=""color:white; font-size:60px;"">+</div>","null","html-keyboard-response","546","1441559","0.0-19.0-1.39","fixation","","","","",""
"939","Stimuli/Hangul_M9.bmp","190","image-keyboard-response","547","1442500","0.0-19.0-2.39","c2_test",",","","","","."
"2433","<p style=""color:white;""> Next Figure: Male or Female? </p>","188","html-keyboard-response","548","1444936","0.0-19.0-0.40","prediction","","","",",",""
"null","<div style=""color:white; font-size:60px;"">+</div>","null","html-keyboard-response","549","1445937","0.0-19.0-1.40","fixation","","","","",""
"997","Stimuli/Hangul_M3.bmp","190","image-keyboard-response","550","1446936","0.0-19.0-2.40","c2_test",",","","","","."
"645","<p style=""color:white;""> Next Figure: Male or Female? </p>","188","html-keyboard-response","551","1447583","0.0-19.0-0.41","prediction","","","",",",""
"null","<div style=""color:white; font-size:60px;"">+</div>","null","html-keyboard-response","552","1448585","0.0-19.0-1.41","fixation","","","","",""
"668","Stimuli/Hangul_F11.bmp","190","image-keyboard-response","553","1449255","0.0-19.0-2.41","c2_test",".","","","","."
"559","<p style=""color:white;""> Next Figure: Male or Female? </p>","188","html-keyboard-response","554","1449816","0.0-19.0-0.42","prediction","","","",",",""
"null","<div style=""color:white; font-size:60px;"">+</div>","null","html-keyboard-response","555","1450818","0.0-19.0-1.42","fixation","","","","",""
"791","Stimuli/Hangul_M14.bmp","190","image-keyboard-response","556","1451612","0.0-19.0-2.42","c2_test",",","","","","."
"909","<p style=""color:white;""> Next Figure: Male or Female? </p>","188","html-keyboard-response","557","1452522","0.0-19.0-0.43","prediction","","","",",",""
"null","<div style=""color:white; font-size:60px;"">+</div>","null","html-keyboard-response","558","1453523","0.0-19.0-1.43","fixation","","","","",""
"748","Stimuli/Hangul_F10.bmp","190","image-keyboard-response","559","1454272","0.0-19.0-2.43","c2_test",".","","","","."
"336","<p style=""color:white;""> Next Figure: Male or Female? </p>","188","html-keyboard-response","560","1454611","0.0-19.0-0.44","prediction","","","",",",""
"null","<div style=""color:white; font-size:60px;"">+</div>","null","html-keyboard-response","561","1455613","0.0-19.0-1.44","fixation","","","","",""
"1864","Stimuli/Hangul_M22.bmp","188","image-keyboard-response","562","1457479","0.0-19.0-2.44","c2_test",",","","","",","
"546","<p style=""color:white;""> Next Figure: Male or Female? </p>","188","html-keyboard-response","563","1458026","0.0-19.0-0.45","prediction","","","",",",""
"null","<div style=""color:white; font-size:60px;"">+</div>","null","html-keyboard-response","564","1459029","0.0-19.0-1.45","fixation","","","","",""
"625","Stimuli/Hangul_M4.bmp","188","image-keyboard-response","565","1459656","0.0-19.0-2.45","c2_test",",","","","",","
"413","<p style=""color:white;""> Next Figure: Male or Female? </p>","188","html-keyboard-response","566","1460071","0.0-19.0-0.46","prediction","","","",",",""
"null","<div style=""color:white; font-size:60px;"">+</div>","null","html-keyboard-response","567","1461072","0.0-19.0-1.46","fixation","","","","",""
"861","Stimuli/Hangul_F15.bmp","188","image-keyboard-response","568","1461934","0.0-19.0-2.46","c2_test",".","","","",","
"277","<p style=""color:white;""> Next Figure: Male or Female? </p>","188","html-keyboard-response","569","1462214","0.0-19.0-0.47","prediction","","","",",",""
"null","<div style=""color:white; font-size:60px;"">+</div>","null","html-keyboard-response","570","1463216","0.0-19.0-1.47","fixation","","","","",""
"686","Stimuli/Hangul_F16.bmp","190","image-keyboard-response","571","1463902","0.0-19.0-2.47","c2_test",".","","","","."
"309","<p style=""color:white;""> Next Figure: Male or Female? </p>","190","html-keyboard-response","572","1464214","0.0-19.0-0.48","prediction","","","",".",""
"null","<div style=""color:white; font-size:60px;"">+</div>","null","html-keyboard-response","573","1465215","0.0-19.0-1.48","fixation","","","","",""
"779","Stimuli/Hangul_F21.bmp","190","image-keyboard-response","574","1465998","0.0-19.0-2.48","c2_test",".","","","","."
"339","<p style=""color:white;""> Next Figure: Male or Female? </p>","190","html-keyboard-response","575","1466338","0.0-19.0-0.49","prediction","","","",".",""
"null","<div style=""color:white; font-size:60px;"">+</div>","null","html-keyboard-response","576","1467340","0.0-19.0-1.49","fixation","","","","",""
"697","Stimuli/Hangul_F2.bmp","190","image-keyboard-response","577","1468039","0.0-19.0-2.49","c2_test",".","","","","."
"78640","<p style=""color:white;"">Good job, block 1 complete! Please take a moment to rest.</p> <p style=""color:white;"">When you are ready to continue with block 2 of 4, press the space bar.</p> ","32","html-keyboard-response","578","1546681","0.0-20.0","","","","","",""
"1173","<p style=""color:white;""> Next Figure: Male or Female? </p>","188","html-keyboard-response","579","1549857","0.0-21.0-0.0","prediction","","","",",",""
"null","<div style=""color:white; font-size:60px;"">+</div>","null","html-keyboard-response","580","1550859","0.0-21.0-1.0","fixation","","","","",""
"501","Stimuli/Hangul_F26.bmp","188","image-keyboard-response","581","1551364","0.0-21.0-2.0","c2_test",".","","","",","
"2909","<p style=""color:white;""> Next Figure: Male or Female? </p>","190","html-keyboard-response","582","1554275","0.0-21.0-0.1","prediction","","","",".",""
"null","<div style=""color:white; font-size:60px;"">+</div>","null","html-keyboard-response","583","1555276","0.0-21.0-1.1","fixation","","","","",""
"1020","Stimuli/Hangul_M38.bmp","188","image-keyboard-response","584","1556299","0.0-21.0-2.1","c2_test",",","","","",","
"552","<p style=""color:white;""> Next Figure: Male or Female? </p>","188","html-keyboard-response","585","1556853","0.0-21.0-0.2","prediction","","","",",",""
"null","<div style=""color:white; font-size:60px;"">+</div>","null","html-keyboard-response","586","1557855","0.0-21.0-1.2","fixation","","","","",""
"751","Stimuli/Hangul_F43.bmp","190","image-keyboard-response","587","1558607","0.0-21.0-2.2","c2_test",".","","","","."
"4872","<p style=""color:white;""> Next Figure: Male or Female? </p>","188","html-keyboard-response","588","1563481","0.0-21.0-0.3","prediction","","","",",",""
"null","<div style=""color:white; font-size:60px;"">+</div>","null","html-keyboard-response","589","1564482","0.0-21.0-1.3","fixation","","","","",""
"803","Stimuli/Hangul_M34.bmp","188","image-keyboard-response","590","1565287","0.0-21.0-2.3","c2_test",",","","","",","
"1793","<p style=""color:white;""> Next Figure: Male or Female? </p>","188","html-keyboard-response","591","1567082","0.0-21.0-0.4","prediction","","","",",",""
"null","<div style=""color:white; font-size:60px;"">+</div>","null","html-keyboard-response","592","1568084","0.0-21.0-1.4","fixation","","","","",""
"754","Stimuli/Hangul_F47.bmp","190","image-keyboard-response","593","1568840","0.0-21.0-2.4","c2_test",".","","","","."
"4048","<p style=""color:white;""> Next Figure: Male or Female? </p>","188","html-keyboard-response","594","1572890","0.0-21.0-0.5","prediction","","","",",",""
"null","<div style=""color:white; font-size:60px;"">+</div>","null","html-keyboard-response","595","1573892","0.0-21.0-1.5","fixation","","","","",""
"1289","Stimuli/Hangul_F25.bmp","188","image-keyboard-response","596","1575184","0.0-21.0-2.5","c2_test",".","","","",","
"235","<p style=""color:white;""> Next Figure: Male or Female? </p>","188","html-keyboard-response","597","1575420","0.0-21.0-0.6","prediction","","","",",",""
"null","<div style=""color:white; font-size:60px;"">+</div>","null","html-keyboard-response","598","1576422","0.0-21.0-1.6","fixation","","","","",""
"1582","Stimuli/Hangul_F39.bmp","190","image-keyboard-response","599","1578007","0.0-21.0-2.6","c2_test",".","","","","."
"2461","<p style=""color:white;""> Next Figure: Male or Female? </p>","188","html-keyboard-response","600","1580469","0.0-21.0-0.7","prediction","","","",",",""
"null","<div style=""color:white; font-size:60px;"">+</div>","null","html-keyboard-response","601","1581471","0.0-21.0-1.7","fixation","","","","",""
"560","Stimuli/Hangul_M28.bmp","188","image-keyboard-response","602","1582034","0.0-21.0-2.7","c2_test",",","","","",","
"1207","<p style=""color:white;""> Next Figure: Male or Female? </p>","188","html-keyboard-response","603","1583242","0.0-21.0-0.8","prediction","","","",",",""
"null","<div style=""color:white; font-size:60px;"">+</div>","null","html-keyboard-response","604","1584244","0.0-21.0-1.8","fixation","","","","",""
"554","Stimuli/Hangul_M41.bmp","188","image-keyboard-response","605","1584801","0.0-21.0-2.8","c2_test",",","","","",","
"685","<p style=""color:white;""> Next Figure: Male or Female? </p>","190","html-keyboard-response","606","1585488","0.0-21.0-0.9","prediction","","","",".",""
"null","<div style=""color:white; font-size:60px;"">+</div>","null","html-keyboard-response","607","1586491","0.0-21.0-1.9","fixation","","","","",""
"510","Stimuli/Hangul_M32.bmp","188","image-keyboard-response","608","1587002","0.0-21.0-2.9","c2_test",",","","","",","
"710","<p style=""color:white;""> Next Figure: Male or Female? </p>","188","html-keyboard-response","609","1587714","0.0-21.0-0.10","prediction","","","",",",""
"null","<div style=""color:white; font-size:60px;"">+</div>","null","html-keyboard-response","610","1588715","0.0-21.0-1.10","fixation","","","","",""
"754","Stimuli/Hangul_F37.bmp","190","image-keyboard-response","611","1589470","0.0-21.0-2.10","c2_test",".","","","","."
"614","<p style=""color:white;""> Next Figure: Male or Female? </p>","188","html-keyboard-response","612","1590085","0.0-21.0-0.11","prediction","","","",",",""
"null","<div style=""color:white; font-size:60px;"">+</div>","null","html-keyboard-response","613","1591087","0.0-21.0-1.11","fixation","","","","",""
"635","Stimuli/Hangul_F36.bmp","188","image-keyboard-response","614","1591725","0.0-21.0-2.11","c2_test",".","","","",","
"579","<p style=""color:white;""> Next Figure: Male or Female? </p>","188","html-keyboard-response","615","1592306","0.0-21.0-0.12","prediction","","","",",",""
"null","<div style=""color:white; font-size:60px;"">+</div>","null","html-keyboard-response","616","1593309","0.0-21.0-1.12","fixation","","","","",""
"580","Stimuli/Hangul_F29.bmp","190","image-keyboard-response","617","1593891","0.0-21.0-2.12","c2_test",".","","","","."
"847","<p style=""color:white;""> Next Figure: Male or Female? </p>","188","html-keyboard-response","618","1594739","0.0-21.0-0.13","prediction","","","",",",""
"null","<div style=""color:white; font-size:60px;"">+</div>","null","html-keyboard-response","619","1595741","0.0-21.0-1.13","fixation","","","","",""
"556","Stimuli/Hangul_F40.bmp","188","image-keyboard-response","620","1596300","0.0-21.0-2.13","c2_test",".","","","",","
"641","<p style=""color:white;""> Next Figure: Male or Female? </p>","188","html-keyboard-response","621","1596941","0.0-21.0-0.14","prediction","","","",",",""
"null","<div style=""color:white; font-size:60px;"">+</div>","null","html-keyboard-response","622","1597943","0.0-21.0-1.14","fixation","","","","",""
"706","Stimuli/Hangul_F42.bmp","190","image-keyboard-response","623","1598652","0.0-21.0-2.14","c2_test",".","","","","."
"1090","<p style=""color:white;""> Next Figure: Male or Female? </p>","190","html-keyboard-response","624","1599743","0.0-21.0-0.15","prediction","","","",".",""
"null","<div style=""color:white; font-size:60px;"">+</div>","null","html-keyboard-response","625","1600744","0.0-21.0-1.15","fixation","","","","",""
"820","Stimuli/Hangul_F31.bmp","190","image-keyboard-response","626","1601568","0.0-21.0-2.15","c2_test",".","","","","."
"981","<p style=""color:white;""> Next Figure: Male or Female? </p>","188","html-keyboard-response","627","1602551","0.0-21.0-0.16","prediction","","","",",",""
"null","<div style=""color:white; font-size:60px;"">+</div>","null","html-keyboard-response","628","1603553","0.0-21.0-1.16","fixation","","","","",""
"620","Stimuli/Hangul_M31.bmp","188","image-keyboard-response","629","1604175","0.0-21.0-2.16","c2_test",",","","","",","
"1363","<p style=""color:white;""> Next Figure: Male or Female? </p>","188","html-keyboard-response","630","1605541","0.0-21.0-0.17","prediction","","","",",",""
"null","<div style=""color:white; font-size:60px;"">+</div>","null","html-keyboard-response","631","1606543","0.0-21.0-1.17","fixation","","","","",""
"895","Stimuli/Hangul_M39.bmp","188","image-keyboard-response","632","1607441","0.0-21.0-2.17","c2_test",",","","","",","
"489","<p style=""color:white;""> Next Figure: Male or Female? </p>","188","html-keyboard-response","633","1607932","0.0-21.0-0.18","prediction","","","",",",""
"null","<div style=""color:white; font-size:60px;"">+</div>","null","html-keyboard-response","634","1608934","0.0-21.0-1.18","fixation","","","","",""
"487","Stimuli/Hangul_M45.bmp","188","image-keyboard-response","635","1609423","0.0-21.0-2.18","c2_test",",","","","",","
"626","<p style=""color:white;""> Next Figure: Male or Female? </p>","190","html-keyboard-response","636","1610051","0.0-21.0-0.19","prediction","","","",".",""
"null","<div style=""color:white; font-size:60px;"">+</div>","null","html-keyboard-response","637","1611053","0.0-21.0-1.19","fixation","","","","",""
"1120","Stimuli/Hangul_M30.bmp","188","image-keyboard-response","638","1612175","0.0-21.0-2.19","c2_test",",","","","",","
"687","<p style=""color:white;""> Next Figure: Male or Female? </p>","188","html-keyboard-response","639","1612864","0.0-21.0-0.20","prediction","","","",",",""
"null","<div style=""color:white; font-size:60px;"">+</div>","null","html-keyboard-response","640","1613865","0.0-21.0-1.20","fixation","","","","",""
"618","Stimuli/Hangul_M42.bmp","188","image-keyboard-response","641","1614487","0.0-21.0-2.20","c2_test",",","","","",","
"573","<p style=""color:white;""> Next Figure: Male or Female? </p>","190","html-keyboard-response","642","1615061","0.0-21.0-0.21","prediction","","","",".",""
"null","<div style=""color:white; font-size:60px;"">+</div>","null","html-keyboard-response","643","1616063","0.0-21.0-1.21","fixation","","","","",""
"733","Stimuli/Hangul_M35.bmp","188","image-keyboard-response","644","1616798","0.0-21.0-2.21","c2_test",",","","","",","
"606","<p style=""color:white;""> Next Figure: Male or Female? </p>","188","html-keyboard-response","645","1617406","0.0-21.0-0.22","prediction","","","",",",""
"null","<div style=""color:white; font-size:60px;"">+</div>","null","html-keyboard-response","646","1618408","0.0-21.0-1.22","fixation","","","","",""
"637","Stimuli/Hangul_F30.bmp","190","image-keyboard-response","647","1619048","0.0-21.0-2.22","c2_test",".","","","","."
"759","<p style=""color:white;""> Next Figure: Male or Female? </p>","188","html-keyboard-response","648","1619808","0.0-21.0-0.23","prediction","","","",",",""
"null","<div style=""color:white; font-size:60px;"">+</div>","null","html-keyboard-response","649","1620811","0.0-21.0-1.23","fixation","","","","",""
"880","Stimuli/Hangul_M27.bmp","190","image-keyboard-response","650","1621694","0.0-21.0-2.23","c2_test",",","","","","."
"592","<p style=""color:white;""> Next Figure: Male or Female? </p>","188","html-keyboard-response","651","1622288","0.0-21.0-0.24","prediction","","","",",",""
"null","<div style=""color:white; font-size:60px;"">+</div>","null","html-keyboard-response","652","1623290","0.0-21.0-1.24","fixation","","","","",""
"730","Stimuli/Hangul_M25.bmp","188","image-keyboard-response","653","1624021","0.0-21.0-2.24","c2_test",",","","","",","
"1290","<p style=""color:white;""> Next Figure: Male or Female? </p>","188","html-keyboard-response","654","1625315","0.0-21.0-0.25","prediction","","","",",",""
"null","<div style=""color:white; font-size:60px;"">+</div>","null","html-keyboard-response","655","1626317","0.0-21.0-1.25","fixation","","","","",""
"671","Stimuli/Hangul_F48.bmp","188","image-keyboard-response","656","1626989","0.0-21.0-2.25","c2_test",".","","","",","
"563","<p style=""color:white;""> Next Figure: Male or Female? </p>","188","html-keyboard-response","657","1627554","0.0-21.0-0.26","prediction","","","",",",""
"null","<div style=""color:white; font-size:60px;"">+</div>","null","html-keyboard-response","658","1628556","0.0-21.0-1.26","fixation","","","","",""
"663","Stimuli/Hangul_M37.bmp","190","image-keyboard-response","659","1629220","0.0-21.0-2.26","c2_test",",","","","","."
"810","<p style=""color:white;""> Next Figure: Male or Female? </p>","188","html-keyboard-response","660","1630031","0.0-21.0-0.27","prediction","","","",",",""
"null","<div style=""color:white; font-size:60px;"">+</div>","null","html-keyboard-response","661","1631032","0.0-21.0-1.27","fixation","","","","",""
"762","Stimuli/Hangul_F46.bmp","188","image-keyboard-response","662","1631797","0.0-21.0-2.27","c2_test",".","","","",","
"551","<p style=""color:white;""> Next Figure: Male or Female? </p>","188","html-keyboard-response","663","1632349","0.0-21.0-0.28","prediction","","","",",",""
"null","<div style=""color:white; font-size:60px;"">+</div>","null","html-keyboard-response","664","1633351","0.0-21.0-1.28","fixation","","","","",""
"663","Stimuli/Hangul_F32.bmp","190","image-keyboard-response","665","1634017","0.0-21.0-2.28","c2_test",".","","","","."
"2482","<p style=""color:white;""> Next Figure: Male or Female? </p>","188","html-keyboard-response","666","1636501","0.0-21.0-0.29","prediction","","","",",",""
"null","<div style=""color:white; font-size:60px;"">+</div>","null","html-keyboard-response","667","1637503","0.0-21.0-1.29","fixation","","","","",""
"726","Stimuli/Hangul_F34.bmp","190","image-keyboard-response","668","1638231","0.0-21.0-2.29","c2_test",".","","","","."
"776","<p style=""color:white;""> Next Figure: Male or Female? </p>","190","html-keyboard-response","669","1639009","0.0-21.0-0.30","prediction","","","",".",""
"null","<div style=""color:white; font-size:60px;"">+</div>","null","html-keyboard-response","670","1640011","0.0-21.0-1.30","fixation","","","","",""
"596","Stimuli/Hangul_F33.bmp","188","image-keyboard-response","671","1640610","0.0-21.0-2.30","c2_test",".","","","",","
"787","<p style=""color:white;""> Next Figure: Male or Female? </p>","188","html-keyboard-response","672","1641399","0.0-21.0-0.31","prediction","","","",",",""
"null","<div style=""color:white; font-size:60px;"">+</div>","null","html-keyboard-response","673","1642400","0.0-21.0-1.31","fixation","","","","",""
"961","Stimuli/Hangul_M29.bmp","190","image-keyboard-response","674","1643364","0.0-21.0-2.31","c2_test",",","","","","."
"1085","<p style=""color:white;""> Next Figure: Male or Female? </p>","188","html-keyboard-response","675","1644450","0.0-21.0-0.32","prediction","","","",",",""
"null","<div style=""color:white; font-size:60px;"">+</div>","null","html-keyboard-response","676","1645451","0.0-21.0-1.32","fixation","","","","",""
"788","Stimuli/Hangul_M47.bmp","188","image-keyboard-response","677","1646243","0.0-21.0-2.32","c2_test",",","","","",","
"1068","<p style=""color:white;""> Next Figure: Male or Female? </p>","188","html-keyboard-response","678","1647313","0.0-21.0-0.33","prediction","","","",",",""
"null","<div style=""color:white; font-size:60px;"">+</div>","null","html-keyboard-response","679","1648315","0.0-21.0-1.33","fixation","","","","",""
"705","Stimuli/Hangul_F27.bmp","188","image-keyboard-response","680","1649021","0.0-21.0-2.33","c2_test",".","","","",","
"729","<p style=""color:white;""> Next Figure: Male or Female? </p>","188","html-keyboard-response","681","1649751","0.0-21.0-0.34","prediction","","","",",",""
"null","<div style=""color:white; font-size:60px;"">+</div>","null","html-keyboard-response","682","1650753","0.0-21.0-1.34","fixation","","","","",""
"686","Stimuli/Hangul_M49.bmp","188","image-keyboard-response","683","1651441","0.0-21.0-2.34","c2_test",",","","","",","
"727","<p style=""color:white;""> Next Figure: Male or Female? </p>","188","html-keyboard-response","684","1652169","0.0-21.0-0.35","prediction","","","",",",""
"null","<div style=""color:white; font-size:60px;"">+</div>","null","html-keyboard-response","685","1653170","0.0-21.0-1.35","fixation","","","","",""
"933","Stimuli/Hangul_F44.bmp","190","image-keyboard-response","686","1654105","0.0-21.0-2.35","c2_test",".","","","","."
"1091","<p style=""color:white;""> Next Figure: Male or Female? </p>","188","html-keyboard-response","687","1655197","0.0-21.0-0.36","prediction","","","",",",""
"null","<div style=""color:white; font-size:60px;"">+</div>","null","html-keyboard-response","688","1656199","0.0-21.0-1.36","fixation","","","","",""
"1178","Stimuli/Hangul_F35.bmp","188","image-keyboard-response","689","1657379","0.0-21.0-2.36","c2_test",".","","","",","
"963","<p style=""color:white;""> Next Figure: Male or Female? </p>","188","html-keyboard-response","690","1658345","0.0-21.0-0.37","prediction","","","",",",""
