"rt","stimulus","key_press","trial_type","trial_index","time_elapsed","internal_node_id","test_part","correct_response","C1_train","C1","A","C2"
"1741.78500007838","<p style=""color:white;"">Welcome to the experiment! Press any key to begin.</p>","75","html-keyboard-response","0","1753","0.0-0.0","","","","","",""
"15526.06499986723","<p style=""color:white;"">You will see a series of abstract figures. They are adaptations of signs in the Korean alphabet, but that is not important for this study. </p><p style=""color:white;"">Abstract figures sometimes have a more masculine or feminine shape. Here, each figure has already been assigned a gender as <q>Male</q> or <q>Female</q> by a panel of respondents in a pilot study. The respondents were not given specific instructions on how to do this, but were only told to use their intuition and to take into account the entire configuration of the stimulus. </p><p style=""color:white;"">Your task now is to guess the assigned gender of each figure. Please press the corresponding response keys to indicate your choice: </p><p style=""color:white;""> Male &#8594 <q>,</q> (comma)</p><p style=""color:white;""> Female &#8594 <q>.</q> (period)</p><p style=""color:white;"">Press either response keys to continue.</p>","188","html-keyboard-response","1","17287","0.0-1.0","","","","","",""
"8491.695000091568","<p style=""color:white;"">Your choice is correct if it matches the gender assigned by the majority of respondents in the pilot study.</p> <p style=""color:white;"">For each correct choice you will receive 2 cents. There will be 200 trials divided into 4 blocks of 50 trials. You will be able to take a break after every 50 trials.</p> <p style=""color:white;"">Press the space bar to continue.</p>","32","html-keyboard-response","2","25781","0.0-2.0","","","","","",""
"2562.8299999516457","<p style=""color:white;"">Here are some examples.</p> <p style=""color:white;"">For each, guess whether the assigned figure is male-like or female-like and indicate your choice by pressing either response keys.</p> <p style=""color:white;"">Press the space bar to continue.</p>","32","html-keyboard-response","3","28347","0.0-3.0","","","","","",""
"null","<div style=""color:white; font-size:60px;"">+</div>","null","html-keyboard-response","4","31363","0.0-4.0-0.0","fixation","","","","",""
"1826.0699999518692","Stimuli/Hangul_E1.bmp","188","image-keyboard-response","5","33198","0.0-4.0-1.0","c1_train",",",",","","",""
"null","<div style=""color:white; font-size:60px;"">+</div>","null","html-keyboard-response","6","34202","0.0-4.0-0.1","fixation","","","","",""
"1386.4049999974668","Stimuli/Hangul_E0.bmp","188","image-keyboard-response","7","35591","0.0-4.0-1.1","c1_train",",",",","","",""
"null","<div style=""color:white; font-size:60px;"">+</div>","null","html-keyboard-response","8","36598","0.0-4.0-0.2","fixation","","","","",""
"1253.2600001432002","Stimuli/Hangul_E2.bmp","188","image-keyboard-response","9","37854","0.0-4.0-1.2","c1_train",".",",","","",""
"2342.919999966398","<p style=""color:white;"">Let us begin! Press the space bar when you are ready to start block 1 of 4.</p> ","32","html-keyboard-response","10","40200","0.0-5.0","","","","","",""
"null","<div style=""color:white; font-size:60px;"">+</div>","null","html-keyboard-response","11","43211","0.0-6.0-0.0","fixation","","","","",""
"1456.6899999044836","Stimuli/Hangul_M0.bmp","190","image-keyboard-response","12","44672","0.0-6.0-1.0","test",",","",".","",""
"null","<div style=""color:white; font-size:60px;"">+</div>","null","html-keyboard-response","13","45676","0.0-6.0-0.1","fixation","","","","",""
"1688.6700000613928","Stimuli/Hangul_F6.bmp","190","image-keyboard-response","14","47367","0.0-6.0-1.1","test",".","",".","",""
"null","<div style=""color:white; font-size:60px;"">+</div>","null","html-keyboard-response","15","48374","0.0-6.0-0.2","fixation","","","","",""
"1346.2600000202656","Stimuli/Hangul_F9.bmp","188","image-keyboard-response","16","49723","0.0-6.0-1.2","test",".","",",","",""
"null","<div style=""color:white; font-size:60px;"">+</div>","null","html-keyboard-response","17","50727","0.0-6.0-0.3","fixation","","","","",""
"1475.3250000067055","Stimuli/Hangul_F14.bmp","190","image-keyboard-response","18","52205","0.0-6.0-1.3","test",".","",".","",""
"null","<div style=""color:white; font-size:60px;"">+</div>","null","html-keyboard-response","19","53214","0.0-6.0-0.4","fixation","","","","",""
"1101.6400000080466","Stimuli/Hangul_F3.bmp","188","image-keyboard-response","20","54318","0.0-6.0-1.4","test",".","",",","",""
"null","<div style=""color:white; font-size:60px;"">+</div>","null","html-keyboard-response","21","55325","0.0-6.0-0.5","fixation","","","","",""
"1120.6100000999868","Stimuli/Hangul_M7.bmp","188","image-keyboard-response","22","56449","0.0-6.0-1.5","test",",","",",","",""
"null","<div style=""color:white; font-size:60px;"">+</div>","null","html-keyboard-response","23","57455","0.0-6.0-0.6","fixation","","","","",""
"1247.9199999943376","Stimuli/Hangul_M17.bmp","188","image-keyboard-response","24","58705","0.0-6.0-1.6","test",",","",",","",""
"null","<div style=""color:white; font-size:60px;"">+</div>","null","html-keyboard-response","25","59712","0.0-6.0-0.7","fixation","","","","",""
"1245.3550000209361","Stimuli/Hangul_F4.bmp","188","image-keyboard-response","26","60960","0.0-6.0-1.7","test",".","",",","",""
"null","<div style=""color:white; font-size:60px;"">+</div>","null","html-keyboard-response","27","61964","0.0-6.0-0.8","fixation","","","","",""
"1171.0999999195337","Stimuli/Hangul_M2.bmp","190","image-keyboard-response","28","63138","0.0-6.0-1.8","test",",","",".","",""
"null","<div style=""color:white; font-size:60px;"">+</div>","null","html-keyboard-response","29","64142","0.0-6.0-0.9","fixation","","","","",""
"1192.280000075698","Stimuli/Hangul_F20.bmp","188","image-keyboard-response","30","65335","0.0-6.0-1.9","test",".","",",","",""
"null","<div style=""color:white; font-size:60px;"">+</div>","null","html-keyboard-response","31","66338","0.0-6.0-0.10","fixation","","","","",""
"1225.709999911487","Stimuli/Hangul_M3.bmp","188","image-keyboard-response","32","67566","0.0-6.0-1.10","test",",","",",","",""
"null","<div style=""color:white; font-size:60px;"">+</div>","null","html-keyboard-response","33","68573","0.0-6.0-0.11","fixation","","","","",""
"1138.6599999386817","Stimuli/Hangul_F22.bmp","190","image-keyboard-response","34","69715","0.0-6.0-1.11","test",".","",".","",""
"null","<div style=""color:white; font-size:60px;"">+</div>","null","html-keyboard-response","35","70720","0.0-6.0-0.12","fixation","","","","",""
"1112.8950000274926","Stimuli/Hangul_F7.bmp","190","image-keyboard-response","36","71834","0.0-6.0-1.12","test",".","",".","",""
"null","<div style=""color:white; font-size:60px;"">+</div>","null","html-keyboard-response","37","72843","0.0-6.0-0.13","fixation","","","","",""
"1133.7499998044223","Stimuli/Hangul_M10.bmp","188","image-keyboard-response","38","73979","0.0-6.0-1.13","test",",","",",","",""
"null","<div style=""color:white; font-size:60px;"">+</div>","null","html-keyboard-response","39","74983","0.0-6.0-0.14","fixation","","","","",""
"1096.2099998723716","Stimuli/Hangul_M6.bmp","188","image-keyboard-response","40","76082","0.0-6.0-1.14","test",",","",",","",""
"null","<div style=""color:white; font-size:60px;"">+</div>","null","html-keyboard-response","41","77084","0.0-6.0-0.15","fixation","","","","",""
"1066.9350000098348","Stimuli/Hangul_F1.bmp","190","image-keyboard-response","42","78154","0.0-6.0-1.15","test",".","",".","",""
"null","<div style=""color:white; font-size:60px;"">+</div>","null","html-keyboard-response","43","79160","0.0-6.0-0.16","fixation","","","","",""
"1068.7800000887364","Stimuli/Hangul_F18.bmp","190","image-keyboard-response","44","80231","0.0-6.0-1.16","test",".","",".","",""
"null","<div style=""color:white; font-size:60px;"">+</div>","null","html-keyboard-response","45","81236","0.0-6.0-0.17","fixation","","","","",""
"983.0849999561906","Stimuli/Hangul_M18.bmp","188","image-keyboard-response","46","82222","0.0-6.0-1.17","test",",","",",","",""
"null","<div style=""color:white; font-size:60px;"">+</div>","null","html-keyboard-response","47","83225","0.0-6.0-0.18","fixation","","","","",""
"1088.2599998731166","Stimuli/Hangul_F11.bmp","188","image-keyboard-response","48","84316","0.0-6.0-1.18","test",".","",",","",""
"null","<div style=""color:white; font-size:60px;"">+</div>","null","html-keyboard-response","49","85324","0.0-6.0-0.19","fixation","","","","",""
"1092.7099999971688","Stimuli/Hangul_M9.bmp","188","image-keyboard-response","50","86420","0.0-6.0-1.19","test",",","",",","",""
"null","<div style=""color:white; font-size:60px;"">+</div>","null","html-keyboard-response","51","87428","0.0-6.0-0.20","fixation","","","","",""
"1133.3149999845773","Stimuli/Hangul_M12.bmp","188","image-keyboard-response","52","88564","0.0-6.0-1.20","test",",","",",","",""
"null","<div style=""color:white; font-size:60px;"">+</div>","null","html-keyboard-response","53","89572","0.0-6.0-0.21","fixation","","","","",""
"1123.969999840483","Stimuli/Hangul_M14.bmp","188","image-keyboard-response","54","90698","0.0-6.0-1.21","test",",","",",","",""
"null","<div style=""color:white; font-size:60px;"">+</div>","null","html-keyboard-response","55","91702","0.0-6.0-0.22","fixation","","","","",""
"1322.7649999316782","Stimuli/Hangul_M22.bmp","188","image-keyboard-response","56","93027","0.0-6.0-1.22","test",",","",",","",""
"null","<div style=""color:white; font-size:60px;"">+</div>","null","html-keyboard-response","57","94036","0.0-6.0-0.23","fixation","","","","",""
"1280.6750000454485","Stimuli/Hangul_F13.bmp","188","image-keyboard-response","58","95319","0.0-6.0-1.23","test",".","",",","",""
"null","<div style=""color:white; font-size:60px;"">+</div>","null","html-keyboard-response","59","96328","0.0-6.0-0.24","fixation","","","","",""
"1115.5099999159575","Stimuli/Hangul_M11.bmp","188","image-keyboard-response","60","97446","0.0-6.0-1.24","test",",","",",","",""
"null","<div style=""color:white; font-size:60px;"">+</div>","null","html-keyboard-response","61","98452","0.0-6.0-0.25","fixation","","","","",""
"1072.3149999976158","Stimuli/Hangul_F5.bmp","188","image-keyboard-response","62","99526","0.0-6.0-1.25","test",".","",",","",""
"null","<div style=""color:white; font-size:60px;"">+</div>","null","html-keyboard-response","63","100534","0.0-6.0-0.26","fixation","","","","",""
"985.4200000409037","Stimuli/Hangul_M21.bmp","190","image-keyboard-response","64","101522","0.0-6.0-1.26","test",",","",".","",""
"null","<div style=""color:white; font-size:60px;"">+</div>","null","html-keyboard-response","65","102530","0.0-6.0-0.27","fixation","","","","",""
"1097.6499998942018","Stimuli/Hangul_F21.bmp","190","image-keyboard-response","66","103630","0.0-6.0-1.27","test",".","",".","",""
"null","<div style=""color:white; font-size:60px;"">+</div>","null","html-keyboard-response","67","104636","0.0-6.0-0.28","fixation","","","","",""
"1038.7050001882017","Stimuli/Hangul_F12.bmp","188","image-keyboard-response","68","105678","0.0-6.0-1.28","test",".","",",","",""
"null","<div style=""color:white; font-size:60px;"">+</div>","null","html-keyboard-response","69","106685","0.0-6.0-0.29","fixation","","","","",""
"1055.034999968484","Stimuli/Hangul_M19.bmp","188","image-keyboard-response","70","107742","0.0-6.0-1.29","test",",","",",","",""
"null","<div style=""color:white; font-size:60px;"">+</div>","null","html-keyboard-response","71","108752","0.0-6.0-0.30","fixation","","","","",""
"1092.4949999898672","Stimuli/Hangul_F17.bmp","188","image-keyboard-response","72","109847","0.0-6.0-1.30","test",".","",",","",""
"null","<div style=""color:white; font-size:60px;"">+</div>","null","html-keyboard-response","73","110852","0.0-6.0-0.31","fixation","","","","",""
"1033.809999935329","Stimuli/Hangul_M1.bmp","188","image-keyboard-response","74","111888","0.0-6.0-1.31","test",",","",",","",""
"null","<div style=""color:white; font-size:60px;"">+</div>","null","html-keyboard-response","75","112893","0.0-6.0-0.32","fixation","","","","",""
"989.7900000214577","Stimuli/Hangul_M4.bmp","190","image-keyboard-response","76","113885","0.0-6.0-1.32","test",",","",".","",""
"null","<div style=""color:white; font-size:60px;"">+</div>","null","html-keyboard-response","77","114894","0.0-6.0-0.33","fixation","","","","",""
"1055.5050000548363","Stimuli/Hangul_F0.bmp","188","image-keyboard-response","78","115952","0.0-6.0-1.33","test",".","",",","",""
"null","<div style=""color:white; font-size:60px;"">+</div>","null","html-keyboard-response","79","116959","0.0-6.0-0.34","fixation","","","","",""
"1017.8549999836832","Stimuli/Hangul_M20.bmp","188","image-keyboard-response","80","117980","0.0-6.0-1.34","test",",","",",","",""
"null","<div style=""color:white; font-size:60px;"">+</div>","null","html-keyboard-response","81","118984","0.0-6.0-0.35","fixation","","","","",""
"1009.6199999097735","Stimuli/Hangul_F15.bmp","190","image-keyboard-response","82","119996","0.0-6.0-1.35","test",".","",".","",""
"null","<div style=""color:white; font-size:60px;"">+</div>","null","html-keyboard-response","83","121003","0.0-6.0-0.36","fixation","","","","",""
"994.3549998570234","Stimuli/Hangul_F23.bmp","188","image-keyboard-response","84","122000","0.0-6.0-1.36","test",".","",",","",""
"null","<div style=""color:white; font-size:60px;"">+</div>","null","html-keyboard-response","85","123009","0.0-6.0-0.37","fixation","","","","",""
"945.3499999362975","Stimuli/Hangul_M23.bmp","188","image-keyboard-response","86","123957","0.0-6.0-1.37","test",",","",",","",""
"null","<div style=""color:white; font-size:60px;"">+</div>","null","html-keyboard-response","87","124963","0.0-6.0-0.38","fixation","","","","",""
"1107.65999997966","Stimuli/Hangul_F24.bmp","190","image-keyboard-response","88","126079","0.0-6.0-1.38","test",".","",".","",""
"null","<div style=""color:white; font-size:60px;"">+</div>","null","html-keyboard-response","89","127088","0.0-6.0-0.39","fixation","","","","",""
"1045.5249999649823","Stimuli/Hangul_M5.bmp","190","image-keyboard-response","90","128135","0.0-6.0-1.39","test",",","",".","",""
"null","<div style=""color:white; font-size:60px;"">+</div>","null","html-keyboard-response","91","129142","0.0-6.0-0.40","fixation","","","","",""
"912.3099998105317","Stimuli/Hangul_F10.bmp","188","image-keyboard-response","92","130057","0.0-6.0-1.40","test",".","",",","",""
"null","<div style=""color:white; font-size:60px;"">+</div>","null","html-keyboard-response","93","131062","0.0-6.0-0.41","fixation","","","","",""
"1095.4050000291318","Stimuli/Hangul_F16.bmp","188","image-keyboard-response","94","132159","0.0-6.0-1.41","test",".","",",","",""
"null","<div style=""color:white; font-size:60px;"">+</div>","null","html-keyboard-response","95","133163","0.0-6.0-0.42","fixation","","","","",""
"1038.3549998514354","Stimuli/Hangul_F2.bmp","188","image-keyboard-response","96","134204","0.0-6.0-1.42","test",".","",",","",""
"null","<div style=""color:white; font-size:60px;"">+</div>","null","html-keyboard-response","97","135212","0.0-6.0-0.43","fixation","","","","",""
"979.2299999389797","Stimuli/Hangul_M13.bmp","188","image-keyboard-response","98","136194","0.0-6.0-1.43","test",",","",",","",""
"null","<div style=""color:white; font-size:60px;"">+</div>","null","html-keyboard-response","99","137198","0.0-6.0-0.44","fixation","","","","",""
"944.1450000740588","Stimuli/Hangul_F8.bmp","190","image-keyboard-response","100","138144","0.0-6.0-1.44","test",".","",".","",""
"null","<div style=""color:white; font-size:60px;"">+</div>","null","html-keyboard-response","101","139152","0.0-6.0-0.45","fixation","","","","",""
"1099.7349999379367","Stimuli/Hangul_M16.bmp","190","image-keyboard-response","102","140254","0.0-6.0-1.45","test",",","",".","",""
"null","<div style=""color:white; font-size:60px;"">+</div>","null","html-keyboard-response","103","141258","0.0-6.0-0.46","fixation","","","","",""
"983.6999999824911","Stimuli/Hangul_M8.bmp","188","image-keyboard-response","104","142244","0.0-6.0-1.46","test",",","",",","",""
"null","<div style=""color:white; font-size:60px;"">+</div>","null","html-keyboard-response","105","143252","0.0-6.0-0.47","fixation","","","","",""
"936.5550000220537","Stimuli/Hangul_F19.bmp","188","image-keyboard-response","106","144190","0.0-6.0-1.47","test",".","",",","",""
"null","<div style=""color:white; font-size:60px;"">+</div>","null","html-keyboard-response","107","145199","0.0-6.0-0.48","fixation","","","","",""
"980.7849999051541","Stimuli/Hangul_M15.bmp","188","image-keyboard-response","108","146182","0.0-6.0-1.48","test",",","",",","",""
"null","<div style=""color:white; font-size:60px;"">+</div>","null","html-keyboard-response","109","147188","0.0-6.0-0.49","fixation","","","","",""
"1001.7399999778718","Stimuli/Hangul_M24.bmp","188","image-keyboard-response","110","148192","0.0-6.0-1.49","test",",","",",","",""
"2143.940000096336","<p style=""color:white;"">Good job, block 1 complete! Please take a moment to rest.</p> <p style=""color:white;"">When you are ready to continue with block 2 of 4, press the space bar.</p> ","32","html-keyboard-response","111","150341","0.0-7.0","","","","","",""
"null","<div style=""color:white; font-size:60px;"">+</div>","null","html-keyboard-response","112","153349","0.0-8.0-0.0","fixation","","","","",""
"1274.459999985993","Stimuli/Hangul_F43.bmp","190","image-keyboard-response","113","154628","0.0-8.0-1.0","test",".","",".","",""
"null","<div style=""color:white; font-size:60px;"">+</div>","null","html-keyboard-response","114","155633","0.0-8.0-0.1","fixation","","","","",""
"1128.8550000172108","Stimuli/Hangul_M44.bmp","190","image-keyboard-response","115","156764","0.0-8.0-1.1","test",",","",".","",""
"null","<div style=""color:white; font-size:60px;"">+</div>","null","html-keyboard-response","116","157771","0.0-8.0-0.2","fixation","","","","",""
"1039.030000101775","Stimuli/Hangul_M48.bmp","188","image-keyboard-response","117","158812","0.0-8.0-1.2","test",",","",",","",""
"null","<div style=""color:white; font-size:60px;"">+</div>","null","html-keyboard-response","118","159819","0.0-8.0-0.3","fixation","","","","",""
"1065.0750000495464","Stimuli/Hangul_F37.bmp","190","image-keyboard-response","119","160886","0.0-8.0-1.3","test",".","",".","",""
"null","<div style=""color:white; font-size:60px;"">+</div>","null","html-keyboard-response","120","161891","0.0-8.0-0.4","fixation","","","","",""
"1032.355000032112","Stimuli/Hangul_F49.bmp","188","image-keyboard-response","121","162926","0.0-8.0-1.4","test",".","",",","",""
"null","<div style=""color:white; font-size:60px;"">+</div>","null","html-keyboard-response","122","163935","0.0-8.0-0.5","fixation","","","","",""
"968.3950000908226","Stimuli/Hangul_M37.bmp","188","image-keyboard-response","123","164906","0.0-8.0-1.5","test",",","",",","",""
"null","<div style=""color:white; font-size:60px;"">+</div>","null","html-keyboard-response","124","165909","0.0-8.0-0.6","fixation","","","","",""
"1000.9349999018013","Stimuli/Hangul_M39.bmp","188","image-keyboard-response","125","166912","0.0-8.0-1.6","test",",","",",","",""
"null","<div style=""color:white; font-size:60px;"">+</div>","null","html-keyboard-response","126","167920","0.0-8.0-0.7","fixation","","","","",""
"1058.2000000867993","Stimuli/Hangul_F34.bmp","190","image-keyboard-response","127","168981","0.0-8.0-1.7","test",".","",".","",""
"null","<div style=""color:white; font-size:60px;"">+</div>","null","html-keyboard-response","128","169989","0.0-8.0-0.8","fixation","","","","",""
"998.17999987863","Stimuli/Hangul_M25.bmp","188","image-keyboard-response","129","170990","0.0-8.0-1.8","test",",","",",","",""
"null","<div style=""color:white; font-size:60px;"">+</div>","null","html-keyboard-response","130","171996","0.0-8.0-0.9","fixation","","","","",""
"968.8799998257309","Stimuli/Hangul_M35.bmp","188","image-keyboard-response","131","172968","0.0-8.0-1.9","test",",","",",","",""
"null","<div style=""color:white; font-size:60px;"">+</div>","null","html-keyboard-response","132","173977","0.0-8.0-0.10","fixation","","","","",""
"1036.6150001063943","Stimuli/Hangul_F38.bmp","188","image-keyboard-response","133","175016","0.0-8.0-1.10","test",".","",",","",""
"null","<div style=""color:white; font-size:60px;"">+</div>","null","html-keyboard-response","134","176024","0.0-8.0-0.11","fixation","","","","",""
"979.9299999140203","Stimuli/Hangul_M40.bmp","188","image-keyboard-response","135","177007","0.0-8.0-1.11","test",",","",",","",""
"null","<div style=""color:white; font-size:60px;"">+</div>","null","html-keyboard-response","136","178012","0.0-8.0-0.12","fixation","","","","",""
"1007.7949999831617","Stimuli/Hangul_F28.bmp","188","image-keyboard-response","137","179022","0.0-8.0-1.12","test",".","",",","",""
"null","<div style=""color:white; font-size:60px;"">+</div>","null","html-keyboard-response","138","180027","0.0-8.0-0.13","fixation","","","","",""
"1036.5649999585003","Stimuli/Hangul_F41.bmp","188","image-keyboard-response","139","181065","0.0-8.0-1.13","test",".","",",","",""
"null","<div style=""color:white; font-size:60px;"">+</div>","null","html-keyboard-response","140","182075","0.0-8.0-0.14","fixation","","","","",""
"998.5299999825656","Stimuli/Hangul_M45.bmp","190","image-keyboard-response","141","183076","0.0-8.0-1.14","test",",","",".","",""
"null","<div style=""color:white; font-size:60px;"">+</div>","null","html-keyboard-response","142","184079","0.0-8.0-0.15","fixation","","","","",""
"1005.4250000976026","Stimuli/Hangul_M49.bmp","188","image-keyboard-response","143","185087","0.0-8.0-1.15","test",",","",",","",""
"null","<div style=""color:white; font-size:60px;"">+</div>","null","html-keyboard-response","144","186093","0.0-8.0-0.16","fixation","","","","",""
"1025.4000001586974","Stimuli/Hangul_M47.bmp","188","image-keyboard-response","145","187121","0.0-8.0-1.16","test",",","",",","",""
"null","<div style=""color:white; font-size:60px;"">+</div>","null","html-keyboard-response","146","188124","0.0-8.0-0.17","fixation","","","","",""
"958.199999993667","Stimuli/Hangul_F27.bmp","188","image-keyboard-response","147","189085","0.0-8.0-1.17","test",".","",",","",""
"null","<div style=""color:white; font-size:60px;"">+</div>","null","html-keyboard-response","148","190089","0.0-8.0-0.18","fixation","","","","",""
"1093.83499994874","Stimuli/Hangul_F36.bmp","188","image-keyboard-response","149","191186","0.0-8.0-1.18","test",".","",",","",""
"null","<div style=""color:white; font-size:60px;"">+</div>","null","html-keyboard-response","150","192194","0.0-8.0-0.19","fixation","","","","",""
"1066.3050001021475","Stimuli/Hangul_F39.bmp","190","image-keyboard-response","151","193263","0.0-8.0-1.19","test",".","",".","",""
"null","<div style=""color:white; font-size:60px;"">+</div>","null","html-keyboard-response","152","194269","0.0-8.0-0.20","fixation","","","","",""
"1133.5950000211596","Stimuli/Hangul_M46.bmp","188","image-keyboard-response","153","195405","0.0-8.0-1.20","test",",","",",","",""
"null","<div style=""color:white; font-size:60px;"">+</div>","null","html-keyboard-response","154","196410","0.0-8.0-0.21","fixation","","","","",""
"986.4950000774115","Stimuli/Hangul_M36.bmp","188","image-keyboard-response","155","197398","0.0-8.0-1.21","test",",","",",","",""
"null","<div style=""color:white; font-size:60px;"">+</div>","null","html-keyboard-response","156","198403","0.0-8.0-0.22","fixation","","","","",""
"977.2600000724196","Stimuli/Hangul_F45.bmp","188","image-keyboard-response","157","199382","0.0-8.0-1.22","test",".","",",","",""
"null","<div style=""color:white; font-size:60px;"">+</div>","null","html-keyboard-response","158","200386","0.0-8.0-0.23","fixation","","","","",""
"955.4850000422448","Stimuli/Hangul_F26.bmp","188","image-keyboard-response","159","201344","0.0-8.0-1.23","test",".","",",","",""
"null","<div style=""color:white; font-size:60px;"">+</div>","null","html-keyboard-response","160","202352","0.0-8.0-0.24","fixation","","","","",""
"1126.5400000847876","Stimuli/Hangul_F31.bmp","190","image-keyboard-response","161","203481","0.0-8.0-1.24","test",".","",".","",""
"null","<div style=""color:white; font-size:60px;"">+</div>","null","html-keyboard-response","162","204490","0.0-8.0-0.25","fixation","","","","",""
"1093.7250000424683","Stimuli/Hangul_F44.bmp","190","image-keyboard-response","163","205592","0.0-8.0-1.25","test",".","",".","",""
"null","<div style=""color:white; font-size:60px;"">+</div>","null","html-keyboard-response","164","206599","0.0-8.0-0.26","fixation","","","","",""
"996.3800001423806","Stimuli/Hangul_F40.bmp","188","image-keyboard-response","165","207597","0.0-8.0-1.26","test",".","",",","",""
"null","<div style=""color:white; font-size:60px;"">+</div>","null","html-keyboard-response","166","208601","0.0-8.0-0.27","fixation","","","","",""
"969.4449999369681","Stimuli/Hangul_M33.bmp","188","image-keyboard-response","167","209572","0.0-8.0-1.27","test",",","",",","",""
"null","<div style=""color:white; font-size:60px;"">+</div>","null","html-keyboard-response","168","210581","0.0-8.0-0.28","fixation","","","","",""
"880.8199998456985","Stimuli/Hangul_M31.bmp","188","image-keyboard-response","169","211466","0.0-8.0-1.28","test",",","",",","",""
"null","<div style=""color:white; font-size:60px;"">+</div>","null","html-keyboard-response","170","212471","0.0-8.0-0.29","fixation","","","","",""
"891.4600000716746","Stimuli/Hangul_F25.bmp","188","image-keyboard-response","171","213365","0.0-8.0-1.29","test",".","",",","",""
"null","<div style=""color:white; font-size:60px;"">+</div>","null","html-keyboard-response","172","214368","0.0-8.0-0.30","fixation","","","","",""
"1027.8149999212474","Stimuli/Hangul_F30.bmp","190","image-keyboard-response","173","215398","0.0-8.0-1.30","test",".","",".","",""
"null","<div style=""color:white; font-size:60px;"">+</div>","null","html-keyboard-response","174","216405","0.0-8.0-0.31","fixation","","","","",""
"1041.3450000341982","Stimuli/Hangul_F33.bmp","190","image-keyboard-response","175","217449","0.0-8.0-1.31","test",".","",".","",""
"null","<div style=""color:white; font-size:60px;"">+</div>","null","html-keyboard-response","176","218455","0.0-8.0-0.32","fixation","","","","",""
"921.4949999004602","Stimuli/Hangul_M26.bmp","188","image-keyboard-response","177","219379","0.0-8.0-1.32","test",",","",",","",""
"null","<div style=""color:white; font-size:60px;"">+</div>","null","html-keyboard-response","178","220388","0.0-8.0-0.33","fixation","","","","",""
"1002.9749998357147","Stimuli/Hangul_F35.bmp","190","image-keyboard-response","179","221393","0.0-8.0-1.33","test",".","",".","",""
"null","<div style=""color:white; font-size:60px;"">+</div>","null","html-keyboard-response","180","222396","0.0-8.0-0.34","fixation","","","","",""
"1140.5200001318008","Stimuli/Hangul_M28.bmp","188","image-keyboard-response","181","223540","0.0-8.0-1.34","test",",","",",","",""
"null","<div style=""color:white; font-size:60px;"">+</div>","null","html-keyboard-response","182","224548","0.0-8.0-0.35","fixation","","","","",""
"1087.7199999522418","Stimuli/Hangul_M30.bmp","188","image-keyboard-response","183","225638","0.0-8.0-1.35","test",",","",",","",""
"null","<div style=""color:white; font-size:60px;"">+</div>","null","html-keyboard-response","184","226644","0.0-8.0-0.36","fixation","","","","",""
"1434.3449999578297","Stimuli/Hangul_M34.bmp","188","image-keyboard-response","185","228081","0.0-8.0-1.36","test",",","",",","",""
"null","<div style=""color:white; font-size:60px;"">+</div>","null","html-keyboard-response","186","229087","0.0-8.0-0.37","fixation","","","","",""
"1150.7099999580532","Stimuli/Hangul_M41.bmp","190","image-keyboard-response","187","230240","0.0-8.0-1.37","test",",","",".","",""
"null","<div style=""color:white; font-size:60px;"">+</div>","null","html-keyboard-response","188","231245","0.0-8.0-0.38","fixation","","","","",""
"1088.1449999287724","Stimuli/Hangul_M29.bmp","188","image-keyboard-response","189","232335","0.0-8.0-1.38","test",",","",",","",""
"null","<div style=""color:white; font-size:60px;"">+</div>","null","html-keyboard-response","190","233340","0.0-8.0-0.39","fixation","","","","",""
"1069.1849999129772","Stimuli/Hangul_F32.bmp","190","image-keyboard-response","191","234412","0.0-8.0-1.39","test",".","",".","",""
"null","<div style=""color:white; font-size:60px;"">+</div>","null","html-keyboard-response","192","235418","0.0-8.0-0.40","fixation","","","","",""
"1113.3799999952316","Stimuli/Hangul_F48.bmp","188","image-keyboard-response","193","236533","0.0-8.0-1.40","test",".","",",","",""
"null","<div style=""color:white; font-size:60px;"">+</div>","null","html-keyboard-response","194","237542","0.0-8.0-0.41","fixation","","","","",""
"959.4499999657273","Stimuli/Hangul_F47.bmp","188","image-keyboard-response","195","238505","0.0-8.0-1.41","test",".","",",","",""
"null","<div style=""color:white; font-size:60px;"">+</div>","null","html-keyboard-response","196","239509","0.0-8.0-0.42","fixation","","","","",""
"1025.9899999946356","Stimuli/Hangul_M42.bmp","188","image-keyboard-response","197","240537","0.0-8.0-1.42","test",",","",",","",""
"null","<div style=""color:white; font-size:60px;"">+</div>","null","html-keyboard-response","198","241540","0.0-8.0-0.43","fixation","","","","",""
"691.3449999410659","Stimuli/Hangul_M27.bmp","188","image-keyboard-response","199","242234","0.0-8.0-1.43","test",",","",",","",""
"null","<div style=""color:white; font-size:60px;"">+</div>","null","html-keyboard-response","200","243237","0.0-8.0-0.44","fixation","","","","",""
"1317.344999872148","Stimuli/Hangul_F29.bmp","190","image-keyboard-response","201","244557","0.0-8.0-1.44","test",".","",".","",""
"null","<div style=""color:white; font-size:60px;"">+</div>","null","html-keyboard-response","202","245567","0.0-8.0-0.45","fixation","","","","",""
"880.3699999116361","Stimuli/Hangul_F42.bmp","188","image-keyboard-response","203","246451","0.0-8.0-1.45","test",".","",",","",""
"null","<div style=""color:white; font-size:60px;"">+</div>","null","html-keyboard-response","204","247460","0.0-8.0-0.46","fixation","","","","",""
"1168.8599998597056","Stimuli/Hangul_M43.bmp","188","image-keyboard-response","205","248631","0.0-8.0-1.46","test",",","",",","",""
"null","<div style=""color:white; font-size:60px;"">+</div>","null","html-keyboard-response","206","249636","0.0-8.0-0.47","fixation","","","","",""
"1218.2199999224395","Stimuli/Hangul_F46.bmp","188","image-keyboard-response","207","250859","0.0-8.0-1.47","test",".","",",","",""
"null","<div style=""color:white; font-size:60px;"">+</div>","null","html-keyboard-response","208","251866","0.0-8.0-0.48","fixation","","","","",""
"1256.2550001312047","Stimuli/Hangul_M38.bmp","190","image-keyboard-response","209","253124","0.0-8.0-1.48","test",",","",".","",""
"null","<div style=""color:white; font-size:60px;"">+</div>","null","html-keyboard-response","210","254129","0.0-8.0-0.49","fixation","","","","",""
"1002.5549998972565","Stimuli/Hangul_M32.bmp","190","image-keyboard-response","211","255134","0.0-8.0-1.49","test",",","",".","",""
"464441.8950001709","<p style=""color:white;"">Half way there! Please take a moment to rest.</p> <p style=""color:white;"">When you are ready to continue with block 3 of 4, press the space bar.</p> ","32","html-keyboard-response","212","719580","0.0-9.0","","","","","",""
"null","<div style=""color:white; font-size:60px;"">+</div>","null","html-keyboard-response","213","722591","0.0-10.0-0.0","fixation","","","","",""
"1839.9199999403208","Stimuli/Hangul_F70.bmp","188","image-keyboard-response","214","724434","0.0-10.0-1.0","test",".","",",","",""
"null","<div style=""color:white; font-size:60px;"">+</div>","null","html-keyboard-response","215","725443","0.0-10.0-0.1","fixation","","","","",""
"1353.06500014849","Stimuli/Hangul_F72.bmp","188","image-keyboard-response","216","726797","0.0-10.0-1.1","test",".","",",","",""
"null","<div style=""color:white; font-size:60px;"">+</div>","null","html-keyboard-response","217","727802","0.0-10.0-0.2","fixation","","","","",""
"1316.6999998502433","Stimuli/Hangul_M60.bmp","188","image-keyboard-response","218","729120","0.0-10.0-1.2","test",",","",",","",""
"null","<div style=""color:white; font-size:60px;"">+</div>","null","html-keyboard-response","219","730127","0.0-10.0-0.3","fixation","","","","",""
"1409.660000121221","Stimuli/Hangul_M64.bmp","188","image-keyboard-response","220","731540","0.0-10.0-1.3","test",",","",",","",""
"null","<div style=""color:white; font-size:60px;"">+</div>","null","html-keyboard-response","221","732543","0.0-10.0-0.4","fixation","","","","",""
"1267.9800000041723","Stimuli/Hangul_M59.bmp","190","image-keyboard-response","222","733813","0.0-10.0-1.4","test",",","",".","",""
"null","<div style=""color:white; font-size:60px;"">+</div>","null","html-keyboard-response","223","734820","0.0-10.0-0.5","fixation","","","","",""
"1248.0650001671165","Stimuli/Hangul_M52.bmp","190","image-keyboard-response","224","736072","0.0-10.0-1.5","test",",","",".","",""
"null","<div style=""color:white; font-size:60px;"">+</div>","null","html-keyboard-response","225","737077","0.0-10.0-0.6","fixation","","","","",""
"1132.465000031516","Stimuli/Hangul_F58.bmp","188","image-keyboard-response","226","738212","0.0-10.0-1.6","test",".","",",","",""
"null","<div style=""color:white; font-size:60px;"">+</div>","null","html-keyboard-response","227","739221","0.0-10.0-0.7","fixation","","","","",""
"1207.0799998473376","Stimuli/Hangul_F57.bmp","190","image-keyboard-response","228","740431","0.0-10.0-1.7","test",".","",".","",""
"null","<div style=""color:white; font-size:60px;"">+</div>","null","html-keyboard-response","229","741437","0.0-10.0-0.8","fixation","","","","",""
"1233.415000140667","Stimuli/Hangul_F53.bmp","190","image-keyboard-response","230","742674","0.0-10.0-1.8","test",".","",".","",""
"null","<div style=""color:white; font-size:60px;"">+</div>","null","html-keyboard-response","231","743685","0.0-10.0-0.9","fixation","","","","",""
"1126.7200000584126","Stimuli/Hangul_M71.bmp","188","image-keyboard-response","232","744818","0.0-10.0-1.9","test",",","",",","",""
"null","<div style=""color:white; font-size:60px;"">+</div>","null","html-keyboard-response","233","745825","0.0-10.0-0.10","fixation","","","","",""
"1180.479999864474","Stimuli/Hangul_F69.bmp","190","image-keyboard-response","234","747008","0.0-10.0-1.10","test",".","",".","",""
"null","<div style=""color:white; font-size:60px;"">+</div>","null","html-keyboard-response","235","748015","0.0-10.0-0.11","fixation","","","","",""
"1243.4750001411885","Stimuli/Hangul_F54.bmp","188","image-keyboard-response","236","749261","0.0-10.0-1.11","test",".","",",","",""
"null","<div style=""color:white; font-size:60px;"">+</div>","null","html-keyboard-response","237","750275","0.0-10.0-0.12","fixation","","","","",""
"1071.025000186637","Stimuli/Hangul_F62.bmp","188","image-keyboard-response","238","751350","0.0-10.0-1.12","test",".","",",","",""
"null","<div style=""color:white; font-size:60px;"">+</div>","null","html-keyboard-response","239","752354","0.0-10.0-0.13","fixation","","","","",""
"1172.2299999091774","Stimuli/Hangul_F65.bmp","190","image-keyboard-response","240","753528","0.0-10.0-1.13","test",".","",".","",""
"null","<div style=""color:white; font-size:60px;"">+</div>","null","html-keyboard-response","241","754533","0.0-10.0-0.14","fixation","","","","",""
"1224.919999949634","Stimuli/Hangul_M63.bmp","188","image-keyboard-response","242","755761","0.0-10.0-1.14","test",",","",",","",""
"null","<div style=""color:white; font-size:60px;"">+</div>","null","html-keyboard-response","243","756768","0.0-10.0-0.15","fixation","","","","",""
"1212.980000069365","Stimuli/Hangul_M67.bmp","190","image-keyboard-response","244","757985","0.0-10.0-1.15","test",",","",".","",""
"null","<div style=""color:white; font-size:60px;"">+</div>","null","html-keyboard-response","245","758988","0.0-10.0-0.16","fixation","","","","",""
"1141.0550000146031","Stimuli/Hangul_M53.bmp","188","image-keyboard-response","246","760132","0.0-10.0-1.16","test",",","",",","",""
"null","<div style=""color:white; font-size:60px;"">+</div>","null","html-keyboard-response","247","761136","0.0-10.0-0.17","fixation","","","","",""
"989.0649998560548","Stimuli/Hangul_M74.bmp","188","image-keyboard-response","248","762128","0.0-10.0-1.17","test",",","",",","",""
"null","<div style=""color:white; font-size:60px;"">+</div>","null","html-keyboard-response","249","763134","0.0-10.0-0.18","fixation","","","","",""
"1035.7699999585748","Stimuli/Hangul_M72.bmp","188","image-keyboard-response","250","764172","0.0-10.0-1.18","test",",","",",","",""
"null","<div style=""color:white; font-size:60px;"">+</div>","null","html-keyboard-response","251","765177","0.0-10.0-0.19","fixation","","","","",""
"1179.5300000812858","Stimuli/Hangul_F74.bmp","190","image-keyboard-response","252","766359","0.0-10.0-1.19","test",".","",".","",""
"null","<div style=""color:white; font-size:60px;"">+</div>","null","html-keyboard-response","253","767367","0.0-10.0-0.20","fixation","","","","",""
"1178.4699999261647","Stimuli/Hangul_M65.bmp","188","image-keyboard-response","254","768547","0.0-10.0-1.20","test",",","",",","",""
"null","<div style=""color:white; font-size:60px;"">+</div>","null","html-keyboard-response","255","769555","0.0-10.0-0.21","fixation","","","","",""
"5794.179999968037","Stimuli/Hangul_F63.bmp","188","image-keyboard-response","256","775351","0.0-10.0-1.21","test",".","",",","",""
"null","<div style=""color:white; font-size:60px;"">+</div>","null","html-keyboard-response","257","776356","0.0-10.0-0.22","fixation","","","","",""
"1400.819999864325","Stimuli/Hangul_F59.bmp","190","image-keyboard-response","258","777760","0.0-10.0-1.22","test",".","",".","",""
"null","<div style=""color:white; font-size:60px;"">+</div>","null","html-keyboard-response","259","778763","0.0-10.0-0.23","fixation","","","","",""
"1149.7000001836568","Stimuli/Hangul_M50.bmp","190","image-keyboard-response","260","779915","0.0-10.0-1.23","test",",","",".","",""
"null","<div style=""color:white; font-size:60px;"">+</div>","null","html-keyboard-response","261","780920","0.0-10.0-0.24","fixation","","","","",""
"1218.7049998901784","Stimuli/Hangul_F64.bmp","190","image-keyboard-response","262","782141","0.0-10.0-1.24","test",".","",".","",""
"null","<div style=""color:white; font-size:60px;"">+</div>","null","html-keyboard-response","263","783151","0.0-10.0-0.25","fixation","","","","",""
"1183.1050000619143","Stimuli/Hangul_M55.bmp","188","image-keyboard-response","264","784337","0.0-10.0-1.25","test",",","",",","",""
"null","<div style=""color:white; font-size:60px;"">+</div>","null","html-keyboard-response","265","785341","0.0-10.0-0.26","fixation","","","","",""
"1190.1350000407547","Stimuli/Hangul_M56.bmp","188","image-keyboard-response","266","786533","0.0-10.0-1.26","test",",","",",","",""
"null","<div style=""color:white; font-size:60px;"">+</div>","null","html-keyboard-response","267","787540","0.0-10.0-0.27","fixation","","","","",""
"1222.3050000611693","Stimuli/Hangul_F55.bmp","188","image-keyboard-response","268","788764","0.0-10.0-1.27","test",".","",",","",""
"null","<div style=""color:white; font-size:60px;"">+</div>","null","html-keyboard-response","269","789768","0.0-10.0-0.28","fixation","","","","",""
"1151.5250001102686","Stimuli/Hangul_F56.bmp","190","image-keyboard-response","270","790921","0.0-10.0-1.28","test",".","",".","",""
"null","<div style=""color:white; font-size:60px;"">+</div>","null","html-keyboard-response","271","791926","0.0-10.0-0.29","fixation","","","","",""
"1382.2049999143928","Stimuli/Hangul_F61.bmp","188","image-keyboard-response","272","793311","0.0-10.0-1.29","test",".","",",","",""
"null","<div style=""color:white; font-size:60px;"">+</div>","null","html-keyboard-response","273","794320","0.0-10.0-0.30","fixation","","","","",""
"1239.6650000009686","Stimuli/Hangul_M62.bmp","188","image-keyboard-response","274","795562","0.0-10.0-1.30","test",",","",",","",""
"null","<div style=""color:white; font-size:60px;"">+</div>","null","html-keyboard-response","275","796569","0.0-10.0-0.31","fixation","","","","",""
"1094.139999942854","Stimuli/Hangul_M57.bmp","188","image-keyboard-response","276","797667","0.0-10.0-1.31","test",",","",",","",""
"null","<div style=""color:white; font-size:60px;"">+</div>","null","html-keyboard-response","277","798674","0.0-10.0-0.32","fixation","","","","",""
"1136.7250001057982","Stimuli/Hangul_F50.bmp","190","image-keyboard-response","278","799813","0.0-10.0-1.32","test",".","",".","",""
"null","<div style=""color:white; font-size:60px;"">+</div>","null","html-keyboard-response","279","800817","0.0-10.0-0.33","fixation","","","","",""
"1130.210000090301","Stimuli/Hangul_F51.bmp","190","image-keyboard-response","280","801949","0.0-10.0-1.33","test",".","",".","",""
"null","<div style=""color:white; font-size:60px;"">+</div>","null","html-keyboard-response","281","802960","0.0-10.0-0.34","fixation","","","","",""
"1217.2799999825656","Stimuli/Hangul_F71.bmp","190","image-keyboard-response","282","804179","0.0-10.0-1.34","test",".","",".","",""
"null","<div style=""color:white; font-size:60px;"">+</div>","null","html-keyboard-response","283","805183","0.0-10.0-0.35","fixation","","","","",""
"1142.8399998694658","Stimuli/Hangul_M54.bmp","188","image-keyboard-response","284","806328","0.0-10.0-1.35","test",",","",",","",""
"null","<div style=""color:white; font-size:60px;"">+</div>","null","html-keyboard-response","285","807332","0.0-10.0-0.36","fixation","","","","",""
"1106.7150000017136","Stimuli/Hangul_M68.bmp","188","image-keyboard-response","286","808441","0.0-10.0-1.36","test",",","",",","",""
"null","<div style=""color:white; font-size:60px;"">+</div>","null","html-keyboard-response","287","809450","0.0-10.0-0.37","fixation","","","","",""
"1235.5949999764562","Stimuli/Hangul_F66.bmp","190","image-keyboard-response","288","810688","0.0-10.0-1.37","test",".","",".","",""
"null","<div style=""color:white; font-size:60px;"">+</div>","null","html-keyboard-response","289","811691","0.0-10.0-0.38","fixation","","","","",""
"1115.0750000961125","Stimuli/Hangul_F60.bmp","190","image-keyboard-response","290","812809","0.0-10.0-1.38","test",".","",".","",""
"null","<div style=""color:white; font-size:60px;"">+</div>","null","html-keyboard-response","291","813815","0.0-10.0-0.39","fixation","","","","",""
"1054.4099998660386","Stimuli/Hangul_F73.bmp","190","image-keyboard-response","292","814871","0.0-10.0-1.39","test",".","",".","",""
"null","<div style=""color:white; font-size:60px;"">+</div>","null","html-keyboard-response","293","815880","0.0-10.0-0.40","fixation","","","","",""
"1135.9049999155104","Stimuli/Hangul_M70.bmp","188","image-keyboard-response","294","817018","0.0-10.0-1.40","test",",","",",","",""
"null","<div style=""color:white; font-size:60px;"">+</div>","null","html-keyboard-response","295","818026","0.0-10.0-0.41","fixation","","","","",""
"1086.25499997288","Stimuli/Hangul_M73.bmp","188","image-keyboard-response","296","819114","0.0-10.0-1.41","test",",","",",","",""
"null","<div style=""color:white; font-size:60px;"">+</div>","null","html-keyboard-response","297","820121","0.0-10.0-0.42","fixation","","","","",""
"1081.91499998793","Stimuli/Hangul_M58.bmp","188","image-keyboard-response","298","821205","0.0-10.0-1.42","test",",","",",","",""
"null","<div style=""color:white; font-size:60px;"">+</div>","null","html-keyboard-response","299","822215","0.0-10.0-0.43","fixation","","","","",""
"981.364999897778","Stimuli/Hangul_F52.bmp","188","image-keyboard-response","300","823198","0.0-10.0-1.43","test",".","",",","",""
"null","<div style=""color:white; font-size:60px;"">+</div>","null","html-keyboard-response","301","824205","0.0-10.0-0.44","fixation","","","","",""
"1221.265000058338","Stimuli/Hangul_M61.bmp","188","image-keyboard-response","302","825429","0.0-10.0-1.44","test",",","",",","",""
"null","<div style=""color:white; font-size:60px;"">+</div>","null","html-keyboard-response","303","826436","0.0-10.0-0.45","fixation","","","","",""
"1176.624999847263","Stimuli/Hangul_F68.bmp","190","image-keyboard-response","304","827614","0.0-10.0-1.45","test",".","",".","",""
"null","<div style=""color:white; font-size:60px;"">+</div>","null","html-keyboard-response","305","828624","0.0-10.0-0.46","fixation","","","","",""
"1005.4800000507385","Stimuli/Hangul_M66.bmp","188","image-keyboard-response","306","829633","0.0-10.0-1.46","test",",","",",","",""
"null","<div style=""color:white; font-size:60px;"">+</div>","null","html-keyboard-response","307","830642","0.0-10.0-0.47","fixation","","","","",""
"1087.0799999684095","Stimuli/Hangul_F67.bmp","188","image-keyboard-response","308","831732","0.0-10.0-1.47","test",".","",",","",""
"null","<div style=""color:white; font-size:60px;"">+</div>","null","html-keyboard-response","309","832738","0.0-10.0-0.48","fixation","","","","",""
"1086.1750000622123","Stimuli/Hangul_M51.bmp","188","image-keyboard-response","310","833826","0.0-10.0-1.48","test",",","",",","",""
"null","<div style=""color:white; font-size:60px;"">+</div>","null","html-keyboard-response","311","834833","0.0-10.0-0.49","fixation","","","","",""
"1081.0249999631196","Stimuli/Hangul_M69.bmp","188","image-keyboard-response","312","835917","0.0-10.0-1.49","test",",","",",","",""
"2322.3200000356883","<p style=""color:white;"">One more block to go! Please take a moment to rest.</p> <p style=""color:white;"">When you are ready to continue with block 4 of 4, press the space bar.</p> ","32","html-keyboard-response","313","838243","0.0-11.0","","","","","",""
"null","<div style=""color:white; font-size:60px;"">+</div>","null","html-keyboard-response","314","841253","0.0-12.0-0.0","fixation","","","","",""
"1212.7350000664592","Stimuli/Hangul_F88.bmp","190","image-keyboard-response","315","842470","0.0-12.0-1.0","test",".","",".","",""
"null","<div style=""color:white; font-size:60px;"">+</div>","null","html-keyboard-response","316","843476","0.0-12.0-0.1","fixation","","","","",""
"1127.3100001271814","Stimuli/Hangul_M86.bmp","188","image-keyboard-response","317","844606","0.0-12.0-1.1","test",",","",",","",""
"null","<div style=""color:white; font-size:60px;"">+</div>","null","html-keyboard-response","318","845616","0.0-12.0-0.2","fixation","","","","",""
"1494.1549999639392","Stimuli/Hangul_F75.bmp","188","image-keyboard-response","319","847113","0.0-12.0-1.2","test",".","",",","",""
"null","<div style=""color:white; font-size:60px;"">+</div>","null","html-keyboard-response","320","848116","0.0-12.0-0.3","fixation","","","","",""
"1127.4699999485165","Stimuli/Hangul_F85.bmp","190","image-keyboard-response","321","849246","0.0-12.0-1.3","test",".","",".","",""
"null","<div style=""color:white; font-size:60px;"">+</div>","null","html-keyboard-response","322","850253","0.0-12.0-0.4","fixation","","","","",""
"1129.7550001181662","Stimuli/Hangul_F83.bmp","190","image-keyboard-response","323","851384","0.0-12.0-1.4","test",".","",".","",""
"null","<div style=""color:white; font-size:60px;"">+</div>","null","html-keyboard-response","324","852390","0.0-12.0-0.5","fixation","","","","",""
"1128.6350002046674","Stimuli/Hangul_M82.bmp","188","image-keyboard-response","325","853521","0.0-12.0-1.5","test",",","",",","",""
"null","<div style=""color:white; font-size:60px;"">+</div>","null","html-keyboard-response","326","854525","0.0-12.0-0.6","fixation","","","","",""
"1010.499999858439","Stimuli/Hangul_F99.bmp","188","image-keyboard-response","327","855538","0.0-12.0-1.6","test",".","",",","",""
"null","<div style=""color:white; font-size:60px;"">+</div>","null","html-keyboard-response","328","856544","0.0-12.0-0.7","fixation","","","","",""
"1038.264999864623","Stimuli/Hangul_M79.bmp","188","image-keyboard-response","329","857585","0.0-12.0-1.7","test",",","",",","",""
"null","<div style=""color:white; font-size:60px;"">+</div>","null","html-keyboard-response","330","858590","0.0-12.0-0.8","fixation","","","","",""
"1145.4300000332296","Stimuli/Hangul_M75.bmp","188","image-keyboard-response","331","859738","0.0-12.0-1.8","test",",","",",","",""
"null","<div style=""color:white; font-size:60px;"">+</div>","null","html-keyboard-response","332","860743","0.0-12.0-0.9","fixation","","","","",""
"1118.6200000811368","Stimuli/Hangul_F96.bmp","190","image-keyboard-response","333","861866","0.0-12.0-1.9","test",".","",".","",""
"null","<div style=""color:white; font-size:60px;"">+</div>","null","html-keyboard-response","334","862871","0.0-12.0-0.10","fixation","","","","",""
"1172.7400000672787","Stimuli/Hangul_F77.bmp","190","image-keyboard-response","335","864046","0.0-12.0-1.10","test",".","",".","",""
"null","<div style=""color:white; font-size:60px;"">+</div>","null","html-keyboard-response","336","865051","0.0-12.0-0.11","fixation","","","","",""
"1022.1049999818206","Stimuli/Hangul_F98.bmp","188","image-keyboard-response","337","866075","0.0-12.0-1.11","test",".","",",","",""
"null","<div style=""color:white; font-size:60px;"">+</div>","null","html-keyboard-response","338","867080","0.0-12.0-0.12","fixation","","","","",""
"1130.210000090301","Stimuli/Hangul_F97.bmp","190","image-keyboard-response","339","868212","0.0-12.0-1.12","test",".","",".","",""
"null","<div style=""color:white; font-size:60px;"">+</div>","null","html-keyboard-response","340","869217","0.0-12.0-0.13","fixation","","","","",""
"1011.6999999154359","Stimuli/Hangul_F81.bmp","190","image-keyboard-response","341","870231","0.0-12.0-1.13","test",".","",".","",""
"null","<div style=""color:white; font-size:60px;"">+</div>","null","html-keyboard-response","342","871238","0.0-12.0-0.14","fixation","","","","",""
"1154.09000008367","Stimuli/Hangul_M99.bmp","188","image-keyboard-response","343","872395","0.0-12.0-1.14","test",",","",",","",""
"null","<div style=""color:white; font-size:60px;"">+</div>","null","html-keyboard-response","344","873401","0.0-12.0-0.15","fixation","","","","",""
"1095.6649999134243","Stimuli/Hangul_M84.bmp","190","image-keyboard-response","345","874500","0.0-12.0-1.15","test",",","",".","",""
"null","<div style=""color:white; font-size:60px;"">+</div>","null","html-keyboard-response","346","875504","0.0-12.0-0.16","fixation","","","","",""
"1169.675000011921","Stimuli/Hangul_F93.bmp","190","image-keyboard-response","347","876675","0.0-12.0-1.16","test",".","",".","",""
"null","<div style=""color:white; font-size:60px;"">+</div>","null","html-keyboard-response","348","877680","0.0-12.0-0.17","fixation","","","","",""
"1160.5500001460314","Stimuli/Hangul_F89.bmp","190","image-keyboard-response","349","878843","0.0-12.0-1.17","test",".","",".","",""
"null","<div style=""color:white; font-size:60px;"">+</div>","null","html-keyboard-response","350","879850","0.0-12.0-0.18","fixation","","","","",""
"1219.950000056997","Stimuli/Hangul_M87.bmp","190","image-keyboard-response","351","881073","0.0-12.0-1.18","test",",","",".","",""
"null","<div style=""color:white; font-size:60px;"">+</div>","null","html-keyboard-response","352","882082","0.0-12.0-0.19","fixation","","","","",""
"1175.8200000040233","Stimuli/Hangul_M92.bmp","188","image-keyboard-response","353","883259","0.0-12.0-1.19","test",",","",",","",""
"null","<div style=""color:white; font-size:60px;"">+</div>","null","html-keyboard-response","354","884263","0.0-12.0-0.20","fixation","","","","",""
"1040.3849999420345","Stimuli/Hangul_M76.bmp","188","image-keyboard-response","355","885305","0.0-12.0-1.20","test",",","",",","",""
"null","<div style=""color:white; font-size:60px;"">+</div>","null","html-keyboard-response","356","886312","0.0-12.0-0.21","fixation","","","","",""
"1131.4199999906123","Stimuli/Hangul_M93.bmp","188","image-keyboard-response","357","887445","0.0-12.0-1.21","test",",","",",","",""
"null","<div style=""color:white; font-size:60px;"">+</div>","null","html-keyboard-response","358","888450","0.0-12.0-0.22","fixation","","","","",""
"1096.2900000158697","Stimuli/Hangul_F91.bmp","188","image-keyboard-response","359","889549","0.0-12.0-1.22","test",".","",",","",""
"null","<div style=""color:white; font-size:60px;"">+</div>","null","html-keyboard-response","360","890554","0.0-12.0-0.23","fixation","","","","",""
"1058.5099998861551","Stimuli/Hangul_M96.bmp","188","image-keyboard-response","361","891614","0.0-12.0-1.23","test",",","",",","",""
"null","<div style=""color:white; font-size:60px;"">+</div>","null","html-keyboard-response","362","892618","0.0-12.0-0.24","fixation","","","","",""
"1154.7149999532849","Stimuli/Hangul_F84.bmp","190","image-keyboard-response","363","893775","0.0-12.0-1.24","test",".","",".","",""
"null","<div style=""color:white; font-size:60px;"">+</div>","null","html-keyboard-response","364","894784","0.0-12.0-0.25","fixation","","","","",""
"1123.20000003092","Stimuli/Hangul_M78.bmp","188","image-keyboard-response","365","895909","0.0-12.0-1.25","test",",","",",","",""
"null","<div style=""color:white; font-size:60px;"">+</div>","null","html-keyboard-response","366","896919","0.0-12.0-0.26","fixation","","","","",""
"1101.7050000373274","Stimuli/Hangul_M88.bmp","188","image-keyboard-response","367","898023","0.0-12.0-1.26","test",",","",",","",""
"null","<div style=""color:white; font-size:60px;"">+</div>","null","html-keyboard-response","368","899031","0.0-12.0-0.27","fixation","","","","",""
"1110.7350001111627","Stimuli/Hangul_F90.bmp","188","image-keyboard-response","369","900145","0.0-12.0-1.27","test",".","",",","",""
"null","<div style=""color:white; font-size:60px;"">+</div>","null","html-keyboard-response","370","901150","0.0-12.0-0.28","fixation","","","","",""
"1091.8000000528991","Stimuli/Hangul_M77.bmp","188","image-keyboard-response","371","902243","0.0-12.0-1.28","test",",","",",","",""
"null","<div style=""color:white; font-size:60px;"">+</div>","null","html-keyboard-response","372","903251","0.0-12.0-0.29","fixation","","","","",""
"1085.3299999143928","Stimuli/Hangul_F80.bmp","190","image-keyboard-response","373","904338","0.0-12.0-1.29","test",".","",".","",""
"null","<div style=""color:white; font-size:60px;"">+</div>","null","html-keyboard-response","374","905343","0.0-12.0-0.30","fixation","","","","",""
"1060.330000007525","Stimuli/Hangul_M89.bmp","188","image-keyboard-response","375","906405","0.0-12.0-1.30","test",",","",",","",""
"null","<div style=""color:white; font-size:60px;"">+</div>","null","html-keyboard-response","376","907409","0.0-12.0-0.31","fixation","","","","",""
"1070.0750001706183","Stimuli/Hangul_M80.bmp","188","image-keyboard-response","377","908482","0.0-12.0-1.31","test",",","",",","",""
"null","<div style=""color:white; font-size:60px;"">+</div>","null","html-keyboard-response","378","909486","0.0-12.0-0.32","fixation","","","","",""
"1108.6150000337511","Stimuli/Hangul_M81.bmp","188","image-keyboard-response","379","910597","0.0-12.0-1.32","test",",","",",","",""
"null","<div style=""color:white; font-size:60px;"">+</div>","null","html-keyboard-response","380","911600","0.0-12.0-0.33","fixation","","","","",""
"1047.2350001800805","Stimuli/Hangul_M90.bmp","188","image-keyboard-response","381","912649","0.0-12.0-1.33","test",",","",",","",""
"null","<div style=""color:white; font-size:60px;"">+</div>","null","html-keyboard-response","382","913654","0.0-12.0-0.34","fixation","","","","",""
"1028.3699999563396","Stimuli/Hangul_M83.bmp","188","image-keyboard-response","383","914685","0.0-12.0-1.34","test",",","",",","",""
"null","<div style=""color:white; font-size:60px;"">+</div>","null","html-keyboard-response","384","915693","0.0-12.0-0.35","fixation","","","","",""
"1190.8249999396503","Stimuli/Hangul_F87.bmp","190","image-keyboard-response","385","916887","0.0-12.0-1.35","test",".","",".","",""
"null","<div style=""color:white; font-size:60px;"">+</div>","null","html-keyboard-response","386","917894","0.0-12.0-0.36","fixation","","","","",""
"1200.3650001715869","Stimuli/Hangul_F95.bmp","188","image-keyboard-response","387","919097","0.0-12.0-1.36","test",".","",",","",""
"null","<div style=""color:white; font-size:60px;"">+</div>","null","html-keyboard-response","388","920106","0.0-12.0-0.37","fixation","","","","",""
"1109.144999878481","Stimuli/Hangul_F79.bmp","190","image-keyboard-response","389","921218","0.0-12.0-1.37","test",".","",".","",""
"null","<div style=""color:white; font-size:60px;"">+</div>","null","html-keyboard-response","390","922224","0.0-12.0-0.38","fixation","","","","",""
"1107.8650001436472","Stimuli/Hangul_M91.bmp","188","image-keyboard-response","391","923336","0.0-12.0-1.38","test",",","",",","",""
"null","<div style=""color:white; font-size:60px;"">+</div>","null","html-keyboard-response","392","924344","0.0-12.0-0.39","fixation","","","","",""
"1017.2349999193102","Stimuli/Hangul_M94.bmp","188","image-keyboard-response","393","925367","0.0-12.0-1.39","test",",","",",","",""
"null","<div style=""color:white; font-size:60px;"">+</div>","null","html-keyboard-response","394","926370","0.0-12.0-0.40","fixation","","","","",""
"1107.4250000528991","Stimuli/Hangul_M97.bmp","188","image-keyboard-response","395","927479","0.0-12.0-1.40","test",",","",",","",""
"null","<div style=""color:white; font-size:60px;"">+</div>","null","html-keyboard-response","396","928483","0.0-12.0-0.41","fixation","","","","",""
"1192.2299999278039","Stimuli/Hangul_F76.bmp","190","image-keyboard-response","397","929678","0.0-12.0-1.41","test",".","",".","",""
"null","<div style=""color:white; font-size:60px;"">+</div>","null","html-keyboard-response","398","930685","0.0-12.0-0.42","fixation","","","","",""
"1220.6649999134243","Stimuli/Hangul_M85.bmp","188","image-keyboard-response","399","931907","0.0-12.0-1.42","test",",","",",","",""
"null","<div style=""color:white; font-size:60px;"">+</div>","null","html-keyboard-response","400","932916","0.0-12.0-0.43","fixation","","","","",""
"1147.6950000505894","Stimuli/Hangul_F78.bmp","190","image-keyboard-response","401","934067","0.0-12.0-1.43","test",".","",".","",""
"null","<div style=""color:white; font-size:60px;"">+</div>","null","html-keyboard-response","402","935075","0.0-12.0-0.44","fixation","","","","",""
"1173.7649999558926","Stimuli/Hangul_F94.bmp","190","image-keyboard-response","403","936251","0.0-12.0-1.44","test",".","",".","",""
"null","<div style=""color:white; font-size:60px;"">+</div>","null","html-keyboard-response","404","937259","0.0-12.0-0.45","fixation","","","","",""
"1160.20999988541","Stimuli/Hangul_F92.bmp","190","image-keyboard-response","405","938422","0.0-12.0-1.45","test",".","",".","",""
"null","<div style=""color:white; font-size:60px;"">+</div>","null","html-keyboard-response","406","939425","0.0-12.0-0.46","fixation","","","","",""
"1073.575000045821","Stimuli/Hangul_F86.bmp","190","image-keyboard-response","407","940502","0.0-12.0-1.46","test",".","",".","",""
"null","<div style=""color:white; font-size:60px;"">+</div>","null","html-keyboard-response","408","941507","0.0-12.0-0.47","fixation","","","","",""
"1349.2550000082701","Stimuli/Hangul_M95.bmp","188","image-keyboard-response","409","942859","0.0-12.0-1.47","test",",","",",","",""
"null","<div style=""color:white; font-size:60px;"">+</div>","null","html-keyboard-response","410","943866","0.0-12.0-0.48","fixation","","","","",""
"1153.120000148192","Stimuli/Hangul_F82.bmp","190","image-keyboard-response","411","945021","0.0-12.0-1.48","test",".","",".","",""
"null","<div style=""color:white; font-size:60px;"">+</div>","null","html-keyboard-response","412","946028","0.0-12.0-0.49","fixation","","","","",""
"1081.8199999630451","Stimuli/Hangul_M98.bmp","188","image-keyboard-response","413","947113","0.0-12.0-1.49","test",",","",",","",""
"1511.0100000165403","<p style=""color:white;"">Phase I of the experiment is complete.</p> <p style=""color:white;"">Press the space bar to proceed to Phase II of the experiment.</p> ","32","html-keyboard-response","414","948627","0.0-13.0","","","","","",""
"48483.53000008501","<p style=""color:white;"">Now we are interested in how well you can predict patterns in the series of figures. You will be asked to predict whether the next figure in the series is more male-like or female-like. When you see the <q>Next Figure</q> prompt, press the corresponding response keys to indicate your prediction: </p><p style=""color:white;""> Male &#8594 <q>,</q> (comma)</p><p style=""color:white;""> Female &#8594 <q>.</q> (period)</p><p style=""color:white;"">The actual figure will then appear on the screen. After you see the figure, please guess the assigned gender with response keys. </p><p style=""color:white;"">As before, you will receive 2 cents for correctly classifying each figure.</p><p style=""color:white;"">Press either response keys to continue.</p>","188","html-keyboard-response","415","999182","0.0-14.0","","","","","",""
"6234.10000000149","<p style=""color:white;"">PREDICTION BONUS</p> <p style=""color:white;"">Your prediction accuracy is the total number of correct predictions you make over the 200 trials.</p> <p style=""color:white;"">In addition to the 2 cents per correct figure classification, you have the chance to receive a bonus of 40 dollars IF your accuracy is above average relative to previous participants.</p><p style=""color:white;"">If your accuracy is below average relative to previous participants, then you will not receive the 40 dollar bonus.</p><p style=""color:white;"">Press the space bar to continue.</p>","32","html-keyboard-response","416","1005419","0.0-15.0","","","","","",""
"4825.399999972433","<p style=""color:white;"">Here are some examples.</p> <p style=""color:white;"">For each, predict whether the next figure looks more male-like or female-like. Then, when the figure appears, guess whether it looks more male-like or female-like and indicate your choice.</p> <p style=""color:white;"">Press the space bar to continue.</p>","32","html-keyboard-response","417","1010247","0.0-16.0","","","","","",""
"1476.9250000827014","<p style=""color:white;""> Next Figure: Male or Female? </p>","188","html-keyboard-response","418","1013730","0.0-17.0-0.0","prediction_train","","","",",",""
"null","<div style=""color:white; font-size:60px;"">+</div>","null","html-keyboard-response","419","1014736","0.0-17.0-1.0","fixation","","","","",""
"734.5300000160933","Stimuli/Hangul_E2.bmp","190","image-keyboard-response","420","1015474","0.0-17.0-2.0","c2_train",".","","","","."
"2069.3700001575053","<p style=""color:white;""> Next Figure: Male or Female? </p>","190","html-keyboard-response","421","1017545","0.0-17.0-0.1","prediction_train","","","",".",""
"null","<div style=""color:white; font-size:60px;"">+</div>","null","html-keyboard-response","422","1018552","0.0-17.0-1.1","fixation","","","","",""
"444.85500012524426","Stimuli/Hangul_E0.bmp","188","image-keyboard-response","423","1019000","0.0-17.0-2.1","c2_train",",","","","",","
"955.7199999690056","<p style=""color:white;""> Next Figure: Male or Female? </p>","188","html-keyboard-response","424","1019957","0.0-17.0-0.2","prediction_train","","","",",",""
"null","<div style=""color:white; font-size:60px;"">+</div>","null","html-keyboard-response","425","1020964","0.0-17.0-1.2","fixation","","","","",""
"404.30499985814095","Stimuli/Hangul_E1.bmp","188","image-keyboard-response","426","1021370","0.0-17.0-2.2","c2_train",",","","","",","
"1287.3599999584258","<p style=""color:white;"">Let us begin! Press the space bar when you are ready to start block 1 of 4.</p> ","32","html-keyboard-response","427","1022660","0.0-18.0","","","","","",""
"374.55000006593764","<p style=""color:white;""> Next Figure: Male or Female? </p>","188","html-keyboard-response","428","1025043","0.0-19.0-0.0","prediction","","","",",",""
"null","<div style=""color:white; font-size:60px;"">+</div>","null","html-keyboard-response","429","1026048","0.0-19.0-1.0","fixation","","","","",""
"653.6549997981638","Stimuli/Hangul_F10.bmp","190","image-keyboard-response","430","1026705","0.0-19.0-2.0","c2_test",".","","","","."
"1113.0450000055134","<p style=""color:white;""> Next Figure: Male or Female? </p>","190","html-keyboard-response","431","1027821","0.0-19.0-0.1","prediction","","","",".",""
"null","<div style=""color:white; font-size:60px;"">+</div>","null","html-keyboard-response","432","1028826","0.0-19.0-1.1","fixation","","","","",""
"482.73000004701316","Stimuli/Hangul_M3.bmp","188","image-keyboard-response","433","1029312","0.0-19.0-2.1","c2_test",",","","","",","
"925.455000018701","<p style=""color:white;""> Next Figure: Male or Female? </p>","188","html-keyboard-response","434","1030240","0.0-19.0-0.2","prediction","","","",",",""
"null","<div style=""color:white; font-size:60px;"">+</div>","null","html-keyboard-response","435","1031248","0.0-19.0-1.2","fixation","","","","",""
"440.7899999059737","Stimuli/Hangul_M22.bmp","188","image-keyboard-response","436","1031692","0.0-19.0-2.2","c2_test",",","","","",","
"983.3649999927729","<p style=""color:white;""> Next Figure: Male or Female? </p>","188","html-keyboard-response","437","1032678","0.0-19.0-0.3","prediction","","","",",",""
"null","<div style=""color:white; font-size:60px;"">+</div>","null","html-keyboard-response","438","1033682","0.0-19.0-1.3","fixation","","","","",""
"496.8250000383705","Stimuli/Hangul_M24.bmp","188","image-keyboard-response","439","1034181","0.0-19.0-2.3","c2_test",",","","","",","
"836.2650000490248","<p style=""color:white;""> Next Figure: Male or Female? </p>","188","html-keyboard-response","440","1035020","0.0-19.0-0.4","prediction","","","",",",""
"null","<div style=""color:white; font-size:60px;"">+</div>","null","html-keyboard-response","441","1036028","0.0-19.0-1.4","fixation","","","","",""
"505.4549998603761","Stimuli/Hangul_M21.bmp","188","image-keyboard-response","442","1036535","0.0-19.0-2.4","c2_test",",","","","",","
"623.9899999927729","<p style=""color:white;""> Next Figure: Male or Female? </p>","190","html-keyboard-response","443","1037162","0.0-19.0-0.5","prediction","","","",".",""
"null","<div style=""color:white; font-size:60px;"">+</div>","null","html-keyboard-response","444","1038169","0.0-19.0-1.5","fixation","","","","",""
"543.8500000163913","Stimuli/Hangul_F20.bmp","188","image-keyboard-response","445","1038716","0.0-19.0-2.5","c2_test",".","","","",","
"1133.4949999582022","<p style=""color:white;""> Next Figure: Male or Female? </p>","188","html-keyboard-response","446","1039852","0.0-19.0-0.6","prediction","","","",",",""
"null","<div style=""color:white; font-size:60px;"">+</div>","null","html-keyboard-response","447","1040856","0.0-19.0-1.6","fixation","","","","",""
"463.2149999961257","Stimuli/Hangul_M9.bmp","188","image-keyboard-response","448","1041322","0.0-19.0-2.6","c2_test",",","","","",","
"542.7249998319894","<p style=""color:white;""> Next Figure: Male or Female? </p>","188","html-keyboard-response","449","1041867","0.0-19.0-0.7","prediction","","","",",",""
"null","<div style=""color:white; font-size:60px;"">+</div>","null","html-keyboard-response","450","1042874","0.0-19.0-1.7","fixation","","","","",""
"669.4750001188368","Stimuli/Hangul_M23.bmp","190","image-keyboard-response","451","1043546","0.0-19.0-2.7","c2_test",",","","","","."
"694.3900000769645","<p style=""color:white;""> Next Figure: Male or Female? </p>","188","html-keyboard-response","452","1044242","0.0-19.0-0.8","prediction","","","",",",""
"null","<div style=""color:white; font-size:60px;"">+</div>","null","html-keyboard-response","453","1045252","0.0-19.0-1.8","fixation","","","","",""
"522.0200000330806","Stimuli/Hangul_F12.bmp","188","image-keyboard-response","454","1045776","0.0-19.0-2.8","c2_test",".","","","",","
"451.3850000221282","<p style=""color:white;""> Next Figure: Male or Female? </p>","188","html-keyboard-response","455","1046230","0.0-19.0-0.9","prediction","","","",",",""
"null","<div style=""color:white; font-size:60px;"">+</div>","null","html-keyboard-response","456","1047236","0.0-19.0-1.9","fixation","","","","",""
"545.05499987863","Stimuli/Hangul_F23.bmp","188","image-keyboard-response","457","1047783","0.0-19.0-2.9","c2_test",".","","","",","
"421.34499992243946","<p style=""color:white;""> Next Figure: Male or Female? </p>","188","html-keyboard-response","458","1048207","0.0-19.0-0.10","prediction","","","",",",""
"null","<div style=""color:white; font-size:60px;"">+</div>","null","html-keyboard-response","459","1049217","0.0-19.0-1.10","fixation","","","","",""
"479.1900001000613","Stimuli/Hangul_F13.bmp","188","image-keyboard-response","460","1049698","0.0-19.0-2.10","c2_test",".","","","",","
"461.76999993622303","<p style=""color:white;""> Next Figure: Male or Female? </p>","188","html-keyboard-response","461","1050163","0.0-19.0-0.11","prediction","","","",",",""
"null","<div style=""color:white; font-size:60px;"">+</div>","null","html-keyboard-response","462","1051167","0.0-19.0-1.11","fixation","","","","",""
"488.0650001578033","Stimuli/Hangul_F7.bmp","188","image-keyboard-response","463","1051658","0.0-19.0-2.11","c2_test",".","","","",","
"391.0299998242408","<p style=""color:white;""> Next Figure: Male or Female? </p>","188","html-keyboard-response","464","1052051","0.0-19.0-0.12","prediction","","","",",",""
"null","<div style=""color:white; font-size:60px;"">+</div>","null","html-keyboard-response","465","1053054","0.0-19.0-1.12","fixation","","","","",""
"562.7749999985099","Stimuli/Hangul_M8.bmp","188","image-keyboard-response","466","1053619","0.0-19.0-2.12","c2_test",",","","","",","
"595.2149999793619","<p style=""color:white;""> Next Figure: Male or Female? </p>","188","html-keyboard-response","467","1054216","0.0-19.0-0.13","prediction","","","",",",""
"null","<div style=""color:white; font-size:60px;"">+</div>","null","html-keyboard-response","468","1055220","0.0-19.0-1.13","fixation","","","","",""
"570.7249999977648","Stimuli/Hangul_M13.bmp","188","image-keyboard-response","469","1055794","0.0-19.0-2.13","c2_test",",","","","",","
"369.8449998628348","<p style=""color:white;""> Next Figure: Male or Female? </p>","188","html-keyboard-response","470","1056171","0.0-19.0-0.14","prediction","","","",",",""
"null","<div style=""color:white; font-size:60px;"">+</div>","null","html-keyboard-response","471","1057174","0.0-19.0-1.14","fixation","","","","",""
"731.1550001613796","Stimuli/Hangul_M1.bmp","190","image-keyboard-response","472","1057907","0.0-19.0-2.14","c2_test",",","","","","."
"490.2600001078099","<p style=""color:white;""> Next Figure: Male or Female? </p>","188","html-keyboard-response","473","1058400","0.0-19.0-0.15","prediction","","","",",",""
"null","<div style=""color:white; font-size:60px;"">+</div>","null","html-keyboard-response","474","1059404","0.0-19.0-1.15","fixation","","","","",""
"646.2650001049042","Stimuli/Hangul_M20.bmp","188","image-keyboard-response","475","1060053","0.0-19.0-2.15","c2_test",",","","","",","
"375.1000000629574","<p style=""color:white;""> Next Figure: Male or Female? </p>","188","html-keyboard-response","476","1060430","0.0-19.0-0.16","prediction","","","",",",""
"null","<div style=""color:white; font-size:60px;"">+</div>","null","html-keyboard-response","477","1061438","0.0-19.0-1.16","fixation","","","","",""
"478.57500007376075","Stimuli/Hangul_M15.bmp","188","image-keyboard-response","478","1061919","0.0-19.0-2.16","c2_test",",","","","",","
"349.2650000844151","<p style=""color:white;""> Next Figure: Male or Female? </p>","188","html-keyboard-response","479","1062271","0.0-19.0-0.17","prediction","","","",",",""
"null","<div style=""color:white; font-size:60px;"">+</div>","null","html-keyboard-response","480","1063280","0.0-19.0-1.17","fixation","","","","",""
"555.2900000475347","Stimuli/Hangul_F18.bmp","190","image-keyboard-response","481","1063838","0.0-19.0-2.17","c2_test",".","","","","."
"513.4550000075251","<p style=""color:white;""> Next Figure: Male or Female? </p>","190","html-keyboard-response","482","1064355","0.0-19.0-0.18","prediction","","","",".",""
"null","<div style=""color:white; font-size:60px;"">+</div>","null","html-keyboard-response","483","1065358","0.0-19.0-1.18","fixation","","","","",""
"550.9249998722225","Stimuli/Hangul_F6.bmp","188","image-keyboard-response","484","1065913","0.0-19.0-2.18","c2_test",".","","","",","
"402.3550001438707","<p style=""color:white;""> Next Figure: Male or Female? </p>","188","html-keyboard-response","485","1066317","0.0-19.0-0.19","prediction","","","",",",""
"null","<div style=""color:white; font-size:60px;"">+</div>","null","html-keyboard-response","486","1067322","0.0-19.0-1.19","fixation","","","","",""
"716.4300000295043","Stimuli/Hangul_F22.bmp","188","image-keyboard-response","487","1068041","0.0-19.0-2.19","c2_test",".","","","",","
"297.7549999486655","<p style=""color:white;""> Next Figure: Male or Female? </p>","188","html-keyboard-response","488","1068341","0.0-19.0-0.20","prediction","","","",",",""
"null","<div style=""color:white; font-size:60px;"">+</div>","null","html-keyboard-response","489","1069344","0.0-19.0-1.20","fixation","","","","",""
"468.2050000410527","Stimuli/Hangul_F8.bmp","190","image-keyboard-response","490","1069815","0.0-19.0-2.20","c2_test",".","","","","."
"574.06000001356","<p style=""color:white;""> Next Figure: Male or Female? </p>","190","html-keyboard-response","491","1070391","0.0-19.0-0.21","prediction","","","",".",""
"null","<div style=""color:white; font-size:60px;"">+</div>","null","html-keyboard-response","492","1071397","0.0-19.0-1.21","fixation","","","","",""
"440.23499987088144","Stimuli/Hangul_F2.bmp","188","image-keyboard-response","493","1071839","0.0-19.0-2.21","c2_test",".","","","",","
"482.9100000206381","<p style=""color:white;""> Next Figure: Male or Female? </p>","188","html-keyboard-response","494","1072326","0.0-19.0-0.22","prediction","","","",",",""
"null","<div style=""color:white; font-size:60px;"">+</div>","null","html-keyboard-response","495","1073329","0.0-19.0-1.22","fixation","","","","",""
"407.2149998974055","Stimuli/Hangul_M4.bmp","188","image-keyboard-response","496","1073739","0.0-19.0-2.22","c2_test",",","","","",","
"386.27499993890524","<p style=""color:white;""> Next Figure: Male or Female? </p>","188","html-keyboard-response","497","1074127","0.0-19.0-0.23","prediction","","","",",",""
"null","<div style=""color:white; font-size:60px;"">+</div>","null","html-keyboard-response","498","1075133","0.0-19.0-1.23","fixation","","","","",""
"505.6849999818951","Stimuli/Hangul_F14.bmp","190","image-keyboard-response","499","1075641","0.0-19.0-2.23","c2_test",".","","","","."
"514.6099999547005","<p style=""color:white;""> Next Figure: Male or Female? </p>","190","html-keyboard-response","500","1076159","0.0-19.0-0.24","prediction","","","",".",""
"null","<div style=""color:white; font-size:60px;"">+</div>","null","html-keyboard-response","501","1077165","0.0-19.0-1.24","fixation","","","","",""
"431.01499998010695","Stimuli/Hangul_F24.bmp","188","image-keyboard-response","502","1077598","0.0-19.0-2.24","c2_test",".","","","",","
"417.9749998729676","<p style=""color:white;""> Next Figure: Male or Female? </p>","188","html-keyboard-response","503","1078019","0.0-19.0-0.25","prediction","","","",",",""
"null","<div style=""color:white; font-size:60px;"">+</div>","null","html-keyboard-response","504","1079024","0.0-19.0-1.25","fixation","","","","",""
"373.3900000806898","Stimuli/Hangul_F19.bmp","188","image-keyboard-response","505","1079400","0.0-19.0-2.25","c2_test",".","","","",","
"371.62000010721385","<p style=""color:white;""> Next Figure: Male or Female? </p>","188","html-keyboard-response","506","1079779","0.0-19.0-0.26","prediction","","","",",",""
"null","<div style=""color:white; font-size:60px;"">+</div>","null","html-keyboard-response","507","1080786","0.0-19.0-1.26","fixation","","","","",""
"377.2599999792874","Stimuli/Hangul_M19.bmp","188","image-keyboard-response","508","1081165","0.0-19.0-2.26","c2_test",",","","","",","
"329.4999999925494","<p style=""color:white;""> Next Figure: Male or Female? </p>","188","html-keyboard-response","509","1081497","0.0-19.0-0.27","prediction","","","",",",""
"null","<div style=""color:white; font-size:60px;"">+</div>","null","html-keyboard-response","510","1082501","0.0-19.0-1.27","fixation","","","","",""
"401.01999999023974","Stimuli/Hangul_F16.bmp","188","image-keyboard-response","511","1082904","0.0-19.0-2.27","c2_test",".","","","",","
"278.33999996073544","<p style=""color:white;""> Next Figure: Male or Female? </p>","188","html-keyboard-response","512","1083185","0.0-19.0-0.28","prediction","","","",",",""
"null","<div style=""color:white; font-size:60px;"">+</div>","null","html-keyboard-response","513","1084188","0.0-19.0-1.28","fixation","","","","",""
"406.90999990329146","Stimuli/Hangul_M12.bmp","188","image-keyboard-response","514","1084597","0.0-19.0-2.28","c2_test",",","","","",","
"275.520000141114","<p style=""color:white;""> Next Figure: Male or Female? </p>","188","html-keyboard-response","515","1084875","0.0-19.0-0.29","prediction","","","",",",""
"null","<div style=""color:white; font-size:60px;"">+</div>","null","html-keyboard-response","516","1085880","0.0-19.0-1.29","fixation","","","","",""
"372.50999989919364","Stimuli/Hangul_M6.bmp","188","image-keyboard-response","517","1086256","0.0-19.0-2.29","c2_test",",","","","",","
"289.45000004023314","<p style=""color:white;""> Next Figure: Male or Female? </p>","188","html-keyboard-response","518","1086548","0.0-19.0-0.30","prediction","","","",",",""
"null","<div style=""color:white; font-size:60px;"">+</div>","null","html-keyboard-response","519","1087557","0.0-19.0-1.30","fixation","","","","",""
"377.22000014036894","Stimuli/Hangul_M16.bmp","188","image-keyboard-response","520","1087936","0.0-19.0-2.30","c2_test",",","","","",","
"249.33500005863607","<p style=""color:white;""> Next Figure: Male or Female? </p>","188","html-keyboard-response","521","1088188","0.0-19.0-0.31","prediction","","","",",",""
"null","<div style=""color:white; font-size:60px;"">+</div>","null","html-keyboard-response","522","1089193","0.0-19.0-1.31","fixation","","","","",""
"362.62000002898276","Stimuli/Hangul_M11.bmp","188","image-keyboard-response","523","1089557","0.0-19.0-2.31","c2_test",",","","","",","
"314.2849998548627","<p style=""color:white;""> Next Figure: Male or Female? </p>","188","html-keyboard-response","524","1089873","0.0-19.0-0.32","prediction","","","",",",""
"null","<div style=""color:white; font-size:60px;"">+</div>","null","html-keyboard-response","525","1090879","0.0-19.0-1.32","fixation","","","","",""
"490.1449999306351","Stimuli/Hangul_M7.bmp","188","image-keyboard-response","526","1091372","0.0-19.0-2.32","c2_test",",","","","",","
"258.2099998835474","<p style=""color:white;""> Next Figure: Male or Female? </p>","188","html-keyboard-response","527","1091632","0.0-19.0-0.33","prediction","","","",",",""
"null","<div style=""color:white; font-size:60px;"">+</div>","null","html-keyboard-response","528","1092639","0.0-19.0-1.33","fixation","","","","",""
"326.73000008799136","Stimuli/Hangul_F0.bmp","188","image-keyboard-response","529","1092969","0.0-19.0-2.33","c2_test",".","","","",","
"261.2149999476969","<p style=""color:white;""> Next Figure: Male or Female? </p>","188","html-keyboard-response","530","1093232","0.0-19.0-0.34","prediction","","","",",",""
"null","<div style=""color:white; font-size:60px;"">+</div>","null","html-keyboard-response","531","1094237","0.0-19.0-1.34","fixation","","","","",""
"373.6350000835955","Stimuli/Hangul_M10.bmp","188","image-keyboard-response","532","1094613","0.0-19.0-2.34","c2_test",",","","","",","
"250.2250000834465","<p style=""color:white;""> Next Figure: Male or Female? </p>","188","html-keyboard-response","533","1094865","0.0-19.0-0.35","prediction","","","",",",""
"null","<div style=""color:white; font-size:60px;"">+</div>","null","html-keyboard-response","534","1095872","0.0-19.0-1.35","fixation","","","","",""
"266.21500006876886","Stimuli/Hangul_F11.bmp","188","image-keyboard-response","535","1096140","0.0-19.0-2.35","c2_test",".","","","",","
"230.5900000501424","<p style=""color:white;""> Next Figure: Male or Female? </p>","188","html-keyboard-response","536","1096372","0.0-19.0-0.36","prediction","","","",",",""
"null","<div style=""color:white; font-size:60px;"">+</div>","null","html-keyboard-response","537","1097376","0.0-19.0-1.36","fixation","","","","",""
"274.02999997138977","Stimuli/Hangul_F3.bmp","188","image-keyboard-response","538","1097652","0.0-19.0-2.36","c2_test",".","","","",","
"234.50500005856156","<p style=""color:white;""> Next Figure: Male or Female? </p>","188","html-keyboard-response","539","1097889","0.0-19.0-0.37","prediction","","","",",",""
"null","<div style=""color:white; font-size:60px;"">+</div>","null","html-keyboard-response","540","1098892","0.0-19.0-1.37","fixation","","","","",""
"279.0700001642108","Stimuli/Hangul_M5.bmp","188","image-keyboard-response","541","1099174","0.0-19.0-2.37","c2_test",",","","","",","
"206.99000009335577","<p style=""color:white;""> Next Figure: Male or Female? </p>","188","html-keyboard-response","542","1099383","0.0-19.0-0.38","prediction","","","",",",""
"null","<div style=""color:white; font-size:60px;"">+</div>","null","html-keyboard-response","543","1100388","0.0-19.0-1.38","fixation","","","","",""
"329.2900000233203","Stimuli/Hangul_M17.bmp","188","image-keyboard-response","544","1100720","0.0-19.0-2.38","c2_test",",","","","",","
"188.1450000219047","<p style=""color:white;""> Next Figure: Male or Female? </p>","188","html-keyboard-response","545","1100911","0.0-19.0-0.39","prediction","","","",",",""
"null","<div style=""color:white; font-size:60px;"">+</div>","null","html-keyboard-response","546","1101916","0.0-19.0-1.39","fixation","","","","",""
"492.31499992311","Stimuli/Hangul_F15.bmp","188","image-keyboard-response","547","1102411","0.0-19.0-2.39","c2_test",".","","","",","
"363.225000211969","<p style=""color:white;""> Next Figure: Male or Female? </p>","190","html-keyboard-response","548","1102777","0.0-19.0-0.40","prediction","","","",".",""
"null","<div style=""color:white; font-size:60px;"">+</div>","null","html-keyboard-response","549","1103779","0.0-19.0-1.40","fixation","","","","",""
"346.5950000099838","Stimuli/Hangul_M14.bmp","190","image-keyboard-response","550","1104128","0.0-19.0-2.40","c2_test",",","","","","."
"601.3099998235703","<p style=""color:white;""> Next Figure: Male or Female? </p>","190","html-keyboard-response","551","1104731","0.0-19.0-0.41","prediction","","","",".",""
"null","<div style=""color:white; font-size:60px;"">+</div>","null","html-keyboard-response","552","1105738","0.0-19.0-1.41","fixation","","","","",""
"519.8099999688566","Stimuli/Hangul_F1.bmp","190","image-keyboard-response","553","1106260","0.0-19.0-2.41","c2_test",".","","","","."
"528.3599998801947","<p style=""color:white;""> Next Figure: Male or Female? </p>","190","html-keyboard-response","554","1106791","0.0-19.0-0.42","prediction","","","",".",""
"null","<div style=""color:white; font-size:60px;"">+</div>","null","html-keyboard-response","555","1107799","0.0-19.0-1.42","fixation","","","","",""
"426.39999999664724","Stimuli/Hangul_M2.bmp","188","image-keyboard-response","556","1108228","0.0-19.0-2.42","c2_test",",","","","",","
"340.1300001423806","<p style=""color:white;""> Next Figure: Male or Female? </p>","188","html-keyboard-response","557","1108571","0.0-19.0-0.43","prediction","","","",",",""
"null","<div style=""color:white; font-size:60px;"">+</div>","null","html-keyboard-response","558","1109578","0.0-19.0-1.43","fixation","","","","",""
"434.42000006325543","Stimuli/Hangul_F5.bmp","188","image-keyboard-response","559","1110015","0.0-19.0-2.43","c2_test",".","","","",","
"212.05500001087785","<p style=""color:white;""> Next Figure: Male or Female? </p>","188","html-keyboard-response","560","1110229","0.0-19.0-0.44","prediction","","","",",",""
"null","<div style=""color:white; font-size:60px;"">+</div>","null","html-keyboard-response","561","1111239","0.0-19.0-1.44","fixation","","","","",""
"420.515000121668","Stimuli/Hangul_F9.bmp","188","image-keyboard-response","562","1111661","0.0-19.0-2.44","c2_test",".","","","",","
"226.8550000153482","<p style=""color:white;""> Next Figure: Male or Female? </p>","188","html-keyboard-response","563","1111891","0.0-19.0-0.45","prediction","","","",",",""
"null","<div style=""color:white; font-size:60px;"">+</div>","null","html-keyboard-response","564","1112893","0.0-19.0-1.45","fixation","","","","",""
"515.5750000849366","Stimuli/Hangul_F4.bmp","190","image-keyboard-response","565","1113412","0.0-19.0-2.45","c2_test",".","","","","."
"343.69500004686415","<p style=""color:white;""> Next Figure: Male or Female? </p>","190","html-keyboard-response","566","1113758","0.0-19.0-0.46","prediction","","","",".",""
"null","<div style=""color:white; font-size:60px;"">+</div>","null","html-keyboard-response","567","1114762","0.0-19.0-1.46","fixation","","","","",""
"738.6549999937415","Stimuli/Hangul_M0.bmp","188","image-keyboard-response","568","1115503","0.0-19.0-2.46","c2_test",",","","","",","
"709.7700000740588","<p style=""color:white;""> Next Figure: Male or Female? </p>","188","html-keyboard-response","569","1116216","0.0-19.0-0.47","prediction","","","",",",""
"null","<div style=""color:white; font-size:60px;"">+</div>","null","html-keyboard-response","570","1117224","0.0-19.0-1.47","fixation","","","","",""
"519.994999980554","Stimuli/Hangul_M18.bmp","188","image-keyboard-response","571","1117746","0.0-19.0-2.47","c2_test",",","","","",","
"662.6200000755489","<p style=""color:white;""> Next Figure: Male or Female? </p>","188","html-keyboard-response","572","1118411","0.0-19.0-0.48","prediction","","","",",",""
"null","<div style=""color:white; font-size:60px;"">+</div>","null","html-keyboard-response","573","1119415","0.0-19.0-1.48","fixation","","","","",""
"497.4549999460578","Stimuli/Hangul_F21.bmp","190","image-keyboard-response","574","1119915","0.0-19.0-2.48","c2_test",".","","","","."
"561.4049998112023","<p style=""color:white;""> Next Figure: Male or Female? </p>","190","html-keyboard-response","575","1120479","0.0-19.0-0.49","prediction","","","",".",""
"null","<div style=""color:white; font-size:60px;"">+</div>","null","html-keyboard-response","576","1121486","0.0-19.0-1.49","fixation","","","","",""
"655.4799999576062","Stimuli/Hangul_F17.bmp","190","image-keyboard-response","577","1122144","0.0-19.0-2.49","c2_test",".","","","","."
"1442.9699999745935","<p style=""color:white;"">Good job, block 1 complete! Please take a moment to rest.</p> <p style=""color:white;"">When you are ready to continue with block 2 of 4, press the space bar.</p> ","32","html-keyboard-response","578","1123592","0.0-20.0","","","","","",""
"382.59000005200505","<p style=""color:white;""> Next Figure: Male or Female? </p>","188","html-keyboard-response","579","1125985","0.0-21.0-0.0","prediction","","","",",",""
"null","<div style=""color:white; font-size:60px;"">+</div>","null","html-keyboard-response","580","1126991","0.0-21.0-1.0","fixation","","","","",""
"588.2250000722706","Stimuli/Hangul_M42.bmp","188","image-keyboard-response","581","1127583","0.0-21.0-2.0","c2_test",",","","","",","
"310.92000007629395","<p style=""color:white;""> Next Figure: Male or Female? </p>","188","html-keyboard-response","582","1127896","0.0-21.0-0.1","prediction","","","",",",""
"null","<div style=""color:white; font-size:60px;"">+</div>","null","html-keyboard-response","583","1128902","0.0-21.0-1.1","fixation","","","","",""
"359.1800001449883","Stimuli/Hangul_M30.bmp","188","image-keyboard-response","584","1129263","0.0-21.0-2.1","c2_test",",","","","",","
"308.5650000721216","<p style=""color:white;""> Next Figure: Male or Female? </p>","188","html-keyboard-response","585","1129574","0.0-21.0-0.2","prediction","","","",",",""
"null","<div style=""color:white; font-size:60px;"">+</div>","null","html-keyboard-response","586","1130582","0.0-21.0-1.2","fixation","","","","",""
"482.87000018171966","Stimuli/Hangul_F35.bmp","190","image-keyboard-response","587","1131068","0.0-21.0-2.2","c2_test",".","","","","."
"495.1500000897795","<p style=""color:white;""> Next Figure: Male or Female? </p>","190","html-keyboard-response","588","1131565","0.0-21.0-0.3","prediction","","","",".",""
"null","<div style=""color:white; font-size:60px;"">+</div>","null","html-keyboard-response","589","1132572","0.0-21.0-1.3","fixation","","","","",""
"860.7799999881536","Stimuli/Hangul_M41.bmp","190","image-keyboard-response","590","1133435","0.0-21.0-2.3","c2_test",",","","","","."
"415.24500004015863","<p style=""color:white;""> Next Figure: Male or Female? </p>","190","html-keyboard-response","591","1133854","0.0-21.0-0.4","prediction","","","",".",""
"null","<div style=""color:white; font-size:60px;"">+</div>","null","html-keyboard-response","592","1134860","0.0-21.0-1.4","fixation","","","","",""
"422.23999998532236","Stimuli/Hangul_F27.bmp","188","image-keyboard-response","593","1135285","0.0-21.0-2.4","c2_test",".","","","",","
"367.8900001104921","<p style=""color:white;""> Next Figure: Male or Female? </p>","188","html-keyboard-response","594","1135656","0.0-21.0-0.5","prediction","","","",",",""
"null","<div style=""color:white; font-size:60px;"">+</div>","null","html-keyboard-response","595","1136662","0.0-21.0-1.5","fixation","","","","",""
"468.0200000293553","Stimuli/Hangul_F34.bmp","190","image-keyboard-response","596","1137132","0.0-21.0-2.5","c2_test",".","","","","."
"558.0599999520928","<p style=""color:white;""> Next Figure: Male or Female? </p>","190","html-keyboard-response","597","1137694","0.0-21.0-0.6","prediction","","","",".",""
"null","<div style=""color:white; font-size:60px;"">+</div>","null","html-keyboard-response","598","1138702","0.0-21.0-1.6","fixation","","","","",""
"475.43500014580786","Stimuli/Hangul_M48.bmp","188","image-keyboard-response","599","1139180","0.0-21.0-2.6","c2_test",",","","","",","
"332.3350001592189","<p style=""color:white;""> Next Figure: Male or Female? </p>","188","html-keyboard-response","600","1139516","0.0-21.0-0.7","prediction","","","",",",""
"null","<div style=""color:white; font-size:60px;"">+</div>","null","html-keyboard-response","601","1140521","0.0-21.0-1.7","fixation","","","","",""
"450.79999999143183","Stimuli/Hangul_M38.bmp","188","image-keyboard-response","602","1140975","0.0-21.0-2.7","c2_test",",","","","",","
"317.1599998604506","<p style=""color:white;""> Next Figure: Male or Female? </p>","188","html-keyboard-response","603","1141295","0.0-21.0-0.8","prediction","","","",",",""
"null","<div style=""color:white; font-size:60px;"">+</div>","null","html-keyboard-response","604","1142304","0.0-21.0-1.8","fixation","","","","",""
"432.825000025332","Stimuli/Hangul_F46.bmp","188","image-keyboard-response","605","1142739","0.0-21.0-2.8","c2_test",".","","","",","
"305.4649999830872","<p style=""color:white;""> Next Figure: Male or Female? </p>","188","html-keyboard-response","606","1143047","0.0-21.0-0.9","prediction","","","",",",""
"null","<div style=""color:white; font-size:60px;"">+</div>","null","html-keyboard-response","607","1144053","0.0-21.0-1.9","fixation","","","","",""
"406.84000006876886","Stimuli/Hangul_F47.bmp","190","image-keyboard-response","608","1144462","0.0-21.0-2.9","c2_test",".","","","","."
"630.0800000317395","<p style=""color:white;""> Next Figure: Male or Female? </p>","190","html-keyboard-response","609","1145095","0.0-21.0-0.10","prediction","","","",".",""
"null","<div style=""color:white; font-size:60px;"">+</div>","null","html-keyboard-response","610","1146100","0.0-21.0-1.10","fixation","","","","",""
"635.2249998599291","Stimuli/Hangul_F48.bmp","188","image-keyboard-response","611","1146736","0.0-21.0-2.10","c2_test",".","","","",","
"600.014999974519","<p style=""color:white;""> Next Figure: Male or Female? </p>","188","html-keyboard-response","612","1147338","0.0-21.0-0.11","prediction","","","",",",""
"null","<div style=""color:white; font-size:60px;"">+</div>","null","html-keyboard-response","613","1148342","0.0-21.0-1.11","fixation","","","","",""
"460.4599999729544","Stimuli/Hangul_M43.bmp","188","image-keyboard-response","614","1148805","0.0-21.0-2.11","c2_test",",","","","",","
"780.4250000044703","<p style=""color:white;""> Next Figure: Male or Female? </p>","188","html-keyboard-response","615","1149587","0.0-21.0-0.12","prediction","","","",",",""
"null","<div style=""color:white; font-size:60px;"">+</div>","null","html-keyboard-response","616","1150593","0.0-21.0-1.12","fixation","","","","",""
"433.16500005312264","Stimuli/Hangul_M44.bmp","188","image-keyboard-response","617","1151030","0.0-21.0-2.12","c2_test",",","","","",","
"311.5550000220537","<p style=""color:white;""> Next Figure: Male or Female? </p>","188","html-keyboard-response","618","1151344","0.0-21.0-0.13","prediction","","","",",",""
"null","<div style=""color:white; font-size:60px;"">+</div>","null","html-keyboard-response","619","1152349","0.0-21.0-1.13","fixation","","","","",""
"507.9799999948591","Stimuli/Hangul_F29.bmp","190","image-keyboard-response","620","1152859","0.0-21.0-2.13","c2_test",".","","","","."
"543.6899999622256","<p style=""color:white;""> Next Figure: Male or Female? </p>","190","html-keyboard-response","621","1153406","0.0-21.0-0.14","prediction","","","",".",""
"null","<div style=""color:white; font-size:60px;"">+</div>","null","html-keyboard-response","622","1154411","0.0-21.0-1.14","fixation","","","","",""
"547.054999973625","Stimuli/Hangul_F28.bmp","188","image-keyboard-response","623","1154960","0.0-21.0-2.14","c2_test",".","","","",","
"327.50000013038516","<p style=""color:white;""> Next Figure: Male or Female? </p>","188","html-keyboard-response","624","1155290","0.0-21.0-0.15","prediction","","","",",",""
"null","<div style=""color:white; font-size:60px;"">+</div>","null","html-keyboard-response","625","1156297","0.0-21.0-1.15","fixation","","","","",""
"425.844999961555","Stimuli/Hangul_M33.bmp","188","image-keyboard-response","626","1156725","0.0-21.0-2.15","c2_test",",","","","",","
"297.2299999091774","<p style=""color:white;""> Next Figure: Male or Female? </p>","188","html-keyboard-response","627","1157025","0.0-21.0-0.16","prediction","","","",",",""
"null","<div style=""color:white; font-size:60px;"">+</div>","null","html-keyboard-response","628","1158033","0.0-21.0-1.16","fixation","","","","",""
"401.3650000561029","Stimuli/Hangul_M26.bmp","188","image-keyboard-response","629","1158437","0.0-21.0-2.16","c2_test",",","","","",","
"282.8550001140684","<p style=""color:white;""> Next Figure: Male or Female? </p>","188","html-keyboard-response","630","1158722","0.0-21.0-0.17","prediction","","","",",",""
"null","<div style=""color:white; font-size:60px;"">+</div>","null","html-keyboard-response","631","1159729","0.0-21.0-1.17","fixation","","","","",""
"359.70499995164573","Stimuli/Hangul_F40.bmp","188","image-keyboard-response","632","1160091","0.0-21.0-2.17","c2_test",".","","","",","
"265.3749999590218","<p style=""color:white;""> Next Figure: Male or Female? </p>","188","html-keyboard-response","633","1160359","0.0-21.0-0.18","prediction","","","",",",""
"null","<div style=""color:white; font-size:60px;"">+</div>","null","html-keyboard-response","634","1161363","0.0-21.0-1.18","fixation","","","","",""
"400.28000017628074","Stimuli/Hangul_M40.bmp","188","image-keyboard-response","635","1161766","0.0-21.0-2.18","c2_test",",","","","",","
"308.39999997988343","<p style=""color:white;""> Next Figure: Male or Female? </p>","188","html-keyboard-response","636","1162078","0.0-21.0-0.19","prediction","","","",",",""
"null","<div style=""color:white; font-size:60px;"">+</div>","null","html-keyboard-response","637","1163084","0.0-21.0-1.19","fixation","","","","",""
"455.0499999895692","Stimuli/Hangul_M32.bmp","188","image-keyboard-response","638","1163542","0.0-21.0-2.19","c2_test",",","","","",","
"263.09000002220273","<p style=""color:white;""> Next Figure: Male or Female? </p>","188","html-keyboard-response","639","1163807","0.0-21.0-0.20","prediction","","","",",",""
"null","<div style=""color:white; font-size:60px;"">+</div>","null","html-keyboard-response","640","1164813","0.0-21.0-1.20","fixation","","","","",""
"516.4749999530613","Stimuli/Hangul_F43.bmp","188","image-keyboard-response","641","1165331","0.0-21.0-2.20","c2_test",".","","","",","
"297.23000014200807","<p style=""color:white;""> Next Figure: Male or Female? </p>","188","html-keyboard-response","642","1165631","0.0-21.0-0.21","prediction","","","",",",""
"null","<div style=""color:white; font-size:60px;"">+</div>","null","html-keyboard-response","643","1166636","0.0-21.0-1.21","fixation","","","","",""
"473.7750000786036","Stimuli/Hangul_F45.bmp","188","image-keyboard-response","644","1167112","0.0-21.0-2.21","c2_test",".","","","",","
"319.1150000784546","<p style=""color:white;""> Next Figure: Male or Female? </p>","188","html-keyboard-response","645","1167433","0.0-21.0-0.22","prediction","","","",",",""
"null","<div style=""color:white; font-size:60px;"">+</div>","null","html-keyboard-response","646","1168437","0.0-21.0-1.22","fixation","","","","",""
"412.80000004917383","Stimuli/Hangul_M46.bmp","188","image-keyboard-response","647","1168852","0.0-21.0-2.22","c2_test",",","","","",","
"268.974999897182","<p style=""color:white;""> Next Figure: Male or Female? </p>","188","html-keyboard-response","648","1169125","0.0-21.0-0.23","prediction","","","",",",""
"null","<div style=""color:white; font-size:60px;"">+</div>","null","html-keyboard-response","649","1170130","0.0-21.0-1.23","fixation","","","","",""
"531.2850000336766","Stimuli/Hangul_F33.bmp","190","image-keyboard-response","650","1170664","0.0-21.0-2.23","c2_test",".","","","","."
"389.7700000088662","<p style=""color:white;""> Next Figure: Male or Female? </p>","190","html-keyboard-response","651","1171058","0.0-21.0-0.24","prediction","","","",".",""
"null","<div style=""color:white; font-size:60px;"">+</div>","null","html-keyboard-response","652","1172065","0.0-21.0-1.24","fixation","","","","",""
"385.22000005468726","Stimuli/Hangul_F32.bmp","188","image-keyboard-response","653","1172454","0.0-21.0-2.24","c2_test",".","","","",","
"750.1199999824166","<p style=""color:white;""> Next Figure: Male or Female? </p>","188","html-keyboard-response","654","1173207","0.0-21.0-0.25","prediction","","","",",",""
"null","<div style=""color:white; font-size:60px;"">+</div>","null","html-keyboard-response","655","1174218","0.0-21.0-1.25","fixation","","","","",""
