"rt","stimulus","key_press","trial_type","trial_index","time_elapsed","internal_node_id","test_part","correct_response","C1_train","C1","A","C2"
"2100.395000015851","<p style=""color:white;"">Welcome to the experiment! Press any key to begin.</p>","32","html-keyboard-response","0","2120","0.0-0.0","","","","","",""
"96928.67500003194","<p style=""color:white;"">You will see a series of abstract figures. They are adaptations of signs in the Korean alphabet, but that is not important for this study. </p><p style=""color:white;"">Abstract figures sometimes have a more masculine or feminine shape. Here, each figure has already been assigned a gender as <q>Male</q> or <q>Female</q> by a panel of respondents in a pilot study. The respondents were not given specific instructions on how to do this, but were only told to use their intuition and to take into account the entire configuration of the stimulus. </p><p style=""color:white;"">Your task now is to guess the assigned gender of each figure. Please press the corresponding response keys to indicate your choice: </p><p style=""color:white;""> Male &#8594 <q>,</q> (comma)</p><p style=""color:white;""> Female &#8594 <q>.</q> (period)</p><p style=""color:white;"">Press either response keys to continue.</p>","188","html-keyboard-response","1","99054","0.0-1.0","","","","","",""
"7940.694999997504","<p style=""color:white;"">Your choice is correct if it matches the gender assigned by the majority of respondents in the pilot study.</p> <p style=""color:white;"">For each correct choice you will receive 2 cents. There will be 200 trials divided into 4 blocks of 50 trials. You will be able to take a break after every 50 trials.</p> <p style=""color:white;"">Press the space bar to continue.</p>","32","html-keyboard-response","2","106998","0.0-2.0","","","","","",""
"3569.6699999971315","<p style=""color:white;"">Here are some examples.</p> <p style=""color:white;"">For each, guess whether the assigned figure is male-like or female-like and indicate your choice by pressing either response keys.</p> <p style=""color:white;"">Press the space bar to continue.</p>","32","html-keyboard-response","3","110570","0.0-3.0","","","","","",""
"null","<div style=""color:white; font-size:60px;"">+</div>","null","html-keyboard-response","4","113578","0.0-4.0-0.0","fixation","","","","",""
"3220.614999998361","Stimuli/Hangul_E1.bmp","188","image-keyboard-response","5","116802","0.0-4.0-1.0","c1_train",",",",","","",""
"null","<div style=""color:white; font-size:60px;"">+</div>","null","html-keyboard-response","6","117806","0.0-4.0-0.1","fixation","","","","",""
"2386.5550000336953","Stimuli/Hangul_E2.bmp","190","image-keyboard-response","7","120196","0.0-4.0-1.1","c1_train",".",".","","",""
"null","<div style=""color:white; font-size:60px;"">+</div>","null","html-keyboard-response","8","121201","0.0-4.0-0.2","fixation","","","","",""
"2308.145000017248","Stimuli/Hangul_E0.bmp","188","image-keyboard-response","9","123515","0.0-4.0-1.2","c1_train",",",",","","",""
"2131.160000048112","<p style=""color:white;"">Let us begin! Press the space bar when you are ready to start block 1 of 4.</p> ","32","html-keyboard-response","10","125649","0.0-5.0","","","","","",""
"null","<div style=""color:white; font-size:60px;"">+</div>","null","html-keyboard-response","11","128659","0.0-6.0-0.0","fixation","","","","",""
"2092.754999990575","Stimuli/Hangul_F20.bmp","188","image-keyboard-response","12","130762","0.0-6.0-1.0","test",".","",",","",""
"null","<div style=""color:white; font-size:60px;"">+</div>","null","html-keyboard-response","13","131766","0.0-6.0-0.1","fixation","","","","",""
"2219.275000039488","Stimuli/Hangul_M19.bmp","188","image-keyboard-response","14","133986","0.0-6.0-1.1","test",",","",",","",""
"null","<div style=""color:white; font-size:60px;"">+</div>","null","html-keyboard-response","15","134991","0.0-6.0-0.2","fixation","","","","",""
"2054.2099999729544","Stimuli/Hangul_F13.bmp","188","image-keyboard-response","16","137055","0.0-6.0-1.2","test",".","",",","",""
"null","<div style=""color:white; font-size:60px;"">+</div>","null","html-keyboard-response","17","138060","0.0-6.0-0.3","fixation","","","","",""
"2083.7000000174157","Stimuli/Hangul_F19.bmp","190","image-keyboard-response","18","140147","0.0-6.0-1.3","test",".","",".","",""
"null","<div style=""color:white; font-size:60px;"">+</div>","null","html-keyboard-response","19","141152","0.0-6.0-0.4","fixation","","","","",""
"2126.0699999984354","Stimuli/Hangul_M0.bmp","190","image-keyboard-response","20","143285","0.0-6.0-1.4","test",",","",".","",""
"null","<div style=""color:white; font-size:60px;"">+</div>","null","html-keyboard-response","21","144289","0.0-6.0-0.5","fixation","","","","",""
"2335.6999999959953","Stimuli/Hangul_M1.bmp","190","image-keyboard-response","22","146628","0.0-6.0-1.5","test",",","",".","",""
"null","<div style=""color:white; font-size:60px;"">+</div>","null","html-keyboard-response","23","147632","0.0-6.0-0.6","fixation","","","","",""
"1775.3699999884702","Stimuli/Hangul_F9.bmp","188","image-keyboard-response","24","149411","0.0-6.0-1.6","test",".","",",","",""
"null","<div style=""color:white; font-size:60px;"">+</div>","null","html-keyboard-response","25","150416","0.0-6.0-0.7","fixation","","","","",""
"1955.1249999785796","Stimuli/Hangul_F23.bmp","188","image-keyboard-response","26","152377","0.0-6.0-1.7","test",".","",",","",""
"null","<div style=""color:white; font-size:60px;"">+</div>","null","html-keyboard-response","27","153379","0.0-6.0-0.8","fixation","","","","",""
"1539.8900000145659","Stimuli/Hangul_M9.bmp","190","image-keyboard-response","28","154922","0.0-6.0-1.8","test",",","",".","",""
"null","<div style=""color:white; font-size:60px;"">+</div>","null","html-keyboard-response","29","155925","0.0-6.0-0.9","fixation","","","","",""
"1840.13500000583","Stimuli/Hangul_F16.bmp","190","image-keyboard-response","30","157767","0.0-6.0-1.9","test",".","",".","",""
"null","<div style=""color:white; font-size:60px;"">+</div>","null","html-keyboard-response","31","158771","0.0-6.0-0.10","fixation","","","","",""
"1775.8449999964796","Stimuli/Hangul_M17.bmp","188","image-keyboard-response","32","160551","0.0-6.0-1.10","test",",","",",","",""
"null","<div style=""color:white; font-size:60px;"">+</div>","null","html-keyboard-response","33","161555","0.0-6.0-0.11","fixation","","","","",""
"1831.3249999773689","Stimuli/Hangul_F6.bmp","188","image-keyboard-response","34","163388","0.0-6.0-1.11","test",".","",",","",""
"null","<div style=""color:white; font-size:60px;"">+</div>","null","html-keyboard-response","35","164391","0.0-6.0-0.12","fixation","","","","",""
"1842.9050000268035","Stimuli/Hangul_M14.bmp","188","image-keyboard-response","36","166237","0.0-6.0-1.12","test",",","",",","",""
"null","<div style=""color:white; font-size:60px;"">+</div>","null","html-keyboard-response","37","167242","0.0-6.0-0.13","fixation","","","","",""
"1729.749999998603","Stimuli/Hangul_M11.bmp","188","image-keyboard-response","38","168982","0.0-6.0-1.13","test",",","",",","",""
"null","<div style=""color:white; font-size:60px;"">+</div>","null","html-keyboard-response","39","169986","0.0-6.0-0.14","fixation","","","","",""
"2063.460000033956","Stimuli/Hangul_M8.bmp","190","image-keyboard-response","40","172051","0.0-6.0-1.14","test",",","",".","",""
"null","<div style=""color:white; font-size:60px;"">+</div>","null","html-keyboard-response","41","173056","0.0-6.0-0.15","fixation","","","","",""
"2015.2100000414066","Stimuli/Hangul_F0.bmp","188","image-keyboard-response","42","175074","0.0-6.0-1.15","test",".","",",","",""
"null","<div style=""color:white; font-size:60px;"">+</div>","null","html-keyboard-response","43","176078","0.0-6.0-0.16","fixation","","","","",""
"1970.2249999972992","Stimuli/Hangul_F8.bmp","188","image-keyboard-response","44","178050","0.0-6.0-1.16","test",".","",",","",""
"null","<div style=""color:white; font-size:60px;"">+</div>","null","html-keyboard-response","45","179054","0.0-6.0-0.17","fixation","","","","",""
"1823.984999966342","Stimuli/Hangul_F12.bmp","188","image-keyboard-response","46","180885","0.0-6.0-1.17","test",".","",",","",""
"null","<div style=""color:white; font-size:60px;"">+</div>","null","html-keyboard-response","47","181887","0.0-6.0-0.18","fixation","","","","",""
"2168.8800000119954","Stimuli/Hangul_M12.bmp","188","image-keyboard-response","48","184058","0.0-6.0-1.18","test",",","",",","",""
"null","<div style=""color:white; font-size:60px;"">+</div>","null","html-keyboard-response","49","185061","0.0-6.0-0.19","fixation","","","","",""
"1835.3200000128709","Stimuli/Hangul_F1.bmp","190","image-keyboard-response","50","186906","0.0-6.0-1.19","test",".","",".","",""
"null","<div style=""color:white; font-size:60px;"">+</div>","null","html-keyboard-response","51","187916","0.0-6.0-0.20","fixation","","","","",""
"2379.995000024792","Stimuli/Hangul_M3.bmp","188","image-keyboard-response","52","190298","0.0-6.0-1.20","test",",","",",","",""
"null","<div style=""color:white; font-size:60px;"">+</div>","null","html-keyboard-response","53","191303","0.0-6.0-0.21","fixation","","","","",""
"1942.9949999903329","Stimuli/Hangul_F22.bmp","188","image-keyboard-response","54","193252","0.0-6.0-1.21","test",".","",",","",""
"null","<div style=""color:white; font-size:60px;"">+</div>","null","html-keyboard-response","55","194255","0.0-6.0-0.22","fixation","","","","",""
"2062.8999999607913","Stimuli/Hangul_M5.bmp","190","image-keyboard-response","56","196325","0.0-6.0-1.22","test",",","",".","",""
"null","<div style=""color:white; font-size:60px;"">+</div>","null","html-keyboard-response","57","197330","0.0-6.0-0.23","fixation","","","","",""
"1707.5399999739602","Stimuli/Hangul_F24.bmp","188","image-keyboard-response","58","199043","0.0-6.0-1.23","test",".","",",","",""
"null","<div style=""color:white; font-size:60px;"">+</div>","null","html-keyboard-response","59","200046","0.0-6.0-0.24","fixation","","","","",""
"2218.6149999615736","Stimuli/Hangul_M15.bmp","188","image-keyboard-response","60","202267","0.0-6.0-1.24","test",",","",",","",""
"null","<div style=""color:white; font-size:60px;"">+</div>","null","html-keyboard-response","61","203271","0.0-6.0-0.25","fixation","","","","",""
"2121.994999994058","Stimuli/Hangul_M23.bmp","188","image-keyboard-response","62","205396","0.0-6.0-1.25","test",",","",",","",""
"null","<div style=""color:white; font-size:60px;"">+</div>","null","html-keyboard-response","63","206400","0.0-6.0-0.26","fixation","","","","",""
"2143.2650000206195","Stimuli/Hangul_M20.bmp","188","image-keyboard-response","64","208545","0.0-6.0-1.26","test",",","",",","",""
"null","<div style=""color:white; font-size:60px;"">+</div>","null","html-keyboard-response","65","209549","0.0-6.0-0.27","fixation","","","","",""
"2105.730000010226","Stimuli/Hangul_F10.bmp","190","image-keyboard-response","66","211658","0.0-6.0-1.27","test",".","",".","",""
"null","<div style=""color:white; font-size:60px;"">+</div>","null","html-keyboard-response","67","212662","0.0-6.0-0.28","fixation","","","","",""
"1769.1650000051595","Stimuli/Hangul_M24.bmp","188","image-keyboard-response","68","214434","0.0-6.0-1.28","test",",","",",","",""
"null","<div style=""color:white; font-size:60px;"">+</div>","null","html-keyboard-response","69","215441","0.0-6.0-0.29","fixation","","","","",""
"1972.1750000026077","Stimuli/Hangul_M16.bmp","188","image-keyboard-response","70","217419","0.0-6.0-1.29","test",",","",",","",""
"null","<div style=""color:white; font-size:60px;"">+</div>","null","html-keyboard-response","71","218424","0.0-6.0-0.30","fixation","","","","",""
"1801.134999957867","Stimuli/Hangul_M18.bmp","188","image-keyboard-response","72","220227","0.0-6.0-1.30","test",",","",",","",""
"null","<div style=""color:white; font-size:60px;"">+</div>","null","html-keyboard-response","73","221236","0.0-6.0-0.31","fixation","","","","",""
"2095.1350000104867","Stimuli/Hangul_F14.bmp","190","image-keyboard-response","74","223338","0.0-6.0-1.31","test",".","",".","",""
"null","<div style=""color:white; font-size:60px;"">+</div>","null","html-keyboard-response","75","224340","0.0-6.0-0.32","fixation","","","","",""
"1869.1749999998137","Stimuli/Hangul_F7.bmp","190","image-keyboard-response","76","226212","0.0-6.0-1.32","test",".","",".","",""
"null","<div style=""color:white; font-size:60px;"">+</div>","null","html-keyboard-response","77","227216","0.0-6.0-0.33","fixation","","","","",""
"1687.709999969229","Stimuli/Hangul_F17.bmp","190","image-keyboard-response","78","228908","0.0-6.0-1.33","test",".","",".","",""
"null","<div style=""color:white; font-size:60px;"">+</div>","null","html-keyboard-response","79","229910","0.0-6.0-0.34","fixation","","","","",""
"2058.294999995269","Stimuli/Hangul_F3.bmp","188","image-keyboard-response","80","231969","0.0-6.0-1.34","test",".","",",","",""
"null","<div style=""color:white; font-size:60px;"">+</div>","null","html-keyboard-response","81","232977","0.0-6.0-0.35","fixation","","","","",""
"1922.2450000233948","Stimuli/Hangul_F5.bmp","188","image-keyboard-response","82","234905","0.0-6.0-1.35","test",".","",",","",""
"null","<div style=""color:white; font-size:60px;"">+</div>","null","html-keyboard-response","83","235907","0.0-6.0-0.36","fixation","","","","",""
"1693.4299999848008","Stimuli/Hangul_F11.bmp","190","image-keyboard-response","84","237602","0.0-6.0-1.36","test",".","",".","",""
"null","<div style=""color:white; font-size:60px;"">+</div>","null","html-keyboard-response","85","238605","0.0-6.0-0.37","fixation","","","","",""
"2245.3499999828637","Stimuli/Hangul_F15.bmp","190","image-keyboard-response","86","240852","0.0-6.0-1.37","test",".","",".","",""
"null","<div style=""color:white; font-size:60px;"">+</div>","null","html-keyboard-response","87","241856","0.0-6.0-0.38","fixation","","","","",""
"2305.685000028461","Stimuli/Hangul_M2.bmp","188","image-keyboard-response","88","244165","0.0-6.0-1.38","test",",","",",","",""
"null","<div style=""color:white; font-size:60px;"">+</div>","null","html-keyboard-response","89","245167","0.0-6.0-0.39","fixation","","","","",""
"1685.814999975264","Stimuli/Hangul_F21.bmp","190","image-keyboard-response","90","246858","0.0-6.0-1.39","test",".","",".","",""
"null","<div style=""color:white; font-size:60px;"">+</div>","null","html-keyboard-response","91","247863","0.0-6.0-0.40","fixation","","","","",""
"1659.7949999850243","Stimuli/Hangul_F2.bmp","188","image-keyboard-response","92","249525","0.0-6.0-1.40","test",".","",",","",""
"null","<div style=""color:white; font-size:60px;"">+</div>","null","html-keyboard-response","93","250530","0.0-6.0-0.41","fixation","","","","",""
"2030.190000019502","Stimuli/Hangul_M10.bmp","188","image-keyboard-response","94","252562","0.0-6.0-1.41","test",",","",",","",""
"null","<div style=""color:white; font-size:60px;"">+</div>","null","html-keyboard-response","95","253565","0.0-6.0-0.42","fixation","","","","",""
"2490.940000046976","Stimuli/Hangul_F4.bmp","188","image-keyboard-response","96","256059","0.0-6.0-1.42","test",".","",",","",""
"null","<div style=""color:white; font-size:60px;"">+</div>","null","html-keyboard-response","97","257062","0.0-6.0-0.43","fixation","","","","",""
"1895.5650000134483","Stimuli/Hangul_M21.bmp","188","image-keyboard-response","98","258963","0.0-6.0-1.43","test",",","",",","",""
"null","<div style=""color:white; font-size:60px;"">+</div>","null","html-keyboard-response","99","259966","0.0-6.0-0.44","fixation","","","","",""
"1985.1699999999255","Stimuli/Hangul_M13.bmp","188","image-keyboard-response","100","261953","0.0-6.0-1.44","test",",","",",","",""
"null","<div style=""color:white; font-size:60px;"">+</div>","null","html-keyboard-response","101","262955","0.0-6.0-0.45","fixation","","","","",""
"2071.2150000035763","Stimuli/Hangul_M4.bmp","190","image-keyboard-response","102","265030","0.0-6.0-1.45","test",",","",".","",""
"null","<div style=""color:white; font-size:60px;"">+</div>","null","html-keyboard-response","103","266033","0.0-6.0-0.46","fixation","","","","",""
"2037.7999999909662","Stimuli/Hangul_M7.bmp","190","image-keyboard-response","104","268074","0.0-6.0-1.46","test",",","",".","",""
"null","<div style=""color:white; font-size:60px;"">+</div>","null","html-keyboard-response","105","269077","0.0-6.0-0.47","fixation","","","","",""
"1898.555000021588","Stimuli/Hangul_M6.bmp","188","image-keyboard-response","106","270979","0.0-6.0-1.47","test",",","",",","",""
"null","<div style=""color:white; font-size:60px;"">+</div>","null","html-keyboard-response","107","271986","0.0-6.0-0.48","fixation","","","","",""
"1972.7599999750964","Stimuli/Hangul_M22.bmp","188","image-keyboard-response","108","273963","0.0-6.0-1.48","test",",","",",","",""
"null","<div style=""color:white; font-size:60px;"">+</div>","null","html-keyboard-response","109","274966","0.0-6.0-0.49","fixation","","","","",""
"1713.1899999803863","Stimuli/Hangul_F18.bmp","190","image-keyboard-response","110","276684","0.0-6.0-1.49","test",".","",".","",""
"79978.70999999577","<p style=""color:white;"">Good job, block 1 complete! Please take a moment to rest.</p> <p style=""color:white;"">When you are ready to continue with block 2 of 4, press the space bar.</p> ","32","html-keyboard-response","111","356665","0.0-7.0","","","","","",""
"null","<div style=""color:white; font-size:60px;"">+</div>","null","html-keyboard-response","112","359670","0.0-8.0-0.0","fixation","","","","",""
"1945.5650000018068","Stimuli/Hangul_M36.bmp","188","image-keyboard-response","113","361618","0.0-8.0-1.0","test",",","",",","",""
"null","<div style=""color:white; font-size:60px;"">+</div>","null","html-keyboard-response","114","362620","0.0-8.0-0.1","fixation","","","","",""
"1937.514999997802","Stimuli/Hangul_M27.bmp","190","image-keyboard-response","115","364561","0.0-8.0-1.1","test",",","",".","",""
"null","<div style=""color:white; font-size:60px;"">+</div>","null","html-keyboard-response","116","365563","0.0-8.0-0.2","fixation","","","","",""
"1772.57999998983","Stimuli/Hangul_M46.bmp","188","image-keyboard-response","117","367337","0.0-8.0-1.2","test",",","",",","",""
"null","<div style=""color:white; font-size:60px;"">+</div>","null","html-keyboard-response","118","368341","0.0-8.0-0.3","fixation","","","","",""
"1421.1900000227615","Stimuli/Hangul_M37.bmp","190","image-keyboard-response","119","369771","0.0-8.0-1.3","test",",","",".","",""
"null","<div style=""color:white; font-size:60px;"">+</div>","null","html-keyboard-response","120","370775","0.0-8.0-0.4","fixation","","","","",""
"1882.8499999945052","Stimuli/Hangul_F33.bmp","188","image-keyboard-response","121","372659","0.0-8.0-1.4","test",".","",",","",""
"null","<div style=""color:white; font-size:60px;"">+</div>","null","html-keyboard-response","122","373662","0.0-8.0-0.5","fixation","","","","",""
"2288.925000000745","Stimuli/Hangul_F28.bmp","188","image-keyboard-response","123","375953","0.0-8.0-1.5","test",".","",",","",""
"null","<div style=""color:white; font-size:60px;"">+</div>","null","html-keyboard-response","124","376956","0.0-8.0-0.6","fixation","","","","",""
"1674.1449999972247","Stimuli/Hangul_F34.bmp","190","image-keyboard-response","125","378633","0.0-8.0-1.6","test",".","",".","",""
"null","<div style=""color:white; font-size:60px;"">+</div>","null","html-keyboard-response","126","379637","0.0-8.0-0.7","fixation","","","","",""
"1707.1149999974295","Stimuli/Hangul_M45.bmp","188","image-keyboard-response","127","381346","0.0-8.0-1.7","test",",","",",","",""
"null","<div style=""color:white; font-size:60px;"">+</div>","null","html-keyboard-response","128","382350","0.0-8.0-0.8","fixation","","","","",""
"1714.8900000029244","Stimuli/Hangul_F46.bmp","188","image-keyboard-response","129","384070","0.0-8.0-1.8","test",".","",",","",""
"null","<div style=""color:white; font-size:60px;"">+</div>","null","html-keyboard-response","130","385074","0.0-8.0-0.9","fixation","","","","",""
"1805.4150000098161","Stimuli/Hangul_M33.bmp","188","image-keyboard-response","131","386882","0.0-8.0-1.9","test",",","",",","",""
"null","<div style=""color:white; font-size:60px;"">+</div>","null","html-keyboard-response","132","387886","0.0-8.0-0.10","fixation","","","","",""
"1815.8199999597855","Stimuli/Hangul_F42.bmp","190","image-keyboard-response","133","389705","0.0-8.0-1.10","test",".","",".","",""
"null","<div style=""color:white; font-size:60px;"">+</div>","null","html-keyboard-response","134","390707","0.0-8.0-0.11","fixation","","","","",""
"1821.559999953024","Stimuli/Hangul_M34.bmp","188","image-keyboard-response","135","392530","0.0-8.0-1.11","test",",","",",","",""
"null","<div style=""color:white; font-size:60px;"">+</div>","null","html-keyboard-response","136","393534","0.0-8.0-0.12","fixation","","","","",""
"1727.6650000130758","Stimuli/Hangul_M49.bmp","188","image-keyboard-response","137","395263","0.0-8.0-1.12","test",",","",",","",""
"null","<div style=""color:white; font-size:60px;"">+</div>","null","html-keyboard-response","138","396273","0.0-8.0-0.13","fixation","","","","",""
"1610.1999999955297","Stimuli/Hangul_M44.bmp","190","image-keyboard-response","139","397890","0.0-8.0-1.13","test",",","",".","",""
"null","<div style=""color:white; font-size:60px;"">+</div>","null","html-keyboard-response","140","398892","0.0-8.0-0.14","fixation","","","","",""
"1349.1550000035204","Stimuli/Hangul_M25.bmp","188","image-keyboard-response","141","400244","0.0-8.0-1.14","test",",","",",","",""
"null","<div style=""color:white; font-size:60px;"">+</div>","null","html-keyboard-response","142","401249","0.0-8.0-0.15","fixation","","","","",""
"1934.1349999886006","Stimuli/Hangul_F47.bmp","190","image-keyboard-response","143","403185","0.0-8.0-1.15","test",".","",".","",""
"null","<div style=""color:white; font-size:60px;"">+</div>","null","html-keyboard-response","144","404189","0.0-8.0-0.16","fixation","","","","",""
"1849.7199999983422","Stimuli/Hangul_M31.bmp","188","image-keyboard-response","145","406045","0.0-8.0-1.16","test",",","",",","",""
"null","<div style=""color:white; font-size:60px;"">+</div>","null","html-keyboard-response","146","407048","0.0-8.0-0.17","fixation","","","","",""
"1846.5599999763072","Stimuli/Hangul_M43.bmp","188","image-keyboard-response","147","408897","0.0-8.0-1.17","test",",","",",","",""
"null","<div style=""color:white; font-size:60px;"">+</div>","null","html-keyboard-response","148","409899","0.0-8.0-0.18","fixation","","","","",""
"1921.4650000212714","Stimuli/Hangul_F37.bmp","188","image-keyboard-response","149","411826","0.0-8.0-1.18","test",".","",",","",""
"null","<div style=""color:white; font-size:60px;"">+</div>","null","html-keyboard-response","150","412830","0.0-8.0-0.19","fixation","","","","",""
"1978.159999998752","Stimuli/Hangul_F30.bmp","188","image-keyboard-response","151","414810","0.0-8.0-1.19","test",".","",",","",""
"null","<div style=""color:white; font-size:60px;"">+</div>","null","html-keyboard-response","152","415813","0.0-8.0-0.20","fixation","","","","",""
"1723.5399999772198","Stimuli/Hangul_M35.bmp","188","image-keyboard-response","153","417539","0.0-8.0-1.20","test",",","",",","",""
"null","<div style=""color:white; font-size:60px;"">+</div>","null","html-keyboard-response","154","418541","0.0-8.0-0.21","fixation","","","","",""
"1468.1199999758974","Stimuli/Hangul_F36.bmp","188","image-keyboard-response","155","420011","0.0-8.0-1.21","test",".","",",","",""
"null","<div style=""color:white; font-size:60px;"">+</div>","null","html-keyboard-response","156","421016","0.0-8.0-0.22","fixation","","","","",""
"1754.0850000223145","Stimuli/Hangul_M28.bmp","188","image-keyboard-response","157","422773","0.0-8.0-1.22","test",",","",",","",""
"null","<div style=""color:white; font-size:60px;"">+</div>","null","html-keyboard-response","158","423777","0.0-8.0-0.23","fixation","","","","",""
"1455.179999989923","Stimuli/Hangul_F31.bmp","188","image-keyboard-response","159","425235","0.0-8.0-1.23","test",".","",",","",""
"null","<div style=""color:white; font-size:60px;"">+</div>","null","html-keyboard-response","160","426243","0.0-8.0-0.24","fixation","","","","",""
"1927.6199999731034","Stimuli/Hangul_M40.bmp","190","image-keyboard-response","161","428172","0.0-8.0-1.24","test",",","",".","",""
"null","<div style=""color:white; font-size:60px;"">+</div>","null","html-keyboard-response","162","429176","0.0-8.0-0.25","fixation","","","","",""
"1767.2749999910593","Stimuli/Hangul_F29.bmp","188","image-keyboard-response","163","430945","0.0-8.0-1.25","test",".","",",","",""
"null","<div style=""color:white; font-size:60px;"">+</div>","null","html-keyboard-response","164","431949","0.0-8.0-0.26","fixation","","","","",""
"1658.0149999936111","Stimuli/Hangul_M38.bmp","188","image-keyboard-response","165","433611","0.0-8.0-1.26","test",",","",",","",""
"null","<div style=""color:white; font-size:60px;"">+</div>","null","html-keyboard-response","166","434616","0.0-8.0-0.27","fixation","","","","",""
"1714.5499999751337","Stimuli/Hangul_M47.bmp","188","image-keyboard-response","167","436333","0.0-8.0-1.27","test",",","",",","",""
"null","<div style=""color:white; font-size:60px;"">+</div>","null","html-keyboard-response","168","437336","0.0-8.0-0.28","fixation","","","","",""
"1439.9299999931827","Stimuli/Hangul_F27.bmp","188","image-keyboard-response","169","438778","0.0-8.0-1.28","test",".","",",","",""
"null","<div style=""color:white; font-size:60px;"">+</div>","null","html-keyboard-response","170","439783","0.0-8.0-0.29","fixation","","","","",""
"1799.639999982901","Stimuli/Hangul_F40.bmp","188","image-keyboard-response","171","441585","0.0-8.0-1.29","test",".","",",","",""
"null","<div style=""color:white; font-size:60px;"">+</div>","null","html-keyboard-response","172","442586","0.0-8.0-0.30","fixation","","","","",""
"1877.8650000458583","Stimuli/Hangul_F38.bmp","190","image-keyboard-response","173","444466","0.0-8.0-1.30","test",".","",".","",""
"null","<div style=""color:white; font-size:60px;"">+</div>","null","html-keyboard-response","174","445468","0.0-8.0-0.31","fixation","","","","",""
"1739.0900000464171","Stimuli/Hangul_F26.bmp","188","image-keyboard-response","175","447209","0.0-8.0-1.31","test",".","",",","",""
"null","<div style=""color:white; font-size:60px;"">+</div>","null","html-keyboard-response","176","448211","0.0-8.0-0.32","fixation","","","","",""
"1868.5599999735132","Stimuli/Hangul_F25.bmp","190","image-keyboard-response","177","450086","0.0-8.0-1.32","test",".","",".","",""
"null","<div style=""color:white; font-size:60px;"">+</div>","null","html-keyboard-response","178","451088","0.0-8.0-0.33","fixation","","","","",""
"2194.8649999685585","Stimuli/Hangul_M39.bmp","190","image-keyboard-response","179","453285","0.0-8.0-1.33","test",",","",".","",""
"null","<div style=""color:white; font-size:60px;"">+</div>","null","html-keyboard-response","180","454291","0.0-8.0-0.34","fixation","","","","",""
"1897.960000031162","Stimuli/Hangul_F44.bmp","190","image-keyboard-response","181","456195","0.0-8.0-1.34","test",".","",".","",""
"null","<div style=""color:white; font-size:60px;"">+</div>","null","html-keyboard-response","182","457201","0.0-8.0-0.35","fixation","","","","",""
"1590.085000032559","Stimuli/Hangul_F48.bmp","190","image-keyboard-response","183","458793","0.0-8.0-1.35","test",".","",".","",""
"null","<div style=""color:white; font-size:60px;"">+</div>","null","html-keyboard-response","184","459795","0.0-8.0-0.36","fixation","","","","",""
"1661.3999999826774","Stimuli/Hangul_F35.bmp","188","image-keyboard-response","185","461459","0.0-8.0-1.36","test",".","",",","",""
"null","<div style=""color:white; font-size:60px;"">+</div>","null","html-keyboard-response","186","462466","0.0-8.0-0.37","fixation","","","","",""
"1885.1399999693967","Stimuli/Hangul_F32.bmp","190","image-keyboard-response","187","464354","0.0-8.0-1.37","test",".","",".","",""
"null","<div style=""color:white; font-size:60px;"">+</div>","null","html-keyboard-response","188","465369","0.0-8.0-0.38","fixation","","","","",""
"1840.2849999838509","Stimuli/Hangul_F41.bmp","190","image-keyboard-response","189","467219","0.0-8.0-1.38","test",".","",".","",""
"null","<div style=""color:white; font-size:60px;"">+</div>","null","html-keyboard-response","190","468222","0.0-8.0-0.39","fixation","","","","",""
"1673.2799999881536","Stimuli/Hangul_F49.bmp","188","image-keyboard-response","191","469898","0.0-8.0-1.39","test",".","",",","",""
"null","<div style=""color:white; font-size:60px;"">+</div>","null","html-keyboard-response","192","470902","0.0-8.0-0.40","fixation","","","","",""
"2091.359999962151","Stimuli/Hangul_F45.bmp","188","image-keyboard-response","193","472996","0.0-8.0-1.40","test",".","",",","",""
"null","<div style=""color:white; font-size:60px;"">+</div>","null","html-keyboard-response","194","473998","0.0-8.0-0.41","fixation","","","","",""
"1942.3299999907613","Stimuli/Hangul_M41.bmp","188","image-keyboard-response","195","475945","0.0-8.0-1.41","test",",","",",","",""
"null","<div style=""color:white; font-size:60px;"">+</div>","null","html-keyboard-response","196","476947","0.0-8.0-0.42","fixation","","","","",""
"1965.0849999743514","Stimuli/Hangul_F43.bmp","190","image-keyboard-response","197","478915","0.0-8.0-1.42","test",".","",".","",""
"null","<div style=""color:white; font-size:60px;"">+</div>","null","html-keyboard-response","198","479926","0.0-8.0-0.43","fixation","","","","",""
"2200.7350000203587","Stimuli/Hangul_F39.bmp","190","image-keyboard-response","199","482131","0.0-8.0-1.43","test",".","",".","",""
"null","<div style=""color:white; font-size:60px;"">+</div>","null","html-keyboard-response","200","483136","0.0-8.0-0.44","fixation","","","","",""
"1931.71999999322","Stimuli/Hangul_M48.bmp","188","image-keyboard-response","201","485071","0.0-8.0-1.44","test",",","",",","",""
"null","<div style=""color:white; font-size:60px;"">+</div>","null","html-keyboard-response","202","486074","0.0-8.0-0.45","fixation","","","","",""
"3188.380000006873","Stimuli/Hangul_M32.bmp","188","image-keyboard-response","203","489268","0.0-8.0-1.45","test",",","",",","",""
"null","<div style=""color:white; font-size:60px;"">+</div>","null","html-keyboard-response","204","490275","0.0-8.0-0.46","fixation","","","","",""
"2338.5550000239164","Stimuli/Hangul_M42.bmp","188","image-keyboard-response","205","492619","0.0-8.0-1.46","test",",","",",","",""
"null","<div style=""color:white; font-size:60px;"">+</div>","null","html-keyboard-response","206","493620","0.0-8.0-0.47","fixation","","","","",""
"2044.4100000313483","Stimuli/Hangul_M29.bmp","190","image-keyboard-response","207","495666","0.0-8.0-1.47","test",",","",".","",""
"null","<div style=""color:white; font-size:60px;"">+</div>","null","html-keyboard-response","208","496669","0.0-8.0-0.48","fixation","","","","",""
"2175.5600000033155","Stimuli/Hangul_M30.bmp","190","image-keyboard-response","209","498852","0.0-8.0-1.48","test",",","",".","",""
"null","<div style=""color:white; font-size:60px;"">+</div>","null","html-keyboard-response","210","499855","0.0-8.0-0.49","fixation","","","","",""
"2406.844999990426","Stimuli/Hangul_M26.bmp","190","image-keyboard-response","211","502265","0.0-8.0-1.49","test",",","",".","",""
"38829.5999999973","<p style=""color:white;"">Half way there! Please take a moment to rest.</p> <p style=""color:white;"">When you are ready to continue with block 3 of 4, press the space bar.</p> ","32","html-keyboard-response","212","541097","0.0-9.0","","","","","",""
"null","<div style=""color:white; font-size:60px;"">+</div>","null","html-keyboard-response","213","544103","0.0-10.0-0.0","fixation","","","","",""
"2115.5049999943003","Stimuli/Hangul_F73.bmp","190","image-keyboard-response","214","546227","0.0-10.0-1.0","test",".","",".","",""
"null","<div style=""color:white; font-size:60px;"">+</div>","null","html-keyboard-response","215","547231","0.0-10.0-0.1","fixation","","","","",""
"2792.654999997467","Stimuli/Hangul_M71.bmp","188","image-keyboard-response","216","550026","0.0-10.0-1.1","test",",","",",","",""
"null","<div style=""color:white; font-size:60px;"">+</div>","null","html-keyboard-response","217","551031","0.0-10.0-0.2","fixation","","","","",""
"1752.6150000048801","Stimuli/Hangul_F53.bmp","188","image-keyboard-response","218","552787","0.0-10.0-1.2","test",".","",",","",""
"null","<div style=""color:white; font-size:60px;"">+</div>","null","html-keyboard-response","219","553791","0.0-10.0-0.3","fixation","","","","",""
"1887.6649999874644","Stimuli/Hangul_M60.bmp","188","image-keyboard-response","220","555681","0.0-10.0-1.3","test",",","",",","",""
"null","<div style=""color:white; font-size:60px;"">+</div>","null","html-keyboard-response","221","556684","0.0-10.0-0.4","fixation","","","","",""
"1752.0750000257976","Stimuli/Hangul_F61.bmp","190","image-keyboard-response","222","558442","0.0-10.0-1.4","test",".","",".","",""
"null","<div style=""color:white; font-size:60px;"">+</div>","null","html-keyboard-response","223","559446","0.0-10.0-0.5","fixation","","","","",""
"1970.3949999529868","Stimuli/Hangul_F60.bmp","188","image-keyboard-response","224","561419","0.0-10.0-1.5","test",".","",",","",""
"null","<div style=""color:white; font-size:60px;"">+</div>","null","html-keyboard-response","225","562422","0.0-10.0-0.6","fixation","","","","",""
"2192.444999993313","Stimuli/Hangul_M72.bmp","190","image-keyboard-response","226","564617","0.0-10.0-1.6","test",",","",".","",""
"null","<div style=""color:white; font-size:60px;"">+</div>","null","html-keyboard-response","227","565621","0.0-10.0-0.7","fixation","","","","",""
"3795.029999979306","Stimuli/Hangul_M57.bmp","190","image-keyboard-response","228","569417","0.0-10.0-1.7","test",",","",".","",""
"null","<div style=""color:white; font-size:60px;"">+</div>","null","html-keyboard-response","229","570421","0.0-10.0-0.8","fixation","","","","",""
"1481.0649999999441","Stimuli/Hangul_F59.bmp","190","image-keyboard-response","230","571905","0.0-10.0-1.8","test",".","",".","",""
"null","<div style=""color:white; font-size:60px;"">+</div>","null","html-keyboard-response","231","572907","0.0-10.0-0.9","fixation","","","","",""
"1683.6250000051223","Stimuli/Hangul_F52.bmp","188","image-keyboard-response","232","574593","0.0-10.0-1.9","test",".","",",","",""
"null","<div style=""color:white; font-size:60px;"">+</div>","null","html-keyboard-response","233","575595","0.0-10.0-0.10","fixation","","","","",""
"1756.8650000030175","Stimuli/Hangul_F55.bmp","188","image-keyboard-response","234","577353","0.0-10.0-1.10","test",".","",",","",""
"null","<div style=""color:white; font-size:60px;"">+</div>","null","html-keyboard-response","235","578368","0.0-10.0-0.11","fixation","","","","",""
"1687.2800000128336","Stimuli/Hangul_F67.bmp","188","image-keyboard-response","236","580059","0.0-10.0-1.11","test",".","",",","",""
"null","<div style=""color:white; font-size:60px;"">+</div>","null","html-keyboard-response","237","581062","0.0-10.0-0.12","fixation","","","","",""
"1527.6149999699555","Stimuli/Hangul_M61.bmp","190","image-keyboard-response","238","582593","0.0-10.0-1.12","test",",","",".","",""
"null","<div style=""color:white; font-size:60px;"">+</div>","null","html-keyboard-response","239","583597","0.0-10.0-0.13","fixation","","","","",""
"1764.2200000118464","Stimuli/Hangul_F74.bmp","190","image-keyboard-response","240","585363","0.0-10.0-1.13","test",".","",".","",""
"null","<div style=""color:white; font-size:60px;"">+</div>","null","html-keyboard-response","241","586366","0.0-10.0-0.14","fixation","","","","",""
"1878.934999986086","Stimuli/Hangul_M58.bmp","188","image-keyboard-response","242","588250","0.0-10.0-1.14","test",",","",",","",""
"null","<div style=""color:white; font-size:60px;"">+</div>","null","html-keyboard-response","243","589253","0.0-10.0-0.15","fixation","","","","",""
"1879.0950000402518","Stimuli/Hangul_M66.bmp","188","image-keyboard-response","244","591138","0.0-10.0-1.15","test",",","",",","",""
"null","<div style=""color:white; font-size:60px;"">+</div>","null","html-keyboard-response","245","592141","0.0-10.0-0.16","fixation","","","","",""
"2058.9899999904446","Stimuli/Hangul_M59.bmp","188","image-keyboard-response","246","594203","0.0-10.0-1.16","test",",","",",","",""
"null","<div style=""color:white; font-size:60px;"">+</div>","null","html-keyboard-response","247","595207","0.0-10.0-0.17","fixation","","","","",""
"1509.1350000002421","Stimuli/Hangul_F72.bmp","190","image-keyboard-response","248","596721","0.0-10.0-1.17","test",".","",".","",""
"null","<div style=""color:white; font-size:60px;"">+</div>","null","html-keyboard-response","249","597725","0.0-10.0-0.18","fixation","","","","",""
"2091.305000009015","Stimuli/Hangul_F57.bmp","188","image-keyboard-response","250","599818","0.0-10.0-1.18","test",".","",",","",""
"null","<div style=""color:white; font-size:60px;"">+</div>","null","html-keyboard-response","251","600820","0.0-10.0-0.19","fixation","","","","",""
"1818.3849999913946","Stimuli/Hangul_F56.bmp","188","image-keyboard-response","252","602642","0.0-10.0-1.19","test",".","",",","",""
"null","<div style=""color:white; font-size:60px;"">+</div>","null","html-keyboard-response","253","603645","0.0-10.0-0.20","fixation","","","","",""
"2003.420000022743","Stimuli/Hangul_M70.bmp","188","image-keyboard-response","254","605650","0.0-10.0-1.20","test",",","",",","",""
"null","<div style=""color:white; font-size:60px;"">+</div>","null","html-keyboard-response","255","606653","0.0-10.0-0.21","fixation","","","","",""
"2146.4849999756552","Stimuli/Hangul_F65.bmp","188","image-keyboard-response","256","608802","0.0-10.0-1.21","test",".","",",","",""
"null","<div style=""color:white; font-size:60px;"">+</div>","null","html-keyboard-response","257","609805","0.0-10.0-0.22","fixation","","","","",""
"1718.4000000124797","Stimuli/Hangul_M62.bmp","190","image-keyboard-response","258","611526","0.0-10.0-1.22","test",",","",".","",""
"null","<div style=""color:white; font-size:60px;"">+</div>","null","html-keyboard-response","259","612539","0.0-10.0-0.23","fixation","","","","",""
"1751.9650000031106","Stimuli/Hangul_M50.bmp","188","image-keyboard-response","260","614296","0.0-10.0-1.23","test",",","",",","",""
"null","<div style=""color:white; font-size:60px;"">+</div>","null","html-keyboard-response","261","615299","0.0-10.0-0.24","fixation","","","","",""
"1805.255000013858","Stimuli/Hangul_M54.bmp","190","image-keyboard-response","262","617106","0.0-10.0-1.24","test",",","",".","",""
"null","<div style=""color:white; font-size:60px;"">+</div>","null","html-keyboard-response","263","618111","0.0-10.0-0.25","fixation","","","","",""
"1705.0700000254437","Stimuli/Hangul_M55.bmp","188","image-keyboard-response","264","619817","0.0-10.0-1.25","test",",","",",","",""
"null","<div style=""color:white; font-size:60px;"">+</div>","null","html-keyboard-response","265","620819","0.0-10.0-0.26","fixation","","","","",""
"1837.9999999888241","Stimuli/Hangul_F63.bmp","190","image-keyboard-response","266","622661","0.0-10.0-1.26","test",".","",".","",""
"null","<div style=""color:white; font-size:60px;"">+</div>","null","html-keyboard-response","267","623668","0.0-10.0-0.27","fixation","","","","",""
"1536.229999968782","Stimuli/Hangul_M73.bmp","188","image-keyboard-response","268","625209","0.0-10.0-1.27","test",",","",",","",""
"null","<div style=""color:white; font-size:60px;"">+</div>","null","html-keyboard-response","269","626212","0.0-10.0-0.28","fixation","","","","",""
"1866.8399999733083","Stimuli/Hangul_F70.bmp","188","image-keyboard-response","270","628081","0.0-10.0-1.28","test",".","",",","",""
"null","<div style=""color:white; font-size:60px;"">+</div>","null","html-keyboard-response","271","629083","0.0-10.0-0.29","fixation","","","","",""
"1667.9549999535084","Stimuli/Hangul_M51.bmp","190","image-keyboard-response","272","630755","0.0-10.0-1.29","test",",","",".","",""
"null","<div style=""color:white; font-size:60px;"">+</div>","null","html-keyboard-response","273","631765","0.0-10.0-0.30","fixation","","","","",""
"2169.0749999834225","Stimuli/Hangul_F69.bmp","188","image-keyboard-response","274","633937","0.0-10.0-1.30","test",".","",",","",""
"null","<div style=""color:white; font-size:60px;"">+</div>","null","html-keyboard-response","275","634940","0.0-10.0-0.31","fixation","","","","",""
"1942.10500002373","Stimuli/Hangul_M67.bmp","188","image-keyboard-response","276","636884","0.0-10.0-1.31","test",",","",",","",""
"null","<div style=""color:white; font-size:60px;"">+</div>","null","html-keyboard-response","277","637886","0.0-10.0-0.32","fixation","","","","",""
"1745.3299999469891","Stimuli/Hangul_F64.bmp","190","image-keyboard-response","278","639634","0.0-10.0-1.32","test",".","",".","",""
"null","<div style=""color:white; font-size:60px;"">+</div>","null","html-keyboard-response","279","640636","0.0-10.0-0.33","fixation","","","","",""
"1898.4749999945052","Stimuli/Hangul_M74.bmp","190","image-keyboard-response","280","642537","0.0-10.0-1.33","test",",","",".","",""
"null","<div style=""color:white; font-size:60px;"">+</div>","null","html-keyboard-response","281","643541","0.0-10.0-0.34","fixation","","","","",""
"1882.114999985788","Stimuli/Hangul_M64.bmp","188","image-keyboard-response","282","645425","0.0-10.0-1.34","test",",","",",","",""
"null","<div style=""color:white; font-size:60px;"">+</div>","null","html-keyboard-response","283","646427","0.0-10.0-0.35","fixation","","","","",""
"1617.6599999889731","Stimuli/Hangul_M56.bmp","190","image-keyboard-response","284","648046","0.0-10.0-1.35","test",",","",".","",""
"null","<div style=""color:white; font-size:60px;"">+</div>","null","html-keyboard-response","285","649050","0.0-10.0-0.36","fixation","","","","",""
"1784.4749999931082","Stimuli/Hangul_F71.bmp","190","image-keyboard-response","286","650841","0.0-10.0-1.36","test",".","",".","",""
"null","<div style=""color:white; font-size:60px;"">+</div>","null","html-keyboard-response","287","651844","0.0-10.0-0.37","fixation","","","","",""
"2319.1050000023097","Stimuli/Hangul_M53.bmp","190","image-keyboard-response","288","654165","0.0-10.0-1.37","test",",","",".","",""
"null","<div style=""color:white; font-size:60px;"">+</div>","null","html-keyboard-response","289","655168","0.0-10.0-0.38","fixation","","","","",""
"1373.4899999690242","Stimuli/Hangul_F66.bmp","188","image-keyboard-response","290","656546","0.0-10.0-1.38","test",".","",",","",""
"null","<div style=""color:white; font-size:60px;"">+</div>","null","html-keyboard-response","291","657549","0.0-10.0-0.39","fixation","","","","",""
"1621.2050000322051","Stimuli/Hangul_F62.bmp","188","image-keyboard-response","292","659172","0.0-10.0-1.39","test",".","",",","",""
"null","<div style=""color:white; font-size:60px;"">+</div>","null","html-keyboard-response","293","660175","0.0-10.0-0.40","fixation","","","","",""
"1729.2349999770522","Stimuli/Hangul_F50.bmp","188","image-keyboard-response","294","661906","0.0-10.0-1.40","test",".","",",","",""
"null","<div style=""color:white; font-size:60px;"">+</div>","null","html-keyboard-response","295","662913","0.0-10.0-0.41","fixation","","","","",""
"2173.7950000097044","Stimuli/Hangul_F54.bmp","190","image-keyboard-response","296","665089","0.0-10.0-1.41","test",".","",".","",""
"null","<div style=""color:white; font-size:60px;"">+</div>","null","html-keyboard-response","297","666092","0.0-10.0-0.42","fixation","","","","",""
"1811.1799999605864","Stimuli/Hangul_M52.bmp","190","image-keyboard-response","298","667905","0.0-10.0-1.42","test",",","",".","",""
"null","<div style=""color:white; font-size:60px;"">+</div>","null","html-keyboard-response","299","668908","0.0-10.0-0.43","fixation","","","","",""
"1854.570000024978","Stimuli/Hangul_F58.bmp","188","image-keyboard-response","300","670766","0.0-10.0-1.43","test",".","",",","",""
"null","<div style=""color:white; font-size:60px;"">+</div>","null","html-keyboard-response","301","671771","0.0-10.0-0.44","fixation","","","","",""
"2221.5999999898486","Stimuli/Hangul_M63.bmp","190","image-keyboard-response","302","673998","0.0-10.0-1.44","test",",","",".","",""
"null","<div style=""color:white; font-size:60px;"">+</div>","null","html-keyboard-response","303","675000","0.0-10.0-0.45","fixation","","","","",""
"1261.0400000121444","Stimuli/Hangul_F51.bmp","188","image-keyboard-response","304","676266","0.0-10.0-1.45","test",".","",",","",""
"null","<div style=""color:white; font-size:60px;"">+</div>","null","html-keyboard-response","305","677269","0.0-10.0-0.46","fixation","","","","",""
"1484.8299999721348","Stimuli/Hangul_M65.bmp","188","image-keyboard-response","306","678755","0.0-10.0-1.46","test",",","",",","",""
"null","<div style=""color:white; font-size:60px;"">+</div>","null","html-keyboard-response","307","679759","0.0-10.0-0.47","fixation","","","","",""
"1987.0349999982864","Stimuli/Hangul_F68.bmp","188","image-keyboard-response","308","681747","0.0-10.0-1.47","test",".","",",","",""
"null","<div style=""color:white; font-size:60px;"">+</div>","null","html-keyboard-response","309","682748","0.0-10.0-0.48","fixation","","","","",""
"2083.2099999533966","Stimuli/Hangul_M69.bmp","188","image-keyboard-response","310","684834","0.0-10.0-1.48","test",",","",",","",""
"null","<div style=""color:white; font-size:60px;"">+</div>","null","html-keyboard-response","311","685836","0.0-10.0-0.49","fixation","","","","",""
"2157.0749999955297","Stimuli/Hangul_M68.bmp","190","image-keyboard-response","312","687995","0.0-10.0-1.49","test",",","",".","",""
"3427.350000012666","<p style=""color:white;"">One more block to go! Please take a moment to rest.</p> <p style=""color:white;"">When you are ready to continue with block 4 of 4, press the space bar.</p> ","32","html-keyboard-response","313","691426","0.0-11.0","","","","","",""
"null","<div style=""color:white; font-size:60px;"">+</div>","null","html-keyboard-response","314","694431","0.0-12.0-0.0","fixation","","","","",""
"1780.7649999740534","Stimuli/Hangul_M91.bmp","188","image-keyboard-response","315","696215","0.0-12.0-1.0","test",",","",",","",""
"null","<div style=""color:white; font-size:60px;"">+</div>","null","html-keyboard-response","316","697220","0.0-12.0-0.1","fixation","","","","",""
"1802.5800000177696","Stimuli/Hangul_M77.bmp","190","image-keyboard-response","317","699025","0.0-12.0-1.1","test",",","",".","",""
"null","<div style=""color:white; font-size:60px;"">+</div>","null","html-keyboard-response","318","700028","0.0-12.0-0.2","fixation","","","","",""
"1946.929999976419","Stimuli/Hangul_M99.bmp","190","image-keyboard-response","319","701977","0.0-12.0-1.2","test",",","",".","",""
"null","<div style=""color:white; font-size:60px;"">+</div>","null","html-keyboard-response","320","702980","0.0-12.0-0.3","fixation","","","","",""
"1476.2250000494532","Stimuli/Hangul_M94.bmp","188","image-keyboard-response","321","704459","0.0-12.0-1.3","test",",","",",","",""
"null","<div style=""color:white; font-size:60px;"">+</div>","null","html-keyboard-response","322","705463","0.0-12.0-0.4","fixation","","","","",""
"1904.4200000353158","Stimuli/Hangul_F92.bmp","190","image-keyboard-response","323","707370","0.0-12.0-1.4","test",".","",".","",""
"null","<div style=""color:white; font-size:60px;"">+</div>","null","html-keyboard-response","324","708374","0.0-12.0-0.5","fixation","","","","",""
"1761.3450000062585","Stimuli/Hangul_M80.bmp","188","image-keyboard-response","325","710138","0.0-12.0-1.5","test",",","",",","",""
"null","<div style=""color:white; font-size:60px;"">+</div>","null","html-keyboard-response","326","711148","0.0-12.0-0.6","fixation","","","","",""
"1360.709999979008","Stimuli/Hangul_M81.bmp","188","image-keyboard-response","327","712514","0.0-12.0-1.6","test",",","",",","",""
"null","<div style=""color:white; font-size:60px;"">+</div>","null","html-keyboard-response","328","713517","0.0-12.0-0.7","fixation","","","","",""
"2131.745000020601","Stimuli/Hangul_F91.bmp","190","image-keyboard-response","329","715651","0.0-12.0-1.7","test",".","",".","",""
"null","<div style=""color:white; font-size:60px;"">+</div>","null","html-keyboard-response","330","716654","0.0-12.0-0.8","fixation","","","","",""
"1986.7450000019744","Stimuli/Hangul_F89.bmp","188","image-keyboard-response","331","718642","0.0-12.0-1.8","test",".","",",","",""
"null","<div style=""color:white; font-size:60px;"">+</div>","null","html-keyboard-response","332","719644","0.0-12.0-0.9","fixation","","","","",""
"1919.3349999841303","Stimuli/Hangul_M84.bmp","190","image-keyboard-response","333","721570","0.0-12.0-1.9","test",",","",".","",""
"null","<div style=""color:white; font-size:60px;"">+</div>","null","html-keyboard-response","334","722573","0.0-12.0-0.10","fixation","","","","",""
"2540.534999978263","Stimuli/Hangul_M98.bmp","188","image-keyboard-response","335","725116","0.0-12.0-1.10","test",",","",",","",""
"null","<div style=""color:white; font-size:60px;"">+</div>","null","html-keyboard-response","336","726120","0.0-12.0-0.11","fixation","","","","",""
"2519.2800000077114","Stimuli/Hangul_F80.bmp","188","image-keyboard-response","337","728641","0.0-12.0-1.11","test",".","",",","",""
"null","<div style=""color:white; font-size:60px;"">+</div>","null","html-keyboard-response","338","729643","0.0-12.0-0.12","fixation","","","","",""
"1989.6850000368431","Stimuli/Hangul_M92.bmp","188","image-keyboard-response","339","731635","0.0-12.0-1.12","test",",","",",","",""
"null","<div style=""color:white; font-size:60px;"">+</div>","null","html-keyboard-response","340","732637","0.0-12.0-0.13","fixation","","","","",""
"2056.899999966845","Stimuli/Hangul_M82.bmp","188","image-keyboard-response","341","734700","0.0-12.0-1.13","test",",","",",","",""
"null","<div style=""color:white; font-size:60px;"">+</div>","null","html-keyboard-response","342","735703","0.0-12.0-0.14","fixation","","","","",""
"1847.8650000179186","Stimuli/Hangul_F98.bmp","188","image-keyboard-response","343","737553","0.0-12.0-1.14","test",".","",",","",""
"null","<div style=""color:white; font-size:60px;"">+</div>","null","html-keyboard-response","344","738555","0.0-12.0-0.15","fixation","","","","",""
"2155.200000037439","Stimuli/Hangul_F76.bmp","190","image-keyboard-response","345","740713","0.0-12.0-1.15","test",".","",".","",""
"null","<div style=""color:white; font-size:60px;"">+</div>","null","html-keyboard-response","346","741715","0.0-12.0-0.16","fixation","","","","",""
"1834.5850000041537","Stimuli/Hangul_M79.bmp","188","image-keyboard-response","347","743553","0.0-12.0-1.16","test",",","",",","",""
"null","<div style=""color:white; font-size:60px;"">+</div>","null","html-keyboard-response","348","744556","0.0-12.0-0.17","fixation","","","","",""
"1883.4999999962747","Stimuli/Hangul_M85.bmp","188","image-keyboard-response","349","746443","0.0-12.0-1.17","test",",","",",","",""
"null","<div style=""color:white; font-size:60px;"">+</div>","null","html-keyboard-response","350","747449","0.0-12.0-0.18","fixation","","","","",""
"2517.7399999811314","Stimuli/Hangul_F87.bmp","188","image-keyboard-response","351","749978","0.0-12.0-1.18","test",".","",",","",""
"null","<div style=""color:white; font-size:60px;"">+</div>","null","html-keyboard-response","352","750980","0.0-12.0-0.19","fixation","","","","",""
"2309.05999999959","Stimuli/Hangul_M96.bmp","190","image-keyboard-response","353","753291","0.0-12.0-1.19","test",",","",".","",""
"null","<div style=""color:white; font-size:60px;"">+</div>","null","html-keyboard-response","354","754294","0.0-12.0-0.20","fixation","","","","",""
"1919.5199999958277","Stimuli/Hangul_F99.bmp","188","image-keyboard-response","355","756220","0.0-12.0-1.20","test",".","",",","",""
"null","<div style=""color:white; font-size:60px;"">+</div>","null","html-keyboard-response","356","757224","0.0-12.0-0.21","fixation","","","","",""
"1978.9250000030734","Stimuli/Hangul_F81.bmp","188","image-keyboard-response","357","759210","0.0-12.0-1.21","test",".","",",","",""
"null","<div style=""color:white; font-size:60px;"">+</div>","null","html-keyboard-response","358","760213","0.0-12.0-0.22","fixation","","","","",""
"1442.9249999811873","Stimuli/Hangul_M86.bmp","188","image-keyboard-response","359","761659","0.0-12.0-1.22","test",",","",",","",""
"null","<div style=""color:white; font-size:60px;"">+</div>","null","html-keyboard-response","360","762663","0.0-12.0-0.23","fixation","","","","",""
"1768.8450000132434","Stimuli/Hangul_M89.bmp","188","image-keyboard-response","361","764435","0.0-12.0-1.23","test",",","",",","",""
"null","<div style=""color:white; font-size:60px;"">+</div>","null","html-keyboard-response","362","765440","0.0-12.0-0.24","fixation","","","","",""
"2175.3000000026077","Stimuli/Hangul_F93.bmp","190","image-keyboard-response","363","767618","0.0-12.0-1.24","test",".","",".","",""
"null","<div style=""color:white; font-size:60px;"">+</div>","null","html-keyboard-response","364","768621","0.0-12.0-0.25","fixation","","","","",""
"3755.4950000485405","Stimuli/Hangul_F85.bmp","190","image-keyboard-response","365","772379","0.0-12.0-1.25","test",".","",".","",""
"null","<div style=""color:white; font-size:60px;"">+</div>","null","html-keyboard-response","366","773383","0.0-12.0-0.26","fixation","","","","",""
"2326.104999985546","Stimuli/Hangul_F79.bmp","188","image-keyboard-response","367","775715","0.0-12.0-1.26","test",".","",",","",""
"null","<div style=""color:white; font-size:60px;"">+</div>","null","html-keyboard-response","368","776718","0.0-12.0-0.27","fixation","","","","",""
"1947.6700000232086","Stimuli/Hangul_F83.bmp","190","image-keyboard-response","369","778671","0.0-12.0-1.27","test",".","",".","",""
"null","<div style=""color:white; font-size:60px;"">+</div>","null","html-keyboard-response","370","779674","0.0-12.0-0.28","fixation","","","","",""
"2439.075000002049","Stimuli/Hangul_M97.bmp","190","image-keyboard-response","371","782116","0.0-12.0-1.28","test",",","",".","",""
"null","<div style=""color:white; font-size:60px;"">+</div>","null","html-keyboard-response","372","783119","0.0-12.0-0.29","fixation","","","","",""
"1659.4250000198372","Stimuli/Hangul_M87.bmp","188","image-keyboard-response","373","784781","0.0-12.0-1.29","test",",","",",","",""
"null","<div style=""color:white; font-size:60px;"">+</div>","null","html-keyboard-response","374","785784","0.0-12.0-0.30","fixation","","","","",""
"2047.3900000215508","Stimuli/Hangul_M90.bmp","188","image-keyboard-response","375","787833","0.0-12.0-1.30","test",",","",",","",""
"null","<div style=""color:white; font-size:60px;"">+</div>","null","html-keyboard-response","376","788839","0.0-12.0-0.31","fixation","","","","",""
"1890.3900000150315","Stimuli/Hangul_M83.bmp","188","image-keyboard-response","377","790735","0.0-12.0-1.31","test",",","",",","",""
"null","<div style=""color:white; font-size:60px;"">+</div>","null","html-keyboard-response","378","791737","0.0-12.0-0.32","fixation","","","","",""
"1790.1049999636598","Stimuli/Hangul_F75.bmp","190","image-keyboard-response","379","793531","0.0-12.0-1.32","test",".","",".","",""
"null","<div style=""color:white; font-size:60px;"">+</div>","null","html-keyboard-response","380","794534","0.0-12.0-0.33","fixation","","","","",""
"1909.2649999656714","Stimuli/Hangul_F77.bmp","190","image-keyboard-response","381","796452","0.0-12.0-1.33","test",".","",".","",""
"null","<div style=""color:white; font-size:60px;"">+</div>","null","html-keyboard-response","382","797456","0.0-12.0-0.34","fixation","","","","",""
"1806.5850000130013","Stimuli/Hangul_M88.bmp","188","image-keyboard-response","383","799265","0.0-12.0-1.34","test",",","",",","",""
"null","<div style=""color:white; font-size:60px;"">+</div>","null","html-keyboard-response","384","800269","0.0-12.0-0.35","fixation","","","","",""
"1405.7699999539182","Stimuli/Hangul_F86.bmp","190","image-keyboard-response","385","801679","0.0-12.0-1.35","test",".","",".","",""
"null","<div style=""color:white; font-size:60px;"">+</div>","null","html-keyboard-response","386","802681","0.0-12.0-0.36","fixation","","","","",""
"1890.7100000069477","Stimuli/Hangul_F97.bmp","188","image-keyboard-response","387","804577","0.0-12.0-1.36","test",".","",",","",""
"null","<div style=""color:white; font-size:60px;"">+</div>","null","html-keyboard-response","388","805582","0.0-12.0-0.37","fixation","","","","",""
"1696.074999985285","Stimuli/Hangul_M76.bmp","188","image-keyboard-response","389","807280","0.0-12.0-1.37","test",",","",",","",""
"null","<div style=""color:white; font-size:60px;"">+</div>","null","html-keyboard-response","390","808283","0.0-12.0-0.38","fixation","","","","",""
"1795.9099999861792","Stimuli/Hangul_F95.bmp","188","image-keyboard-response","391","810081","0.0-12.0-1.38","test",".","",",","",""
"null","<div style=""color:white; font-size:60px;"">+</div>","null","html-keyboard-response","392","811082","0.0-12.0-0.39","fixation","","","","",""
"1793.6999999801628","Stimuli/Hangul_M93.bmp","190","image-keyboard-response","393","812878","0.0-12.0-1.39","test",",","",".","",""
"null","<div style=""color:white; font-size:60px;"">+</div>","null","html-keyboard-response","394","813882","0.0-12.0-0.40","fixation","","","","",""
"2390.339999983553","Stimuli/Hangul_F78.bmp","190","image-keyboard-response","395","816274","0.0-12.0-1.40","test",".","",".","",""
"null","<div style=""color:white; font-size:60px;"">+</div>","null","html-keyboard-response","396","817278","0.0-12.0-0.41","fixation","","","","",""
"1708.4150000009686","Stimuli/Hangul_F88.bmp","188","image-keyboard-response","397","818990","0.0-12.0-1.41","test",".","",",","",""
"null","<div style=""color:white; font-size:60px;"">+</div>","null","html-keyboard-response","398","819994","0.0-12.0-0.42","fixation","","","","",""
"1477.8599999845028","Stimuli/Hangul_F90.bmp","188","image-keyboard-response","399","821474","0.0-12.0-1.42","test",".","",",","",""
"null","<div style=""color:white; font-size:60px;"">+</div>","null","html-keyboard-response","400","822478","0.0-12.0-0.43","fixation","","","","",""
"1934.5099999918602","Stimuli/Hangul_M78.bmp","190","image-keyboard-response","401","824416","0.0-12.0-1.43","test",",","",".","",""
"null","<div style=""color:white; font-size:60px;"">+</div>","null","html-keyboard-response","402","825421","0.0-12.0-0.44","fixation","","","","",""
"2074.2400000453927","Stimuli/Hangul_F94.bmp","190","image-keyboard-response","403","827500","0.0-12.0-1.44","test",".","",".","",""
"null","<div style=""color:white; font-size:60px;"">+</div>","null","html-keyboard-response","404","828505","0.0-12.0-0.45","fixation","","","","",""
"1629.895000020042","Stimuli/Hangul_F82.bmp","190","image-keyboard-response","405","830137","0.0-12.0-1.45","test",".","",".","",""
"null","<div style=""color:white; font-size:60px;"">+</div>","null","html-keyboard-response","406","831140","0.0-12.0-0.46","fixation","","","","",""
"1817.9500000551343","Stimuli/Hangul_M75.bmp","188","image-keyboard-response","407","832960","0.0-12.0-1.46","test",",","",",","",""
"null","<div style=""color:white; font-size:60px;"">+</div>","null","html-keyboard-response","408","833962","0.0-12.0-0.47","fixation","","","","",""
"1746.3849999476224","Stimuli/Hangul_M95.bmp","188","image-keyboard-response","409","835710","0.0-12.0-1.47","test",",","",",","",""
"null","<div style=""color:white; font-size:60px;"">+</div>","null","html-keyboard-response","410","836713","0.0-12.0-0.48","fixation","","","","",""
"2782.0599999977276","Stimuli/Hangul_F84.bmp","188","image-keyboard-response","411","839498","0.0-12.0-1.48","test",".","",",","",""
"null","<div style=""color:white; font-size:60px;"">+</div>","null","html-keyboard-response","412","840502","0.0-12.0-0.49","fixation","","","","",""
"1937.5550000113435","Stimuli/Hangul_F96.bmp","188","image-keyboard-response","413","842441","0.0-12.0-1.49","test",".","",",","",""
"3843.2150000007823","<p style=""color:white;"">Phase I of the experiment is complete.</p> <p style=""color:white;"">Press the space bar to proceed to Phase II of the experiment.</p> ","32","html-keyboard-response","414","846287","0.0-13.0","","","","","",""
"127236.88499996206","<p style=""color:white;"">Now we are interested in how well you can predict patterns in the series of figures. You will be asked to predict whether the next figure in the series is more male-like or female-like. When you see the <q>Next Figure</q> prompt, press the corresponding response keys to indicate your prediction: </p><p style=""color:white;""> Male &#8594 <q>,</q> (comma)</p><p style=""color:white;""> Female &#8594 <q>.</q> (period)</p><p style=""color:white;"">The actual figure will then appear on the screen. After you see the figure, please guess the assigned gender with response keys. </p><p style=""color:white;"">As before, you will receive 2 cents for correctly classifying each figure.</p><p style=""color:white;"">Press either response keys to continue.</p>","188","html-keyboard-response","415","975531","0.0-14.0","","","","","",""
"10466.755000001285","<p style=""color:white;"">PREDICTION BONUS</p> <p style=""color:white;"">Your prediction accuracy is the total number of correct predictions you make over the 200 trials.</p> <p style=""color:white;"">In addition to the 2 cents per correct figure classification, you have the chance to receive a bonus of 40 dollars IF your accuracy is above average relative to previous participants.</p><p style=""color:white;"">If your accuracy is below average relative to previous participants, then you will not receive the 40 dollar bonus.</p><p style=""color:white;"">Press the space bar to continue.</p>","32","html-keyboard-response","416","986003","0.0-15.0","","","","","",""
"6132.785000023432","<p style=""color:white;"">Here are some examples.</p> <p style=""color:white;"">For each, predict whether the next figure looks more male-like or female-like. Then, when the figure appears, guess whether it looks more male-like or female-like and indicate your choice.</p> <p style=""color:white;"">Press the space bar to continue.</p>","32","html-keyboard-response","417","992138","0.0-16.0","","","","","",""
"2066.5400000289083","<p style=""color:white;""> Next Figure: Male or Female? </p>","188","html-keyboard-response","418","996210","0.0-17.0-0.0","prediction_train","","","",",",""
"null","<div style=""color:white; font-size:60px;"">+</div>","null","html-keyboard-response","419","997212","0.0-17.0-1.0","fixation","","","","",""
"2530.559999984689","Stimuli/Hangul_E2.bmp","190","image-keyboard-response","420","999746","0.0-17.0-2.0","c2_train",".","","","","."
"1718.5849999659695","<p style=""color:white;""> Next Figure: Male or Female? </p>","190","html-keyboard-response","421","1001474","0.0-17.0-0.1","prediction_train","","","",".",""
"null","<div style=""color:white; font-size:60px;"">+</div>","null","html-keyboard-response","422","1002479","0.0-17.0-1.1","fixation","","","","",""
"1917.1250000363216","Stimuli/Hangul_E0.bmp","190","image-keyboard-response","423","1004401","0.0-17.0-2.1","c2_train",",","","","","."
"1380.8000000426546","<p style=""color:white;""> Next Figure: Male or Female? </p>","188","html-keyboard-response","424","1005785","0.0-17.0-0.2","prediction_train","","","",",",""
"null","<div style=""color:white; font-size:60px;"">+</div>","null","html-keyboard-response","425","1006789","0.0-17.0-1.2","fixation","","","","",""
"1799.5300000184216","Stimuli/Hangul_E1.bmp","188","image-keyboard-response","426","1008592","0.0-17.0-2.2","c2_train",",","","","",","
"1855.1399999996647","<p style=""color:white;"">Let us begin! Press the space bar when you are ready to start block 1 of 4.</p> ","32","html-keyboard-response","427","1010451","0.0-18.0","","","","","",""
"578.9849999709986","<p style=""color:white;""> Next Figure: Male or Female? </p>","188","html-keyboard-response","428","1013035","0.0-19.0-0.0","prediction","","","",",",""
"null","<div style=""color:white; font-size:60px;"">+</div>","null","html-keyboard-response","429","1014039","0.0-19.0-1.0","fixation","","","","",""
"894.3399999989197","Stimuli/Hangul_F17.bmp","188","image-keyboard-response","430","1014938","0.0-19.0-2.0","c2_test",".","","","",","
"1142.3550000181422","<p style=""color:white;""> Next Figure: Male or Female? </p>","190","html-keyboard-response","431","1016082","0.0-19.0-0.1","prediction","","","",".",""
"null","<div style=""color:white; font-size:60px;"">+</div>","null","html-keyboard-response","432","1017086","0.0-19.0-1.1","fixation","","","","",""
"1189.4949999987148","Stimuli/Hangul_F4.bmp","188","image-keyboard-response","433","1018282","0.0-19.0-2.1","c2_test",".","","","",","
"733.6550000472926","<p style=""color:white;""> Next Figure: Male or Female? </p>","188","html-keyboard-response","434","1019019","0.0-19.0-0.2","prediction","","","",",",""
"null","<div style=""color:white; font-size:60px;"">+</div>","null","html-keyboard-response","435","1020023","0.0-19.0-1.2","fixation","","","","",""
"775.5449999822304","Stimuli/Hangul_M18.bmp","188","image-keyboard-response","436","1020801","0.0-19.0-2.2","c2_test",",","","","",","
"744.5549999829382","<p style=""color:white;""> Next Figure: Male or Female? </p>","190","html-keyboard-response","437","1021548","0.0-19.0-0.3","prediction","","","",".",""
"null","<div style=""color:white; font-size:60px;"">+</div>","null","html-keyboard-response","438","1022550","0.0-19.0-1.3","fixation","","","","",""
"1168.279999983497","Stimuli/Hangul_M24.bmp","190","image-keyboard-response","439","1023721","0.0-19.0-2.3","c2_test",",","","","","."
"821.7749999603257","<p style=""color:white;""> Next Figure: Male or Female? </p>","190","html-keyboard-response","440","1024545","0.0-19.0-0.4","prediction","","","",".",""
"null","<div style=""color:white; font-size:60px;"">+</div>","null","html-keyboard-response","441","1025548","0.0-19.0-1.4","fixation","","","","",""
"1995.4400000278838","Stimuli/Hangul_F20.bmp","188","image-keyboard-response","442","1027546","0.0-19.0-2.4","c2_test",".","","","",","
"590.1350000058301","<p style=""color:white;""> Next Figure: Male or Female? </p>","188","html-keyboard-response","443","1028138","0.0-19.0-0.5","prediction","","","",",",""
"null","<div style=""color:white; font-size:60px;"">+</div>","null","html-keyboard-response","444","1029144","0.0-19.0-1.5","fixation","","","","",""
"664.7450000164099","Stimuli/Hangul_F7.bmp","188","image-keyboard-response","445","1029820","0.0-19.0-2.5","c2_test",".","","","",","
"693.2799999485724","<p style=""color:white;""> Next Figure: Male or Female? </p>","188","html-keyboard-response","446","1030515","0.0-19.0-0.6","prediction","","","",",",""
"null","<div style=""color:white; font-size:60px;"">+</div>","null","html-keyboard-response","447","1031518","0.0-19.0-1.6","fixation","","","","",""
"776.8900000373833","Stimuli/Hangul_F9.bmp","188","image-keyboard-response","448","1032297","0.0-19.0-2.6","c2_test",".","","","",","
"662.9400000092573","<p style=""color:white;""> Next Figure: Male or Female? </p>","190","html-keyboard-response","449","1032962","0.0-19.0-0.7","prediction","","","",".",""
"null","<div style=""color:white; font-size:60px;"">+</div>","null","html-keyboard-response","450","1033964","0.0-19.0-1.7","fixation","","","","",""
"781.3399999868125","Stimuli/Hangul_M2.bmp","190","image-keyboard-response","451","1034748","0.0-19.0-2.7","c2_test",",","","","","."
"781.9599999929778","<p style=""color:white;""> Next Figure: Male or Female? </p>","190","html-keyboard-response","452","1035532","0.0-19.0-0.8","prediction","","","",".",""
"null","<div style=""color:white; font-size:60px;"">+</div>","null","html-keyboard-response","453","1036536","0.0-19.0-1.8","fixation","","","","",""
"804.6200000098906","Stimuli/Hangul_M0.bmp","190","image-keyboard-response","454","1037345","0.0-19.0-2.8","c2_test",",","","","","."
"478.8800000096671","<p style=""color:white;""> Next Figure: Male or Female? </p>","190","html-keyboard-response","455","1037825","0.0-19.0-0.9","prediction","","","",".",""
"null","<div style=""color:white; font-size:60px;"">+</div>","null","html-keyboard-response","456","1038827","0.0-19.0-1.9","fixation","","","","",""
"1125.5950000486337","Stimuli/Hangul_F5.bmp","190","image-keyboard-response","457","1039954","0.0-19.0-2.9","c2_test",".","","","","."
"495.41500001214445","<p style=""color:white;""> Next Figure: Male or Female? </p>","188","html-keyboard-response","458","1040452","0.0-19.0-0.10","prediction","","","",",",""
"null","<div style=""color:white; font-size:60px;"">+</div>","null","html-keyboard-response","459","1041455","0.0-19.0-1.10","fixation","","","","",""
"815.4550000326708","Stimuli/Hangul_F21.bmp","188","image-keyboard-response","460","1042274","0.0-19.0-2.10","c2_test",".","","","",","
"478.3799999859184","<p style=""color:white;""> Next Figure: Male or Female? </p>","188","html-keyboard-response","461","1042754","0.0-19.0-0.11","prediction","","","",",",""
"null","<div style=""color:white; font-size:60px;"">+</div>","null","html-keyboard-response","462","1043757","0.0-19.0-1.11","fixation","","","","",""
"988.6500000138767","Stimuli/Hangul_F8.bmp","190","image-keyboard-response","463","1044748","0.0-19.0-2.11","c2_test",".","","","","."
"418.1199999875389","<p style=""color:white;""> Next Figure: Male or Female? </p>","190","html-keyboard-response","464","1045169","0.0-19.0-0.12","prediction","","","",".",""
"null","<div style=""color:white; font-size:60px;"">+</div>","null","html-keyboard-response","465","1046172","0.0-19.0-1.12","fixation","","","","",""
"883.075000019744","Stimuli/Hangul_F12.bmp","188","image-keyboard-response","466","1047057","0.0-19.0-2.12","c2_test",".","","","",","
"392.29500002693385","<p style=""color:white;""> Next Figure: Male or Female? </p>","188","html-keyboard-response","467","1047451","0.0-19.0-0.13","prediction","","","",",",""
"null","<div style=""color:white; font-size:60px;"">+</div>","null","html-keyboard-response","468","1048455","0.0-19.0-1.13","fixation","","","","",""
"880.8699999935925","Stimuli/Hangul_M1.bmp","190","image-keyboard-response","469","1049339","0.0-19.0-2.13","c2_test",",","","","","."
"409.429999999702","<p style=""color:white;""> Next Figure: Male or Female? </p>","190","html-keyboard-response","470","1049755","0.0-19.0-0.14","prediction","","","",".",""
"null","<div style=""color:white; font-size:60px;"">+</div>","null","html-keyboard-response","471","1050766","0.0-19.0-1.14","fixation","","","","",""
"954.6649999683723","Stimuli/Hangul_M3.bmp","190","image-keyboard-response","472","1051727","0.0-19.0-2.14","c2_test",",","","","","."
"367.4750000354834","<p style=""color:white;""> Next Figure: Male or Female? </p>","190","html-keyboard-response","473","1052097","0.0-19.0-0.15","prediction","","","",".",""
"null","<div style=""color:white; font-size:60px;"">+</div>","null","html-keyboard-response","474","1053100","0.0-19.0-1.15","fixation","","","","",""
"2146.840000001248","Stimuli/Hangul_F19.bmp","188","image-keyboard-response","475","1055251","0.0-19.0-2.15","c2_test",".","","","",","
"436.06500001624227","<p style=""color:white;""> Next Figure: Male or Female? </p>","188","html-keyboard-response","476","1055691","0.0-19.0-0.16","prediction","","","",",",""
"null","<div style=""color:white; font-size:60px;"">+</div>","null","html-keyboard-response","477","1056693","0.0-19.0-1.16","fixation","","","","",""
"1225.4349999711849","Stimuli/Hangul_M7.bmp","188","image-keyboard-response","478","1057921","0.0-19.0-2.16","c2_test",",","","","",","
"480.10500002419576","<p style=""color:white;""> Next Figure: Male or Female? </p>","188","html-keyboard-response","479","1058403","0.0-19.0-0.17","prediction","","","",",",""
"null","<div style=""color:white; font-size:60px;"">+</div>","null","html-keyboard-response","480","1059408","0.0-19.0-1.17","fixation","","","","",""
"817.2900000354275","Stimuli/Hangul_F16.bmp","188","image-keyboard-response","481","1060228","0.0-19.0-2.17","c2_test",".","","","",","
"442.67000001855195","<p style=""color:white;""> Next Figure: Male or Female? </p>","190","html-keyboard-response","482","1060673","0.0-19.0-0.18","prediction","","","",".",""
"null","<div style=""color:white; font-size:60px;"">+</div>","null","html-keyboard-response","483","1061677","0.0-19.0-1.18","fixation","","","","",""
"960.0000000209548","Stimuli/Hangul_F3.bmp","188","image-keyboard-response","484","1062639","0.0-19.0-2.18","c2_test",".","","","",","
"376.3299999991432","<p style=""color:white;""> Next Figure: Male or Female? </p>","188","html-keyboard-response","485","1063018","0.0-19.0-0.19","prediction","","","",",",""
"null","<div style=""color:white; font-size:60px;"">+</div>","null","html-keyboard-response","486","1064020","0.0-19.0-1.19","fixation","","","","",""
"882.5950000318699","Stimuli/Hangul_F11.bmp","188","image-keyboard-response","487","1064905","0.0-19.0-2.19","c2_test",".","","","",","
"711.3699999754317","<p style=""color:white;""> Next Figure: Male or Female? </p>","190","html-keyboard-response","488","1065619","0.0-19.0-0.20","prediction","","","",".",""
"null","<div style=""color:white; font-size:60px;"">+</div>","null","html-keyboard-response","489","1066623","0.0-19.0-1.20","fixation","","","","",""
"991.5699999546632","Stimuli/Hangul_F1.bmp","190","image-keyboard-response","490","1067617","0.0-19.0-2.20","c2_test",".","","","","."
"318.8150000059977","<p style=""color:white;""> Next Figure: Male or Female? </p>","190","html-keyboard-response","491","1067938","0.0-19.0-0.21","prediction","","","",".",""
"null","<div style=""color:white; font-size:60px;"">+</div>","null","html-keyboard-response","492","1068945","0.0-19.0-1.21","fixation","","","","",""
"997.220000019297","Stimuli/Hangul_M14.bmp","188","image-keyboard-response","493","1069945","0.0-19.0-2.21","c2_test",",","","","",","
"303.6100000026636","<p style=""color:white;""> Next Figure: Male or Female? </p>","188","html-keyboard-response","494","1070251","0.0-19.0-0.22","prediction","","","",",",""
"null","<div style=""color:white; font-size:60px;"">+</div>","null","html-keyboard-response","495","1071254","0.0-19.0-1.22","fixation","","","","",""
"1608.429999963846","Stimuli/Hangul_M21.bmp","188","image-keyboard-response","496","1072866","0.0-19.0-2.22","c2_test",",","","","",","
"1558.8050000369549","<p style=""color:white;""> Next Figure: Male or Female? </p>","188","html-keyboard-response","497","1074427","0.0-19.0-0.23","prediction","","","",",",""
"null","<div style=""color:white; font-size:60px;"">+</div>","null","html-keyboard-response","498","1075431","0.0-19.0-1.23","fixation","","","","",""
"789.0100000076927","Stimuli/Hangul_M23.bmp","188","image-keyboard-response","499","1076224","0.0-19.0-2.23","c2_test",",","","","",","
"336.51500003179535","<p style=""color:white;""> Next Figure: Male or Female? </p>","190","html-keyboard-response","500","1076563","0.0-19.0-0.24","prediction","","","",".",""
"null","<div style=""color:white; font-size:60px;"">+</div>","null","html-keyboard-response","501","1077567","0.0-19.0-1.24","fixation","","","","",""
"1050.3050000406802","Stimuli/Hangul_M17.bmp","188","image-keyboard-response","502","1078620","0.0-19.0-2.24","c2_test",",","","","",","
"329.4049999676645","<p style=""color:white;""> Next Figure: Male or Female? </p>","190","html-keyboard-response","503","1078953","0.0-19.0-0.25","prediction","","","",".",""
"null","<div style=""color:white; font-size:60px;"">+</div>","null","html-keyboard-response","504","1079956","0.0-19.0-1.25","fixation","","","","",""
"1195.3349999967031","Stimuli/Hangul_F14.bmp","190","image-keyboard-response","505","1081153","0.0-19.0-2.25","c2_test",".","","","","."
"326.5399999800138","<p style=""color:white;""> Next Figure: Male or Female? </p>","190","html-keyboard-response","506","1081484","0.0-19.0-0.26","prediction","","","",".",""
"null","<div style=""color:white; font-size:60px;"">+</div>","null","html-keyboard-response","507","1082487","0.0-19.0-1.26","fixation","","","","",""
"915.5599999940023","Stimuli/Hangul_M16.bmp","188","image-keyboard-response","508","1083407","0.0-19.0-2.26","c2_test",",","","","",","
"438.85999999474734","<p style=""color:white;""> Next Figure: Male or Female? </p>","190","html-keyboard-response","509","1083849","0.0-19.0-0.27","prediction","","","",".",""
"null","<div style=""color:white; font-size:60px;"">+</div>","null","html-keyboard-response","510","1084851","0.0-19.0-1.27","fixation","","","","",""
"883.5749999852851","Stimuli/Hangul_F22.bmp","190","image-keyboard-response","511","1085737","0.0-19.0-2.27","c2_test",".","","","","."
"343.0499999667518","<p style=""color:white;""> Next Figure: Male or Female? </p>","190","html-keyboard-response","512","1086083","0.0-19.0-0.28","prediction","","","",".",""
"null","<div style=""color:white; font-size:60px;"">+</div>","null","html-keyboard-response","513","1087087","0.0-19.0-1.28","fixation","","","","",""
"846.5350000187755","Stimuli/Hangul_F6.bmp","188","image-keyboard-response","514","1087936","0.0-19.0-2.28","c2_test",".","","","",","
"407.34500001417473","<p style=""color:white;""> Next Figure: Male or Female? </p>","188","html-keyboard-response","515","1088346","0.0-19.0-0.29","prediction","","","",",",""
"null","<div style=""color:white; font-size:60px;"">+</div>","null","html-keyboard-response","516","1089347","0.0-19.0-1.29","fixation","","","","",""
"1873.0650000507012","Stimuli/Hangul_M19.bmp","188","image-keyboard-response","517","1091225","0.0-19.0-2.29","c2_test",",","","","",","
"850.70499998983","<p style=""color:white;""> Next Figure: Male or Female? </p>","188","html-keyboard-response","518","1092079","0.0-19.0-0.30","prediction","","","",",",""
"null","<div style=""color:white; font-size:60px;"">+</div>","null","html-keyboard-response","519","1093085","0.0-19.0-1.30","fixation","","","","",""
"2210.2600000216626","Stimuli/Hangul_M8.bmp","190","image-keyboard-response","520","1095298","0.0-19.0-2.30","c2_test",",","","","","."
"990.1799999643117","<p style=""color:white;""> Next Figure: Male or Female? </p>","190","html-keyboard-response","521","1096290","0.0-19.0-0.31","prediction","","","",".",""
"null","<div style=""color:white; font-size:60px;"">+</div>","null","html-keyboard-response","522","1097294","0.0-19.0-1.31","fixation","","","","",""
"934.9250000086613","Stimuli/Hangul_F24.bmp","190","image-keyboard-response","523","1098236","0.0-19.0-2.31","c2_test",".","","","","."
"315.7249999931082","<p style=""color:white;""> Next Figure: Male or Female? </p>","190","html-keyboard-response","524","1098554","0.0-19.0-0.32","prediction","","","",".",""
"null","<div style=""color:white; font-size:60px;"">+</div>","null","html-keyboard-response","525","1099557","0.0-19.0-1.32","fixation","","","","",""
"722.8600000380538","Stimuli/Hangul_F23.bmp","190","image-keyboard-response","526","1100283","0.0-19.0-2.32","c2_test",".","","","","."
"275.179999996908","<p style=""color:white;""> Next Figure: Male or Female? </p>","190","html-keyboard-response","527","1100562","0.0-19.0-0.33","prediction","","","",".",""
"null","<div style=""color:white; font-size:60px;"">+</div>","null","html-keyboard-response","528","1101600","0.0-19.0-1.33","fixation","","","","",""
"1081.1649999814108","Stimuli/Hangul_M12.bmp","188","image-keyboard-response","529","1102683","0.0-19.0-2.33","c2_test",",","","","",","
"381.8149999715388","<p style=""color:white;""> Next Figure: Male or Female? </p>","188","html-keyboard-response","530","1103066","0.0-19.0-0.34","prediction","","","",",",""
"null","<div style=""color:white; font-size:60px;"">+</div>","null","html-keyboard-response","531","1104068","0.0-19.0-1.34","fixation","","","","",""
"677.579999959562","Stimuli/Hangul_M10.bmp","188","image-keyboard-response","532","1104748","0.0-19.0-2.34","c2_test",",","","","",","
"257.6499999850057","<p style=""color:white;""> Next Figure: Male or Female? </p>","188","html-keyboard-response","533","1105008","0.0-19.0-0.35","prediction","","","",",",""
"null","<div style=""color:white; font-size:60px;"">+</div>","null","html-keyboard-response","534","1106010","0.0-19.0-1.35","fixation","","","","",""
"918.9299999852665","Stimuli/Hangul_M9.bmp","190","image-keyboard-response","535","1106931","0.0-19.0-2.35","c2_test",",","","","","."
"324.0549999754876","<p style=""color:white;""> Next Figure: Male or Female? </p>","190","html-keyboard-response","536","1107258","0.0-19.0-0.36","prediction","","","",".",""
"null","<div style=""color:white; font-size:60px;"">+</div>","null","html-keyboard-response","537","1108260","0.0-19.0-1.36","fixation","","","","",""
"854.1400000103749","Stimuli/Hangul_M13.bmp","188","image-keyboard-response","538","1109117","0.0-19.0-2.36","c2_test",",","","","",","
"407.51500002807006","<p style=""color:white;""> Next Figure: Male or Female? </p>","190","html-keyboard-response","539","1109530","0.0-19.0-0.37","prediction","","","",".",""
"null","<div style=""color:white; font-size:60px;"">+</div>","null","html-keyboard-response","540","1110535","0.0-19.0-1.37","fixation","","","","",""
"646.5350000071339","Stimuli/Hangul_F2.bmp","190","image-keyboard-response","541","1111186","0.0-19.0-2.37","c2_test",".","","","","."
"275.9749999968335","<p style=""color:white;""> Next Figure: Male or Female? </p>","190","html-keyboard-response","542","1111465","0.0-19.0-0.38","prediction","","","",".",""
"null","<div style=""color:white; font-size:60px;"">+</div>","null","html-keyboard-response","543","1112470","0.0-19.0-1.38","fixation","","","","",""
"880.9900000342168","Stimuli/Hangul_M22.bmp","190","image-keyboard-response","544","1113354","0.0-19.0-2.38","c2_test",",","","","","."
"518.5449999989942","<p style=""color:white;""> Next Figure: Male or Female? </p>","188","html-keyboard-response","545","1113875","0.0-19.0-0.39","prediction","","","",",",""
"null","<div style=""color:white; font-size:60px;"">+</div>","null","html-keyboard-response","546","1114878","0.0-19.0-1.39","fixation","","","","",""
"618.7599999830127","Stimuli/Hangul_F15.bmp","188","image-keyboard-response","547","1115499","0.0-19.0-2.39","c2_test",".","","","",","
"564.7500000195578","<p style=""color:white;""> Next Figure: Male or Female? </p>","188","html-keyboard-response","548","1116067","0.0-19.0-0.40","prediction","","","",",",""
"null","<div style=""color:white; font-size:60px;"">+</div>","null","html-keyboard-response","549","1117070","0.0-19.0-1.40","fixation","","","","",""
"1111.4650000235997","Stimuli/Hangul_M20.bmp","188","image-keyboard-response","550","1118187","0.0-19.0-2.40","c2_test",",","","","",","
"324.93499998236075","<p style=""color:white;""> Next Figure: Male or Female? </p>","188","html-keyboard-response","551","1118514","0.0-19.0-0.41","prediction","","","",",",""
"null","<div style=""color:white; font-size:60px;"">+</div>","null","html-keyboard-response","552","1119516","0.0-19.0-1.41","fixation","","","","",""
"900.2949999994598","Stimuli/Hangul_M11.bmp","188","image-keyboard-response","553","1120419","0.0-19.0-2.41","c2_test",",","","","",","
"523.5649999813177","<p style=""color:white;""> Next Figure: Male or Female? </p>","190","html-keyboard-response","554","1120945","0.0-19.0-0.42","prediction","","","",".",""
"null","<div style=""color:white; font-size:60px;"">+</div>","null","html-keyboard-response","555","1121948","0.0-19.0-1.42","fixation","","","","",""
"786.7300000507385","Stimuli/Hangul_M5.bmp","190","image-keyboard-response","556","1122736","0.0-19.0-2.42","c2_test",",","","","","."
"360.43500003870577","<p style=""color:white;""> Next Figure: Male or Female? </p>","190","html-keyboard-response","557","1123098","0.0-19.0-0.43","prediction","","","",".",""
"null","<div style=""color:white; font-size:60px;"">+</div>","null","html-keyboard-response","558","1124101","0.0-19.0-1.43","fixation","","","","",""
"722.5350000080653","Stimuli/Hangul_M4.bmp","188","image-keyboard-response","559","1124825","0.0-19.0-2.43","c2_test",",","","","",","
"431.86499999137595","<p style=""color:white;""> Next Figure: Male or Female? </p>","188","html-keyboard-response","560","1125259","0.0-19.0-0.44","prediction","","","",",",""
"null","<div style=""color:white; font-size:60px;"">+</div>","null","html-keyboard-response","561","1126262","0.0-19.0-1.44","fixation","","","","",""
"824.6999999973923","Stimuli/Hangul_M15.bmp","188","image-keyboard-response","562","1127091","0.0-19.0-2.44","c2_test",",","","","",","
"364.75499998778105","<p style=""color:white;""> Next Figure: Male or Female? </p>","188","html-keyboard-response","563","1127458","0.0-19.0-0.45","prediction","","","",",",""
"null","<div style=""color:white; font-size:60px;"">+</div>","null","html-keyboard-response","564","1128462","0.0-19.0-1.45","fixation","","","","",""
"780.4900000337511","Stimuli/Hangul_F18.bmp","190","image-keyboard-response","565","1129245","0.0-19.0-2.45","c2_test",".","","","","."
"394.0450000227429","<p style=""color:white;""> Next Figure: Male or Female? </p>","190","html-keyboard-response","566","1129640","0.0-19.0-0.46","prediction","","","",".",""
"null","<div style=""color:white; font-size:60px;"">+</div>","null","html-keyboard-response","567","1130642","0.0-19.0-1.46","fixation","","","","",""
"2340.874999994412","Stimuli/Hangul_F13.bmp","188","image-keyboard-response","568","1132984","0.0-19.0-2.46","c2_test",".","","","",","
"416.97500000009313","<p style=""color:white;""> Next Figure: Male or Female? </p>","188","html-keyboard-response","569","1133404","0.0-19.0-0.47","prediction","","","",",",""
"null","<div style=""color:white; font-size:60px;"">+</div>","null","html-keyboard-response","570","1134408","0.0-19.0-1.47","fixation","","","","",""
"759.894999966491","Stimuli/Hangul_F10.bmp","190","image-keyboard-response","571","1135169","0.0-19.0-2.47","c2_test",".","","","","."
"374.19499998213723","<p style=""color:white;""> Next Figure: Male or Female? </p>","190","html-keyboard-response","572","1135546","0.0-19.0-0.48","prediction","","","",".",""
"null","<div style=""color:white; font-size:60px;"">+</div>","null","html-keyboard-response","573","1136549","0.0-19.0-1.48","fixation","","","","",""
"921.7250000219792","Stimuli/Hangul_F0.bmp","188","image-keyboard-response","574","1137475","0.0-19.0-2.48","c2_test",".","","","",","
"442.07500002812594","<p style=""color:white;""> Next Figure: Male or Female? </p>","190","html-keyboard-response","575","1137920","0.0-19.0-0.49","prediction","","","",".",""
"null","<div style=""color:white; font-size:60px;"">+</div>","null","html-keyboard-response","576","1138923","0.0-19.0-1.49","fixation","","","","",""
"685.7399999862537","Stimuli/Hangul_M6.bmp","190","image-keyboard-response","577","1139615","0.0-19.0-2.49","c2_test",",","","","","."
"56242.09499999415","<p style=""color:white;"">Good job, block 1 complete! Please take a moment to rest.</p> <p style=""color:white;"">When you are ready to continue with block 2 of 4, press the space bar.</p> ","32","html-keyboard-response","578","1195862","0.0-20.0","","","","","",""
"510.9950000187382","<p style=""color:white;""> Next Figure: Male or Female? </p>","188","html-keyboard-response","579","1198378","0.0-21.0-0.0","prediction","","","",",",""
"null","<div style=""color:white; font-size:60px;"">+</div>","null","html-keyboard-response","580","1199382","0.0-21.0-1.0","fixation","","","","",""
"822.455000015907","Stimuli/Hangul_F43.bmp","188","image-keyboard-response","581","1200209","0.0-21.0-2.0","c2_test",".","","","",","
"387.5650000409223","<p style=""color:white;""> Next Figure: Male or Female? </p>","190","html-keyboard-response","582","1200601","0.0-21.0-0.1","prediction","","","",".",""
"null","<div style=""color:white; font-size:60px;"">+</div>","null","html-keyboard-response","583","1201605","0.0-21.0-1.1","fixation","","","","",""
"817.4499999731779","Stimuli/Hangul_F37.bmp","190","image-keyboard-response","584","1202426","0.0-21.0-2.1","c2_test",".","","","","."
"335.2300000260584","<p style=""color:white;""> Next Figure: Male or Female? </p>","190","html-keyboard-response","585","1202769","0.0-21.0-0.2","prediction","","","",".",""
"null","<div style=""color:white; font-size:60px;"">+</div>","null","html-keyboard-response","586","1203774","0.0-21.0-1.2","fixation","","","","",""
"763.4349999716505","Stimuli/Hangul_F38.bmp","190","image-keyboard-response","587","1204545","0.0-21.0-2.2","c2_test",".","","","","."
"405.22999997483566","<p style=""color:white;""> Next Figure: Male or Female? </p>","188","html-keyboard-response","588","1204952","0.0-21.0-0.3","prediction","","","",",",""
"null","<div style=""color:white; font-size:60px;"">+</div>","null","html-keyboard-response","589","1205954","0.0-21.0-1.3","fixation","","","","",""
"693.8450000016019","Stimuli/Hangul_M44.bmp","188","image-keyboard-response","590","1206651","0.0-21.0-2.3","c2_test",",","","","",","
"451.3600000063889","<p style=""color:white;""> Next Figure: Male or Female? </p>","188","html-keyboard-response","591","1207104","0.0-21.0-0.4","prediction","","","",",",""
"null","<div style=""color:white; font-size:60px;"">+</div>","null","html-keyboard-response","592","1208108","0.0-21.0-1.4","fixation","","","","",""
"546.5050000348128","Stimuli/Hangul_M26.bmp","188","image-keyboard-response","593","1208657","0.0-21.0-2.4","c2_test",",","","","",","
"422.469999990426","<p style=""color:white;""> Next Figure: Male or Female? </p>","188","html-keyboard-response","594","1209082","0.0-21.0-0.5","prediction","","","",",",""
"null","<div style=""color:white; font-size:60px;"">+</div>","null","html-keyboard-response","595","1210086","0.0-21.0-1.5","fixation","","","","",""
"600.3749999799766","Stimuli/Hangul_F32.bmp","188","image-keyboard-response","596","1210689","0.0-21.0-2.5","c2_test",".","","","",","
"344.1549999988638","<p style=""color:white;""> Next Figure: Male or Female? </p>","190","html-keyboard-response","597","1211036","0.0-21.0-0.6","prediction","","","",".",""
"null","<div style=""color:white; font-size:60px;"">+</div>","null","html-keyboard-response","598","1212039","0.0-21.0-1.6","fixation","","","","",""
"838.2099999580532","Stimuli/Hangul_M29.bmp","190","image-keyboard-response","599","1212880","0.0-21.0-2.6","c2_test",",","","","","."
"454.3899999698624","<p style=""color:white;""> Next Figure: Male or Female? </p>","190","html-keyboard-response","600","1213336","0.0-21.0-0.7","prediction","","","",".",""
"null","<div style=""color:white; font-size:60px;"">+</div>","null","html-keyboard-response","601","1214338","0.0-21.0-1.7","fixation","","","","",""
"708.1400000024587","Stimuli/Hangul_F44.bmp","190","image-keyboard-response","602","1215048","0.0-21.0-2.7","c2_test",".","","","","."
"486.670000012964","<p style=""color:white;""> Next Figure: Male or Female? </p>","190","html-keyboard-response","603","1215536","0.0-21.0-0.8","prediction","","","",".",""
"null","<div style=""color:white; font-size:60px;"">+</div>","null","html-keyboard-response","604","1216539","0.0-21.0-1.8","fixation","","","","",""
"927.6500000269152","Stimuli/Hangul_F33.bmp","188","image-keyboard-response","605","1217470","0.0-21.0-2.8","c2_test",".","","","",","
"456.91499998793006","<p style=""color:white;""> Next Figure: Male or Female? </p>","190","html-keyboard-response","606","1217928","0.0-21.0-0.9","prediction","","","",".",""
"null","<div style=""color:white; font-size:60px;"">+</div>","null","html-keyboard-response","607","1218930","0.0-21.0-1.9","fixation","","","","",""
"851.714999997057","Stimuli/Hangul_F25.bmp","190","image-keyboard-response","608","1219784","0.0-21.0-2.9","c2_test",".","","","","."
"457.1400000131689","<p style=""color:white;""> Next Figure: Male or Female? </p>","188","html-keyboard-response","609","1220243","0.0-21.0-0.10","prediction","","","",",",""
"null","<div style=""color:white; font-size:60px;"">+</div>","null","html-keyboard-response","610","1221247","0.0-21.0-1.10","fixation","","","","",""
"1038.7299999711104","Stimuli/Hangul_M40.bmp","188","image-keyboard-response","611","1222288","0.0-21.0-2.10","c2_test",",","","","",","
"310.9499999554828","<p style=""color:white;""> Next Figure: Male or Female? </p>","188","html-keyboard-response","612","1222601","0.0-21.0-0.11","prediction","","","",",",""
"null","<div style=""color:white; font-size:60px;"">+</div>","null","html-keyboard-response","613","1223603","0.0-21.0-1.11","fixation","","","","",""
"1139.45000001695","Stimuli/Hangul_F46.bmp","188","image-keyboard-response","614","1224746","0.0-21.0-2.11","c2_test",".","","","",","
"334.8350000451319","<p style=""color:white;""> Next Figure: Male or Female? </p>","190","html-keyboard-response","615","1225083","0.0-21.0-0.12","prediction","","","",".",""
"null","<div style=""color:white; font-size:60px;"">+</div>","null","html-keyboard-response","616","1226087","0.0-21.0-1.12","fixation","","","","",""
"1037.110000033863","Stimuli/Hangul_M34.bmp","188","image-keyboard-response","617","1227129","0.0-21.0-2.12","c2_test",",","","","",","
"285.2049999637529","<p style=""color:white;""> Next Figure: Male or Female? </p>","190","html-keyboard-response","618","1227417","0.0-21.0-0.13","prediction","","","",".",""
"null","<div style=""color:white; font-size:60px;"">+</div>","null","html-keyboard-response","619","1228419","0.0-21.0-1.13","fixation","","","","",""
"781.4800000051036","Stimuli/Hangul_F47.bmp","190","image-keyboard-response","620","1229203","0.0-21.0-2.13","c2_test",".","","","","."
"332.3649999802001","<p style=""color:white;""> Next Figure: Male or Female? </p>","190","html-keyboard-response","621","1229539","0.0-21.0-0.14","prediction","","","",".",""
"null","<div style=""color:white; font-size:60px;"">+</div>","null","html-keyboard-response","622","1230541","0.0-21.0-1.14","fixation","","","","",""
"842.899999988731","Stimuli/Hangul_M36.bmp","188","image-keyboard-response","623","1231387","0.0-21.0-2.14","c2_test",",","","","",","
"314.9349999730475","<p style=""color:white;""> Next Figure: Male or Female? </p>","188","html-keyboard-response","624","1231705","0.0-21.0-0.15","prediction","","","",",",""
"null","<div style=""color:white; font-size:60px;"">+</div>","null","html-keyboard-response","625","1232708","0.0-21.0-1.15","fixation","","","","",""
"1137.2999999439344","Stimuli/Hangul_F28.bmp","188","image-keyboard-response","626","1233848","0.0-21.0-2.15","c2_test",".","","","",","
"327.1349999704398","<p style=""color:white;""> Next Figure: Male or Female? </p>","190","html-keyboard-response","627","1234179","0.0-21.0-0.16","prediction","","","",".",""
"null","<div style=""color:white; font-size:60px;"">+</div>","null","html-keyboard-response","628","1235184","0.0-21.0-1.16","fixation","","","","",""
"871.5599999995902","Stimuli/Hangul_F35.bmp","188","image-keyboard-response","629","1236058","0.0-21.0-2.16","c2_test",".","","","",","
"318.7400000169873","<p style=""color:white;""> Next Figure: Male or Female? </p>","190","html-keyboard-response","630","1236385","0.0-21.0-0.17","prediction","","","",".",""
"null","<div style=""color:white; font-size:60px;"">+</div>","null","html-keyboard-response","631","1237388","0.0-21.0-1.17","fixation","","","","",""
"1083.8549999753013","Stimuli/Hangul_M33.bmp","190","image-keyboard-response","632","1238474","0.0-21.0-2.17","c2_test",",","","","","."
"300.649999990128","<p style=""color:white;""> Next Figure: Male or Female? </p>","190","html-keyboard-response","633","1238777","0.0-21.0-0.18","prediction","","","",".",""
"null","<div style=""color:white; font-size:60px;"">+</div>","null","html-keyboard-response","634","1239780","0.0-21.0-1.18","fixation","","","","",""
"1044.3150000064634","Stimuli/Hangul_F48.bmp","190","image-keyboard-response","635","1240826","0.0-21.0-2.18","c2_test",".","","","","."
"317.3100000130944","<p style=""color:white;""> Next Figure: Male or Female? </p>","188","html-keyboard-response","636","1241145","0.0-21.0-0.19","prediction","","","",",",""
"null","<div style=""color:white; font-size:60px;"">+</div>","null","html-keyboard-response","637","1242149","0.0-21.0-1.19","fixation","","","","",""
"696.6100000427105","Stimuli/Hangul_F40.bmp","188","image-keyboard-response","638","1242848","0.0-21.0-2.19","c2_test",".","","","",","
"333.6400000262074","<p style=""color:white;""> Next Figure: Male or Female? </p>","188","html-keyboard-response","639","1243185","0.0-21.0-0.20","prediction","","","",",",""
"null","<div style=""color:white; font-size:60px;"">+</div>","null","html-keyboard-response","640","1244189","0.0-21.0-1.20","fixation","","","","",""
"622.2100000013597","Stimuli/Hangul_F49.bmp","188","image-keyboard-response","641","1244816","0.0-21.0-2.20","c2_test",".","","","",","
"286.9899999932386","<p style=""color:white;""> Next Figure: Male or Female? </p>","188","html-keyboard-response","642","1245105","0.0-21.0-0.21","prediction","","","",",",""
"null","<div style=""color:white; font-size:60px;"">+</div>","null","html-keyboard-response","643","1246113","0.0-21.0-1.21","fixation","","","","",""
"1171.9800000428222","Stimuli/Hangul_F26.bmp","188","image-keyboard-response","644","1247291","0.0-21.0-2.21","c2_test",".","","","",","
"356.7850000108592","<p style=""color:white;""> Next Figure: Male or Female? </p>","190","html-keyboard-response","645","1247653","0.0-21.0-0.22","prediction","","","",".",""
"null","<div style=""color:white; font-size:60px;"">+</div>","null","html-keyboard-response","646","1248657","0.0-21.0-1.22","fixation","","","","",""
"902.1300000022165","Stimuli/Hangul_M35.bmp","188","image-keyboard-response","647","1249562","0.0-21.0-2.22","c2_test",",","","","",","
"370.7399999839254","<p style=""color:white;""> Next Figure: Male or Female? </p>","190","html-keyboard-response","648","1249937","0.0-21.0-0.23","prediction","","","",".",""
"null","<div style=""color:white; font-size:60px;"">+</div>","null","html-keyboard-response","649","1250946","0.0-21.0-1.23","fixation","","","","",""
"805.9299999731593","Stimuli/Hangul_F29.bmp","190","image-keyboard-response","650","1251753","0.0-21.0-2.23","c2_test",".","","","","."
"413.07499998947605","<p style=""color:white;""> Next Figure: Male or Female? </p>","190","html-keyboard-response","651","1252168","0.0-21.0-0.24","prediction","","","",".",""
"null","<div style=""color:white; font-size:60px;"">+</div>","null","html-keyboard-response","652","1253171","0.0-21.0-1.24","fixation","","","","",""
"771.550000004936","Stimuli/Hangul_M25.bmp","188","image-keyboard-response","653","1253944","0.0-21.0-2.24","c2_test",",","","","",","
"510.26000001002103","<p style=""color:white;""> Next Figure: Male or Female? </p>","190","html-keyboard-response","654","1254456","0.0-21.0-0.25","prediction","","","",".",""
"null","<div style=""color:white; font-size:60px;"">+</div>","null","html-keyboard-response","655","1255459","0.0-21.0-1.25","fixation","","","","",""
