"rt","stimulus","key_press","trial_type","trial_index","time_elapsed","internal_node_id","test_part","correct_response","C1_train","C1","A","C2"
"3699.625000008382","<p style=""color:white;"">Welcome to the experiment! Press any key to begin.</p>","32","html-keyboard-response","0","3713","0.0-0.0","","","","","",""
"37548.28499999712","<p style=""color:white;"">You will see a series of abstract figures. They are adaptations of signs in the Korean alphabet, but that is not important for this study. </p><p style=""color:white;"">Abstract figures sometimes have a more masculine or feminine shape. Here, each figure has already been assigned a gender as <q>Male</q> or <q>Female</q> by a panel of respondents in a pilot study. The respondents were not given specific instructions on how to do this, but were only told to use their intuition and to take into account the entire configuration of the stimulus. </p><p style=""color:white;"">Your task now is to guess the assigned gender of each figure. Please press the corresponding response keys to indicate your choice: </p><p style=""color:white;""> Male &#8594 <q>,</q> (comma)</p><p style=""color:white;""> Female &#8594 <q>.</q> (period)</p><p style=""color:white;"">Press either response keys to continue.</p>","190","html-keyboard-response","1","41265","0.0-1.0","","","","","",""
"13102.774999992107","<p style=""color:white;"">Your choice is correct if it matches the gender assigned by the majority of respondents in the pilot study.</p> <p style=""color:white;"">For each correct choice you will receive 2 cents. There will be 200 trials divided into 4 blocks of 50 trials. You will be able to take a break after every 50 trials.</p> <p style=""color:white;"">Press the space bar to continue.</p>","32","html-keyboard-response","2","54370","0.0-2.0","","","","","",""
"5047.570000009728","<p style=""color:white;"">Here are some examples.</p> <p style=""color:white;"">For each, guess whether the assigned figure is male-like or female-like and indicate your choice by pressing either response keys.</p> <p style=""color:white;"">Press the space bar to continue.</p>","32","html-keyboard-response","3","59419","0.0-3.0","","","","","",""
"null","<div style=""color:white; font-size:60px;"">+</div>","null","html-keyboard-response","4","62424","0.0-4.0-0.0","fixation","","","","",""
"2508.205000005546","Stimuli/Hangul_E0.bmp","188","image-keyboard-response","5","64937","0.0-4.0-1.0","c1_train",",",",","","",""
"null","<div style=""color:white; font-size:60px;"">+</div>","null","html-keyboard-response","6","65942","0.0-4.0-0.1","fixation","","","","",""
"3177.979999993113","Stimuli/Hangul_E2.bmp","190","image-keyboard-response","7","69123","0.0-4.0-1.1","c1_train",".",".","","",""
"null","<div style=""color:white; font-size:60px;"">+</div>","null","html-keyboard-response","8","70125","0.0-4.0-0.2","fixation","","","","",""
"3687.594999995781","Stimuli/Hangul_E1.bmp","188","image-keyboard-response","9","73814","0.0-4.0-1.2","c1_train",",",",","","",""
"2554.520000005141","<p style=""color:white;"">Let us begin! Press the space bar when you are ready to start block 1 of 4.</p> ","32","html-keyboard-response","10","76371","0.0-5.0","","","","","",""
"null","<div style=""color:white; font-size:60px;"">+</div>","null","html-keyboard-response","11","79374","0.0-6.0-0.0","fixation","","","","",""
"3889.9949999904493","Stimuli/Hangul_F10.bmp","190","image-keyboard-response","12","83266","0.0-6.0-1.0","test",".","",".","",""
"null","<div style=""color:white; font-size:60px;"">+</div>","null","html-keyboard-response","13","84269","0.0-6.0-0.1","fixation","","","","",""
"4989.9399999994785","Stimuli/Hangul_F6.bmp","190","image-keyboard-response","14","89260","0.0-6.0-1.1","test",".","",".","",""
"null","<div style=""color:white; font-size:60px;"">+</div>","null","html-keyboard-response","15","90262","0.0-6.0-0.2","fixation","","","","",""
"2934.560000008787","Stimuli/Hangul_M12.bmp","188","image-keyboard-response","16","93199","0.0-6.0-1.2","test",",","",",","",""
"null","<div style=""color:white; font-size:60px;"">+</div>","null","html-keyboard-response","17","94202","0.0-6.0-0.3","fixation","","","","",""
"3392.789999998058","Stimuli/Hangul_F4.bmp","190","image-keyboard-response","18","97595","0.0-6.0-1.3","test",".","",".","",""
"null","<div style=""color:white; font-size:60px;"">+</div>","null","html-keyboard-response","19","98597","0.0-6.0-0.4","fixation","","","","",""
"2974.2000000114786","Stimuli/Hangul_F15.bmp","188","image-keyboard-response","20","101572","0.0-6.0-1.4","test",".","",",","",""
"null","<div style=""color:white; font-size:60px;"">+</div>","null","html-keyboard-response","21","102576","0.0-6.0-0.5","fixation","","","","",""
"3354.705000005197","Stimuli/Hangul_M13.bmp","188","image-keyboard-response","22","105932","0.0-6.0-1.5","test",",","",",","",""
"null","<div style=""color:white; font-size:60px;"">+</div>","null","html-keyboard-response","23","106934","0.0-6.0-0.6","fixation","","","","",""
"3516.8499999999767","Stimuli/Hangul_F12.bmp","188","image-keyboard-response","24","110451","0.0-6.0-1.6","test",".","",",","",""
"null","<div style=""color:white; font-size:60px;"">+</div>","null","html-keyboard-response","25","111490","0.0-6.0-0.7","fixation","","","","",""
"3541.3750000006985","Stimuli/Hangul_M7.bmp","190","image-keyboard-response","26","115041","0.0-6.0-1.7","test",",","",".","",""
"null","<div style=""color:white; font-size:60px;"">+</div>","null","html-keyboard-response","27","116044","0.0-6.0-0.8","fixation","","","","",""
"3224.229999992531","Stimuli/Hangul_M14.bmp","188","image-keyboard-response","28","119269","0.0-6.0-1.8","test",",","",",","",""
"null","<div style=""color:white; font-size:60px;"">+</div>","null","html-keyboard-response","29","120272","0.0-6.0-0.9","fixation","","","","",""
"3079.780000000028","Stimuli/Hangul_M16.bmp","188","image-keyboard-response","30","123354","0.0-6.0-1.9","test",",","",",","",""
"null","<div style=""color:white; font-size:60px;"">+</div>","null","html-keyboard-response","31","124356","0.0-6.0-0.10","fixation","","","","",""
"3636.7299999983516","Stimuli/Hangul_F24.bmp","190","image-keyboard-response","32","127994","0.0-6.0-1.10","test",".","",".","",""
"null","<div style=""color:white; font-size:60px;"">+</div>","null","html-keyboard-response","33","128997","0.0-6.0-0.11","fixation","","","","",""
"2825.7699999958277","Stimuli/Hangul_F9.bmp","188","image-keyboard-response","34","131824","0.0-6.0-1.11","test",".","",",","",""
"null","<div style=""color:white; font-size:60px;"">+</div>","null","html-keyboard-response","35","132827","0.0-6.0-0.12","fixation","","","","",""
"4102.444999996806","Stimuli/Hangul_M20.bmp","188","image-keyboard-response","36","136932","0.0-6.0-1.12","test",",","",",","",""
"null","<div style=""color:white; font-size:60px;"">+</div>","null","html-keyboard-response","37","137933","0.0-6.0-0.13","fixation","","","","",""
"3040.3800000058254","Stimuli/Hangul_M22.bmp","188","image-keyboard-response","38","140975","0.0-6.0-1.13","test",",","",",","",""
"null","<div style=""color:white; font-size:60px;"">+</div>","null","html-keyboard-response","39","141978","0.0-6.0-0.14","fixation","","","","",""
"3132.339999996475","Stimuli/Hangul_M0.bmp","190","image-keyboard-response","40","145113","0.0-6.0-1.14","test",",","",".","",""
"null","<div style=""color:white; font-size:60px;"">+</div>","null","html-keyboard-response","41","146116","0.0-6.0-0.15","fixation","","","","",""
"3853.080000000773","Stimuli/Hangul_M4.bmp","188","image-keyboard-response","42","149970","0.0-6.0-1.15","test",",","",",","",""
"null","<div style=""color:white; font-size:60px;"">+</div>","null","html-keyboard-response","43","150973","0.0-6.0-0.16","fixation","","","","",""
"2745.1600000058534","Stimuli/Hangul_F1.bmp","190","image-keyboard-response","44","153719","0.0-6.0-1.16","test",".","",".","",""
"null","<div style=""color:white; font-size:60px;"">+</div>","null","html-keyboard-response","45","154767","0.0-6.0-0.17","fixation","","","","",""
"3749.7950000106357","Stimuli/Hangul_F11.bmp","188","image-keyboard-response","46","158521","0.0-6.0-1.17","test",".","",",","",""
"null","<div style=""color:white; font-size:60px;"">+</div>","null","html-keyboard-response","47","159524","0.0-6.0-0.18","fixation","","","","",""
"2877.1449999912875","Stimuli/Hangul_M15.bmp","188","image-keyboard-response","48","162402","0.0-6.0-1.18","test",",","",",","",""
"null","<div style=""color:white; font-size:60px;"">+</div>","null","html-keyboard-response","49","163405","0.0-6.0-0.19","fixation","","","","",""
"4147.879999989527","Stimuli/Hangul_M24.bmp","188","image-keyboard-response","50","167555","0.0-6.0-1.19","test",",","",",","",""
"null","<div style=""color:white; font-size:60px;"">+</div>","null","html-keyboard-response","51","168558","0.0-6.0-0.20","fixation","","","","",""
"4888.95500000217","Stimuli/Hangul_F5.bmp","188","image-keyboard-response","52","173450","0.0-6.0-1.20","test",".","",",","",""
"null","<div style=""color:white; font-size:60px;"">+</div>","null","html-keyboard-response","53","174452","0.0-6.0-0.21","fixation","","","","",""
"4197.975000002771","Stimuli/Hangul_F7.bmp","190","image-keyboard-response","54","178651","0.0-6.0-1.21","test",".","",".","",""
"null","<div style=""color:white; font-size:60px;"">+</div>","null","html-keyboard-response","55","179654","0.0-6.0-0.22","fixation","","","","",""
"4461.559999996098","Stimuli/Hangul_M19.bmp","188","image-keyboard-response","56","184118","0.0-6.0-1.22","test",",","",",","",""
"null","<div style=""color:white; font-size:60px;"">+</div>","null","html-keyboard-response","57","185121","0.0-6.0-0.23","fixation","","","","",""
"2640.625","Stimuli/Hangul_M18.bmp","188","image-keyboard-response","58","187764","0.0-6.0-1.23","test",",","",",","",""
"null","<div style=""color:white; font-size:60px;"">+</div>","null","html-keyboard-response","59","188767","0.0-6.0-0.24","fixation","","","","",""
"4610.504999989644","Stimuli/Hangul_M11.bmp","188","image-keyboard-response","60","193379","0.0-6.0-1.24","test",",","",",","",""
"null","<div style=""color:white; font-size:60px;"">+</div>","null","html-keyboard-response","61","194382","0.0-6.0-0.25","fixation","","","","",""
"3444.6400000015274","Stimuli/Hangul_F22.bmp","188","image-keyboard-response","62","197830","0.0-6.0-1.25","test",".","",",","",""
"null","<div style=""color:white; font-size:60px;"">+</div>","null","html-keyboard-response","63","198831","0.0-6.0-0.26","fixation","","","","",""
"3306.3899999979185","Stimuli/Hangul_M9.bmp","190","image-keyboard-response","64","202139","0.0-6.0-1.26","test",",","",".","",""
"null","<div style=""color:white; font-size:60px;"">+</div>","null","html-keyboard-response","65","203192","0.0-6.0-0.27","fixation","","","","",""
"4124.31500000821","Stimuli/Hangul_F8.bmp","190","image-keyboard-response","66","207319","0.0-6.0-1.27","test",".","",".","",""
"null","<div style=""color:white; font-size:60px;"">+</div>","null","html-keyboard-response","67","208322","0.0-6.0-0.28","fixation","","","","",""
"5271.984999999404","Stimuli/Hangul_F14.bmp","190","image-keyboard-response","68","213597","0.0-6.0-1.28","test",".","",".","",""
"null","<div style=""color:white; font-size:60px;"">+</div>","null","html-keyboard-response","69","214604","0.0-6.0-0.29","fixation","","","","",""
"2607.929999998305","Stimuli/Hangul_F18.bmp","190","image-keyboard-response","70","217213","0.0-6.0-1.29","test",".","",".","",""
"null","<div style=""color:white; font-size:60px;"">+</div>","null","html-keyboard-response","71","218217","0.0-6.0-0.30","fixation","","","","",""
"2906.5650000120513","Stimuli/Hangul_M2.bmp","188","image-keyboard-response","72","221125","0.0-6.0-1.30","test",",","",",","",""
"null","<div style=""color:white; font-size:60px;"">+</div>","null","html-keyboard-response","73","222127","0.0-6.0-0.31","fixation","","","","",""
"3007.4949999980163","Stimuli/Hangul_M10.bmp","188","image-keyboard-response","74","225136","0.0-6.0-1.31","test",",","",",","",""
"null","<div style=""color:white; font-size:60px;"">+</div>","null","html-keyboard-response","75","226138","0.0-6.0-0.32","fixation","","","","",""
"2816.0449999995762","Stimuli/Hangul_M6.bmp","190","image-keyboard-response","76","228955","0.0-6.0-1.32","test",",","",".","",""
"null","<div style=""color:white; font-size:60px;"">+</div>","null","html-keyboard-response","77","229957","0.0-6.0-0.33","fixation","","","","",""
"3235.335000004852","Stimuli/Hangul_F3.bmp","190","image-keyboard-response","78","233195","0.0-6.0-1.33","test",".","",".","",""
"null","<div style=""color:white; font-size:60px;"">+</div>","null","html-keyboard-response","79","234196","0.0-6.0-0.34","fixation","","","","",""
"3679.1599999996834","Stimuli/Hangul_F0.bmp","190","image-keyboard-response","80","237877","0.0-6.0-1.34","test",".","",".","",""
"null","<div style=""color:white; font-size:60px;"">+</div>","null","html-keyboard-response","81","238880","0.0-6.0-0.35","fixation","","","","",""
"3419.3899999954738","Stimuli/Hangul_M8.bmp","188","image-keyboard-response","82","242301","0.0-6.0-1.35","test",",","",",","",""
"null","<div style=""color:white; font-size:60px;"">+</div>","null","html-keyboard-response","83","243739","0.0-6.0-0.36","fixation","","","","",""
"3682.874999998603","Stimuli/Hangul_M21.bmp","188","image-keyboard-response","84","247425","0.0-6.0-1.36","test",",","",",","",""
"null","<div style=""color:white; font-size:60px;"">+</div>","null","html-keyboard-response","85","248427","0.0-6.0-0.37","fixation","","","","",""
"4683.134999999311","Stimuli/Hangul_F16.bmp","188","image-keyboard-response","86","253111","0.0-6.0-1.37","test",".","",",","",""
"null","<div style=""color:white; font-size:60px;"">+</div>","null","html-keyboard-response","87","254748","0.0-6.0-0.38","fixation","","","","",""
"3798.9700000034645","Stimuli/Hangul_F13.bmp","190","image-keyboard-response","88","258549","0.0-6.0-1.38","test",".","",".","",""
"null","<div style=""color:white; font-size:60px;"">+</div>","null","html-keyboard-response","89","259573","0.0-6.0-0.39","fixation","","","","",""
"3558.0150000023423","Stimuli/Hangul_F20.bmp","190","image-keyboard-response","90","263133","0.0-6.0-1.39","test",".","",".","",""
"null","<div style=""color:white; font-size:60px;"">+</div>","null","html-keyboard-response","91","264135","0.0-6.0-0.40","fixation","","","","",""
"2721.3150000025053","Stimuli/Hangul_F21.bmp","190","image-keyboard-response","92","266858","0.0-6.0-1.40","test",".","",".","",""
"null","<div style=""color:white; font-size:60px;"">+</div>","null","html-keyboard-response","93","267860","0.0-6.0-0.41","fixation","","","","",""
"3043.6049999989336","Stimuli/Hangul_F17.bmp","188","image-keyboard-response","94","270906","0.0-6.0-1.41","test",".","",",","",""
"null","<div style=""color:white; font-size:60px;"">+</div>","null","html-keyboard-response","95","271908","0.0-6.0-0.42","fixation","","","","",""
"4955.994999996619","Stimuli/Hangul_M5.bmp","188","image-keyboard-response","96","276867","0.0-6.0-1.42","test",",","",",","",""
"null","<div style=""color:white; font-size:60px;"">+</div>","null","html-keyboard-response","97","277870","0.0-6.0-0.43","fixation","","","","",""
"3202.9400000028545","Stimuli/Hangul_F19.bmp","188","image-keyboard-response","98","281074","0.0-6.0-1.43","test",".","",",","",""
"null","<div style=""color:white; font-size:60px;"">+</div>","null","html-keyboard-response","99","282076","0.0-6.0-0.44","fixation","","","","",""
"3850.285000007716","Stimuli/Hangul_F23.bmp","188","image-keyboard-response","100","285927","0.0-6.0-1.44","test",".","",",","",""
"null","<div style=""color:white; font-size:60px;"">+</div>","null","html-keyboard-response","101","286930","0.0-6.0-0.45","fixation","","","","",""
"4752.854999998817","Stimuli/Hangul_M23.bmp","188","image-keyboard-response","102","291686","0.0-6.0-1.45","test",",","",",","",""
"null","<div style=""color:white; font-size:60px;"">+</div>","null","html-keyboard-response","103","292688","0.0-6.0-0.46","fixation","","","","",""
"3135.565000004135","Stimuli/Hangul_M3.bmp","188","image-keyboard-response","104","295825","0.0-6.0-1.46","test",",","",",","",""
"null","<div style=""color:white; font-size:60px;"">+</div>","null","html-keyboard-response","105","296851","0.0-6.0-0.47","fixation","","","","",""
"2924.6299999940675","Stimuli/Hangul_F2.bmp","190","image-keyboard-response","106","299779","0.0-6.0-1.47","test",".","",".","",""
"null","<div style=""color:white; font-size:60px;"">+</div>","null","html-keyboard-response","107","300781","0.0-6.0-0.48","fixation","","","","",""
"2808.7300000042887","Stimuli/Hangul_M1.bmp","190","image-keyboard-response","108","303591","0.0-6.0-1.48","test",",","",".","",""
"null","<div style=""color:white; font-size:60px;"">+</div>","null","html-keyboard-response","109","304595","0.0-6.0-0.49","fixation","","","","",""
"3190.180000005057","Stimuli/Hangul_M17.bmp","190","image-keyboard-response","110","307787","0.0-6.0-1.49","test",",","",".","",""
"78221.62000001117","<p style=""color:white;"">Good job, block 1 complete! Please take a moment to rest.</p> <p style=""color:white;"">When you are ready to continue with block 2 of 4, press the space bar.</p> ","32","html-keyboard-response","111","386010","0.0-7.0","","","","","",""
"null","<div style=""color:white; font-size:60px;"">+</div>","null","html-keyboard-response","112","389015","0.0-8.0-0.0","fixation","","","","",""
"3037.624999997206","Stimuli/Hangul_M40.bmp","190","image-keyboard-response","113","392054","0.0-8.0-1.0","test",",","",".","",""
"null","<div style=""color:white; font-size:60px;"">+</div>","null","html-keyboard-response","114","393056","0.0-8.0-0.1","fixation","","","","",""
"3012.6149999996414","Stimuli/Hangul_M45.bmp","190","image-keyboard-response","115","396070","0.0-8.0-1.1","test",",","",".","",""
"null","<div style=""color:white; font-size:60px;"">+</div>","null","html-keyboard-response","116","397073","0.0-8.0-0.2","fixation","","","","",""
"5103.3600000082515","Stimuli/Hangul_M41.bmp","188","image-keyboard-response","117","402181","0.0-8.0-1.2","test",",","",",","",""
"null","<div style=""color:white; font-size:60px;"">+</div>","null","html-keyboard-response","118","403184","0.0-8.0-0.3","fixation","","","","",""
"2931.4849999936996","Stimuli/Hangul_M42.bmp","190","image-keyboard-response","119","406117","0.0-8.0-1.3","test",",","",".","",""
"null","<div style=""color:white; font-size:60px;"">+</div>","null","html-keyboard-response","120","407119","0.0-8.0-0.4","fixation","","","","",""
"3173.3099999983096","Stimuli/Hangul_F42.bmp","190","image-keyboard-response","121","410295","0.0-8.0-1.4","test",".","",".","",""
"null","<div style=""color:white; font-size:60px;"">+</div>","null","html-keyboard-response","122","411299","0.0-8.0-0.5","fixation","","","","",""
"4225.409999999101","Stimuli/Hangul_F31.bmp","190","image-keyboard-response","123","415526","0.0-8.0-1.5","test",".","",".","",""
"null","<div style=""color:white; font-size:60px;"">+</div>","null","html-keyboard-response","124","416527","0.0-8.0-0.6","fixation","","","","",""
"3349.9400000000605","Stimuli/Hangul_F29.bmp","190","image-keyboard-response","125","419879","0.0-8.0-1.6","test",".","",".","",""
"null","<div style=""color:white; font-size:60px;"">+</div>","null","html-keyboard-response","126","420881","0.0-8.0-0.7","fixation","","","","",""
"3775.2350000082515","Stimuli/Hangul_F35.bmp","190","image-keyboard-response","127","424658","0.0-8.0-1.7","test",".","",".","",""
"null","<div style=""color:white; font-size:60px;"">+</div>","null","html-keyboard-response","128","425660","0.0-8.0-0.8","fixation","","","","",""
"2819.390000004205","Stimuli/Hangul_F33.bmp","190","image-keyboard-response","129","428481","0.0-8.0-1.8","test",".","",".","",""
"null","<div style=""color:white; font-size:60px;"">+</div>","null","html-keyboard-response","130","429484","0.0-8.0-0.9","fixation","","","","",""
"3575.3049999912037","Stimuli/Hangul_F32.bmp","190","image-keyboard-response","131","433060","0.0-8.0-1.9","test",".","",".","",""
"null","<div style=""color:white; font-size:60px;"">+</div>","null","html-keyboard-response","132","434062","0.0-8.0-0.10","fixation","","","","",""
"3795.0500000006286","Stimuli/Hangul_F36.bmp","188","image-keyboard-response","133","437858","0.0-8.0-1.10","test",".","",",","",""
"null","<div style=""color:white; font-size:60px;"">+</div>","null","html-keyboard-response","134","438861","0.0-8.0-0.11","fixation","","","","",""
"4525.259999994887","Stimuli/Hangul_M29.bmp","188","image-keyboard-response","135","443388","0.0-8.0-1.11","test",",","",",","",""
"null","<div style=""color:white; font-size:60px;"">+</div>","null","html-keyboard-response","136","444391","0.0-8.0-0.12","fixation","","","","",""
"8873.634999996284","Stimuli/Hangul_M43.bmp","190","image-keyboard-response","137","453267","0.0-8.0-1.12","test",",","",".","",""
"null","<div style=""color:white; font-size:60px;"">+</div>","null","html-keyboard-response","138","454270","0.0-8.0-0.13","fixation","","","","",""
"2601.234999994631","Stimuli/Hangul_M47.bmp","188","image-keyboard-response","139","456873","0.0-8.0-1.13","test",",","",",","",""
"null","<div style=""color:white; font-size:60px;"">+</div>","null","html-keyboard-response","140","457874","0.0-8.0-0.14","fixation","","","","",""
"3620.310000012978","Stimuli/Hangul_M33.bmp","190","image-keyboard-response","141","461496","0.0-8.0-1.14","test",",","",".","",""
"null","<div style=""color:white; font-size:60px;"">+</div>","null","html-keyboard-response","142","462498","0.0-8.0-0.15","fixation","","","","",""
"3203.6100000113947","Stimuli/Hangul_F26.bmp","188","image-keyboard-response","143","465703","0.0-8.0-1.15","test",".","",",","",""
"null","<div style=""color:white; font-size:60px;"">+</div>","null","html-keyboard-response","144","466704","0.0-8.0-0.16","fixation","","","","",""
"3250.6649999995716","Stimuli/Hangul_F40.bmp","188","image-keyboard-response","145","469956","0.0-8.0-1.16","test",".","",",","",""
"null","<div style=""color:white; font-size:60px;"">+</div>","null","html-keyboard-response","146","470958","0.0-8.0-0.17","fixation","","","","",""
"3073.11500000651","Stimuli/Hangul_F37.bmp","190","image-keyboard-response","147","474036","0.0-8.0-1.17","test",".","",".","",""
"null","<div style=""color:white; font-size:60px;"">+</div>","null","html-keyboard-response","148","475038","0.0-8.0-0.18","fixation","","","","",""
"4257.499999992433","Stimuli/Hangul_F28.bmp","188","image-keyboard-response","149","479296","0.0-8.0-1.18","test",".","",",","",""
"null","<div style=""color:white; font-size:60px;"">+</div>","null","html-keyboard-response","150","480299","0.0-8.0-0.19","fixation","","","","",""
"2987.504999997327","Stimuli/Hangul_M49.bmp","188","image-keyboard-response","151","483289","0.0-8.0-1.19","test",",","",",","",""
"null","<div style=""color:white; font-size:60px;"">+</div>","null","html-keyboard-response","152","484291","0.0-8.0-0.20","fixation","","","","",""
"2917.0799999992596","Stimuli/Hangul_M48.bmp","188","image-keyboard-response","153","487210","0.0-8.0-1.20","test",",","",",","",""
"null","<div style=""color:white; font-size:60px;"">+</div>","null","html-keyboard-response","154","488211","0.0-8.0-0.21","fixation","","","","",""
"3255.0799999880837","Stimuli/Hangul_F27.bmp","188","image-keyboard-response","155","491467","0.0-8.0-1.21","test",".","",",","",""
"null","<div style=""color:white; font-size:60px;"">+</div>","null","html-keyboard-response","156","492469","0.0-8.0-0.22","fixation","","","","",""
"3061.1300000018673","Stimuli/Hangul_F38.bmp","188","image-keyboard-response","157","495532","0.0-8.0-1.22","test",".","",",","",""
"null","<div style=""color:white; font-size:60px;"">+</div>","null","html-keyboard-response","158","496535","0.0-8.0-0.23","fixation","","","","",""
"2792.2249999974156","Stimuli/Hangul_M46.bmp","188","image-keyboard-response","159","499329","0.0-8.0-1.23","test",",","",",","",""
"null","<div style=""color:white; font-size:60px;"">+</div>","null","html-keyboard-response","160","500331","0.0-8.0-0.24","fixation","","","","",""
"2649.374999993597","Stimuli/Hangul_F39.bmp","190","image-keyboard-response","161","502982","0.0-8.0-1.24","test",".","",".","",""
"null","<div style=""color:white; font-size:60px;"">+</div>","null","html-keyboard-response","162","503989","0.0-8.0-0.25","fixation","","","","",""
"2944.88999999885","Stimuli/Hangul_F49.bmp","190","image-keyboard-response","163","506937","0.0-8.0-1.25","test",".","",".","",""
"null","<div style=""color:white; font-size:60px;"">+</div>","null","html-keyboard-response","164","507940","0.0-8.0-0.26","fixation","","","","",""
"4122.965000002296","Stimuli/Hangul_M44.bmp","188","image-keyboard-response","165","512065","0.0-8.0-1.26","test",",","",",","",""
"null","<div style=""color:white; font-size:60px;"">+</div>","null","html-keyboard-response","166","513067","0.0-8.0-0.27","fixation","","","","",""
"2727.180000001681","Stimuli/Hangul_M35.bmp","188","image-keyboard-response","167","515795","0.0-8.0-1.27","test",",","",",","",""
"null","<div style=""color:white; font-size:60px;"">+</div>","null","html-keyboard-response","168","516798","0.0-8.0-0.28","fixation","","","","",""
"2847.125000000233","Stimuli/Hangul_F30.bmp","190","image-keyboard-response","169","519646","0.0-8.0-1.28","test",".","",".","",""
"null","<div style=""color:white; font-size:60px;"">+</div>","null","html-keyboard-response","170","520650","0.0-8.0-0.29","fixation","","","","",""
"2994.670000000042","Stimuli/Hangul_M37.bmp","190","image-keyboard-response","171","523647","0.0-8.0-1.29","test",",","",".","",""
"null","<div style=""color:white; font-size:60px;"">+</div>","null","html-keyboard-response","172","524649","0.0-8.0-0.30","fixation","","","","",""
"2633.159999997588","Stimuli/Hangul_M38.bmp","188","image-keyboard-response","173","527284","0.0-8.0-1.30","test",",","",",","",""
"null","<div style=""color:white; font-size:60px;"">+</div>","null","html-keyboard-response","174","528286","0.0-8.0-0.31","fixation","","","","",""
"2778.650000007474","Stimuli/Hangul_M34.bmp","188","image-keyboard-response","175","531066","0.0-8.0-1.31","test",",","",",","",""
"null","<div style=""color:white; font-size:60px;"">+</div>","null","html-keyboard-response","176","532070","0.0-8.0-0.32","fixation","","","","",""
"3573.6650000035297","Stimuli/Hangul_F44.bmp","188","image-keyboard-response","177","535645","0.0-8.0-1.32","test",".","",",","",""
"null","<div style=""color:white; font-size:60px;"">+</div>","null","html-keyboard-response","178","536647","0.0-8.0-0.33","fixation","","","","",""
"2729.3050000007497","Stimuli/Hangul_F43.bmp","188","image-keyboard-response","179","539378","0.0-8.0-1.33","test",".","",",","",""
"null","<div style=""color:white; font-size:60px;"">+</div>","null","html-keyboard-response","180","540380","0.0-8.0-0.34","fixation","","","","",""
"3343.8849999947706","Stimuli/Hangul_M28.bmp","190","image-keyboard-response","181","543726","0.0-8.0-1.34","test",",","",".","",""
"null","<div style=""color:white; font-size:60px;"">+</div>","null","html-keyboard-response","182","544728","0.0-8.0-0.35","fixation","","","","",""
"4964.074999996228","Stimuli/Hangul_M31.bmp","188","image-keyboard-response","183","549694","0.0-8.0-1.35","test",",","",",","",""
"null","<div style=""color:white; font-size:60px;"">+</div>","null","html-keyboard-response","184","550696","0.0-8.0-0.36","fixation","","","","",""
"4096.755000005942","Stimuli/Hangul_F47.bmp","188","image-keyboard-response","185","554795","0.0-8.0-1.36","test",".","",",","",""
"null","<div style=""color:white; font-size:60px;"">+</div>","null","html-keyboard-response","186","555797","0.0-8.0-0.37","fixation","","","","",""
"3140.735000008135","Stimuli/Hangul_F45.bmp","190","image-keyboard-response","187","558939","0.0-8.0-1.37","test",".","",".","",""
"null","<div style=""color:white; font-size:60px;"">+</div>","null","html-keyboard-response","188","559943","0.0-8.0-0.38","fixation","","","","",""
"2923.7500000017462","Stimuli/Hangul_M30.bmp","188","image-keyboard-response","189","562868","0.0-8.0-1.38","test",",","",",","",""
"null","<div style=""color:white; font-size:60px;"">+</div>","null","html-keyboard-response","190","563873","0.0-8.0-0.39","fixation","","","","",""
"3581.934999994701","Stimuli/Hangul_M36.bmp","190","image-keyboard-response","191","567456","0.0-8.0-1.39","test",",","",".","",""
"null","<div style=""color:white; font-size:60px;"">+</div>","null","html-keyboard-response","192","568458","0.0-8.0-0.40","fixation","","","","",""
"3310.364999997546","Stimuli/Hangul_F25.bmp","188","image-keyboard-response","193","571770","0.0-8.0-1.40","test",".","",",","",""
"null","<div style=""color:white; font-size:60px;"">+</div>","null","html-keyboard-response","194","572772","0.0-8.0-0.41","fixation","","","","",""
"5778.565000000526","Stimuli/Hangul_F48.bmp","188","image-keyboard-response","195","578552","0.0-8.0-1.41","test",".","",",","",""
"null","<div style=""color:white; font-size:60px;"">+</div>","null","html-keyboard-response","196","579555","0.0-8.0-0.42","fixation","","","","",""
"4584.635000006529","Stimuli/Hangul_F46.bmp","190","image-keyboard-response","197","584144","0.0-8.0-1.42","test",".","",".","",""
"null","<div style=""color:white; font-size:60px;"">+</div>","null","html-keyboard-response","198","585147","0.0-8.0-0.43","fixation","","","","",""
"3762.025000003632","Stimuli/Hangul_F34.bmp","188","image-keyboard-response","199","588910","0.0-8.0-1.43","test",".","",",","",""
"null","<div style=""color:white; font-size:60px;"">+</div>","null","html-keyboard-response","200","589912","0.0-8.0-0.44","fixation","","","","",""
"2213.465000008","Stimuli/Hangul_M26.bmp","190","image-keyboard-response","201","592128","0.0-8.0-1.44","test",",","",".","",""
"null","<div style=""color:white; font-size:60px;"">+</div>","null","html-keyboard-response","202","593130","0.0-8.0-0.45","fixation","","","","",""
"3210.85000000312","Stimuli/Hangul_F41.bmp","190","image-keyboard-response","203","596342","0.0-8.0-1.45","test",".","",".","",""
"null","<div style=""color:white; font-size:60px;"">+</div>","null","html-keyboard-response","204","597343","0.0-8.0-0.46","fixation","","","","",""
"4849.049999989802","Stimuli/Hangul_M39.bmp","188","image-keyboard-response","205","602194","0.0-8.0-1.46","test",",","",",","",""
"null","<div style=""color:white; font-size:60px;"">+</div>","null","html-keyboard-response","206","603196","0.0-8.0-0.47","fixation","","","","",""
"4783.620000001974","Stimuli/Hangul_M27.bmp","188","image-keyboard-response","207","607981","0.0-8.0-1.47","test",",","",",","",""
"null","<div style=""color:white; font-size:60px;"">+</div>","null","html-keyboard-response","208","608984","0.0-8.0-0.48","fixation","","","","",""
"4372.784999999567","Stimuli/Hangul_M32.bmp","190","image-keyboard-response","209","613358","0.0-8.0-1.48","test",",","",".","",""
"null","<div style=""color:white; font-size:60px;"">+</div>","null","html-keyboard-response","210","614361","0.0-8.0-0.49","fixation","","","","",""
"3236.445000002277","Stimuli/Hangul_M25.bmp","190","image-keyboard-response","211","617599","0.0-8.0-1.49","test",",","",".","",""
"1804.1400000074646","<p style=""color:white;"">Half way there! Please take a moment to rest.</p> <p style=""color:white;"">When you are ready to continue with block 3 of 4, press the space bar.</p> ","32","html-keyboard-response","212","619405","0.0-9.0","","","","","",""
"null","<div style=""color:white; font-size:60px;"">+</div>","null","html-keyboard-response","213","622408","0.0-10.0-0.0","fixation","","","","",""
"3317.879999987781","Stimuli/Hangul_F52.bmp","190","image-keyboard-response","214","625727","0.0-10.0-1.0","test",".","",".","",""
"null","<div style=""color:white; font-size:60px;"">+</div>","null","html-keyboard-response","215","626730","0.0-10.0-0.1","fixation","","","","",""
"5553.605000008247","Stimuli/Hangul_M50.bmp","188","image-keyboard-response","216","632285","0.0-10.0-1.1","test",",","",",","",""
"null","<div style=""color:white; font-size:60px;"">+</div>","null","html-keyboard-response","217","633288","0.0-10.0-0.2","fixation","","","","",""
"3442.255000001751","Stimuli/Hangul_F63.bmp","190","image-keyboard-response","218","636732","0.0-10.0-1.2","test",".","",".","",""
"null","<div style=""color:white; font-size:60px;"">+</div>","null","html-keyboard-response","219","637734","0.0-10.0-0.3","fixation","","","","",""
"4847.249999991618","Stimuli/Hangul_M73.bmp","188","image-keyboard-response","220","642582","0.0-10.0-1.3","test",",","",",","",""
"null","<div style=""color:white; font-size:60px;"">+</div>","null","html-keyboard-response","221","643585","0.0-10.0-0.4","fixation","","","","",""
"3674.2450000019744","Stimuli/Hangul_F73.bmp","188","image-keyboard-response","222","647261","0.0-10.0-1.4","test",".","",",","",""
"null","<div style=""color:white; font-size:60px;"">+</div>","null","html-keyboard-response","223","648263","0.0-10.0-0.5","fixation","","","","",""
"36.67000000132248","Stimuli/Hangul_M61.bmp","190","image-keyboard-response","224","648301","0.0-10.0-1.5","test",",","",".","",""
"null","<div style=""color:white; font-size:60px;"">+</div>","null","html-keyboard-response","225","649304","0.0-10.0-0.6","fixation","","","","",""
"5225.294999996549","Stimuli/Hangul_M53.bmp","188","image-keyboard-response","226","654531","0.0-10.0-1.6","test",",","",",","",""
"null","<div style=""color:white; font-size:60px;"">+</div>","null","html-keyboard-response","227","655533","0.0-10.0-0.7","fixation","","","","",""
"2768.4299999964423","Stimuli/Hangul_M52.bmp","190","image-keyboard-response","228","658302","0.0-10.0-1.7","test",",","",".","",""
"null","<div style=""color:white; font-size:60px;"">+</div>","null","html-keyboard-response","229","659306","0.0-10.0-0.8","fixation","","","","",""
"4205.484999998589","Stimuli/Hangul_M51.bmp","190","image-keyboard-response","230","663513","0.0-10.0-1.8","test",",","",".","",""
"null","<div style=""color:white; font-size:60px;"">+</div>","null","html-keyboard-response","231","664516","0.0-10.0-0.9","fixation","","","","",""
"4872.359999993932","Stimuli/Hangul_M65.bmp","188","image-keyboard-response","232","669390","0.0-10.0-1.9","test",",","",",","",""
"null","<div style=""color:white; font-size:60px;"">+</div>","null","html-keyboard-response","233","670392","0.0-10.0-0.10","fixation","","","","",""
"2587.635000003502","Stimuli/Hangul_F51.bmp","190","image-keyboard-response","234","672981","0.0-10.0-1.10","test",".","",".","",""
"null","<div style=""color:white; font-size:60px;"">+</div>","null","html-keyboard-response","235","673983","0.0-10.0-0.11","fixation","","","","",""
"3833.9799999957904","Stimuli/Hangul_F67.bmp","188","image-keyboard-response","236","677819","0.0-10.0-1.11","test",".","",",","",""
"null","<div style=""color:white; font-size:60px;"">+</div>","null","html-keyboard-response","237","678821","0.0-10.0-0.12","fixation","","","","",""
"4614.644999994198","Stimuli/Hangul_F61.bmp","188","image-keyboard-response","238","683437","0.0-10.0-1.12","test",".","",",","",""
"null","<div style=""color:white; font-size:60px;"">+</div>","null","html-keyboard-response","239","684440","0.0-10.0-0.13","fixation","","","","",""
"3403.3350000099745","Stimuli/Hangul_M69.bmp","188","image-keyboard-response","240","687844","0.0-10.0-1.13","test",",","",",","",""
"null","<div style=""color:white; font-size:60px;"">+</div>","null","html-keyboard-response","241","688847","0.0-10.0-0.14","fixation","","","","",""
"2787.0700000057695","Stimuli/Hangul_F55.bmp","190","image-keyboard-response","242","691635","0.0-10.0-1.14","test",".","",".","",""
"null","<div style=""color:white; font-size:60px;"">+</div>","null","html-keyboard-response","243","692637","0.0-10.0-0.15","fixation","","","","",""
"3444.1049999877578","Stimuli/Hangul_F72.bmp","190","image-keyboard-response","244","696082","0.0-10.0-1.15","test",".","",".","",""
"null","<div style=""color:white; font-size:60px;"">+</div>","null","html-keyboard-response","245","697085","0.0-10.0-0.16","fixation","","","","",""
"3769.7250000055647","Stimuli/Hangul_F54.bmp","190","image-keyboard-response","246","700856","0.0-10.0-1.16","test",".","",".","",""
"null","<div style=""color:white; font-size:60px;"">+</div>","null","html-keyboard-response","247","701859","0.0-10.0-0.17","fixation","","","","",""
"4490.520000006654","Stimuli/Hangul_F57.bmp","190","image-keyboard-response","248","706352","0.0-10.0-1.17","test",".","",".","",""
"null","<div style=""color:white; font-size:60px;"">+</div>","null","html-keyboard-response","249","707353","0.0-10.0-0.18","fixation","","","","",""
"3478.9199999941047","Stimuli/Hangul_M68.bmp","188","image-keyboard-response","250","710833","0.0-10.0-1.18","test",",","",",","",""
"null","<div style=""color:white; font-size:60px;"">+</div>","null","html-keyboard-response","251","711835","0.0-10.0-0.19","fixation","","","","",""
"3833.4500000055414","Stimuli/Hangul_M58.bmp","188","image-keyboard-response","252","715669","0.0-10.0-1.19","test",",","",",","",""
"null","<div style=""color:white; font-size:60px;"">+</div>","null","html-keyboard-response","253","716671","0.0-10.0-0.20","fixation","","","","",""
"2901.064999998198","Stimuli/Hangul_M70.bmp","188","image-keyboard-response","254","719575","0.0-10.0-1.20","test",",","",",","",""
"null","<div style=""color:white; font-size:60px;"">+</div>","null","html-keyboard-response","255","720578","0.0-10.0-0.21","fixation","","","","",""
"5255.934999993769","Stimuli/Hangul_M64.bmp","190","image-keyboard-response","256","725836","0.0-10.0-1.21","test",",","",".","",""
"null","<div style=""color:white; font-size:60px;"">+</div>","null","html-keyboard-response","257","726839","0.0-10.0-0.22","fixation","","","","",""
"3239.3449999945005","Stimuli/Hangul_M57.bmp","188","image-keyboard-response","258","730093","0.0-10.0-1.22","test",",","",",","",""
"null","<div style=""color:white; font-size:60px;"">+</div>","null","html-keyboard-response","259","731095","0.0-10.0-0.23","fixation","","","","",""
"2261.6300000081537","Stimuli/Hangul_F53.bmp","190","image-keyboard-response","260","733358","0.0-10.0-1.23","test",".","",".","",""
"null","<div style=""color:white; font-size:60px;"">+</div>","null","html-keyboard-response","261","734360","0.0-10.0-0.24","fixation","","","","",""
"3335.6600000115577","Stimuli/Hangul_F58.bmp","190","image-keyboard-response","262","737696","0.0-10.0-1.24","test",".","",".","",""
"null","<div style=""color:white; font-size:60px;"">+</div>","null","html-keyboard-response","263","738701","0.0-10.0-0.25","fixation","","","","",""
"2779.529999999795","Stimuli/Hangul_F65.bmp","190","image-keyboard-response","264","741483","0.0-10.0-1.25","test",".","",".","",""
"null","<div style=""color:white; font-size:60px;"">+</div>","null","html-keyboard-response","265","742487","0.0-10.0-0.26","fixation","","","","",""
"2990.2149999979883","Stimuli/Hangul_M60.bmp","188","image-keyboard-response","266","745480","0.0-10.0-1.26","test",",","",",","",""
"null","<div style=""color:white; font-size:60px;"">+</div>","null","html-keyboard-response","267","746481","0.0-10.0-0.27","fixation","","","","",""
"3036.664999992354","Stimuli/Hangul_M54.bmp","190","image-keyboard-response","268","749519","0.0-10.0-1.27","test",",","",".","",""
"null","<div style=""color:white; font-size:60px;"">+</div>","null","html-keyboard-response","269","750521","0.0-10.0-0.28","fixation","","","","",""
"2818.4299999993527","Stimuli/Hangul_F60.bmp","190","image-keyboard-response","270","753341","0.0-10.0-1.28","test",".","",".","",""
"null","<div style=""color:white; font-size:60px;"">+</div>","null","html-keyboard-response","271","754343","0.0-10.0-0.29","fixation","","","","",""
"3664.4450000021607","Stimuli/Hangul_M72.bmp","188","image-keyboard-response","272","758009","0.0-10.0-1.29","test",",","",",","",""
"null","<div style=""color:white; font-size:60px;"">+</div>","null","html-keyboard-response","273","759011","0.0-10.0-0.30","fixation","","","","",""
"3494.204999995418","Stimuli/Hangul_F62.bmp","190","image-keyboard-response","274","762507","0.0-10.0-1.30","test",".","",".","",""
"null","<div style=""color:white; font-size:60px;"">+</div>","null","html-keyboard-response","275","763509","0.0-10.0-0.31","fixation","","","","",""
"3747.9000000021188","Stimuli/Hangul_F68.bmp","188","image-keyboard-response","276","767259","0.0-10.0-1.31","test",".","",",","",""
"null","<div style=""color:white; font-size:60px;"">+</div>","null","html-keyboard-response","277","768261","0.0-10.0-0.32","fixation","","","","",""
"3142.6900000078604","Stimuli/Hangul_M62.bmp","188","image-keyboard-response","278","771406","0.0-10.0-1.32","test",",","",",","",""
"null","<div style=""color:white; font-size:60px;"">+</div>","null","html-keyboard-response","279","772408","0.0-10.0-0.33","fixation","","","","",""
"2917.4000000057276","Stimuli/Hangul_M59.bmp","188","image-keyboard-response","280","775327","0.0-10.0-1.33","test",",","",",","",""
"null","<div style=""color:white; font-size:60px;"">+</div>","null","html-keyboard-response","281","776329","0.0-10.0-0.34","fixation","","","","",""
"5578.869999997551","Stimuli/Hangul_F69.bmp","190","image-keyboard-response","282","781910","0.0-10.0-1.34","test",".","",".","",""
"null","<div style=""color:white; font-size:60px;"">+</div>","null","html-keyboard-response","283","782913","0.0-10.0-0.35","fixation","","","","",""
"3840.359999987413","Stimuli/Hangul_M66.bmp","190","image-keyboard-response","284","786755","0.0-10.0-1.35","test",",","",".","",""
"null","<div style=""color:white; font-size:60px;"">+</div>","null","html-keyboard-response","285","787758","0.0-10.0-0.36","fixation","","","","",""
"2684.979999990901","Stimuli/Hangul_F71.bmp","188","image-keyboard-response","286","790444","0.0-10.0-1.36","test",".","",",","",""
"null","<div style=""color:white; font-size:60px;"">+</div>","null","html-keyboard-response","287","791446","0.0-10.0-0.37","fixation","","","","",""
"3461.859999995795","Stimuli/Hangul_M63.bmp","188","image-keyboard-response","288","794910","0.0-10.0-1.37","test",",","",",","",""
"null","<div style=""color:white; font-size:60px;"">+</div>","null","html-keyboard-response","289","795912","0.0-10.0-0.38","fixation","","","","",""
"4749.569999999949","Stimuli/Hangul_F66.bmp","188","image-keyboard-response","290","800663","0.0-10.0-1.38","test",".","",",","",""
"null","<div style=""color:white; font-size:60px;"">+</div>","null","html-keyboard-response","291","801665","0.0-10.0-0.39","fixation","","","","",""
"3529.7300000092946","Stimuli/Hangul_F64.bmp","190","image-keyboard-response","292","805197","0.0-10.0-1.39","test",".","",".","",""
"null","<div style=""color:white; font-size:60px;"">+</div>","null","html-keyboard-response","293","806200","0.0-10.0-0.40","fixation","","","","",""
"2560.4650000022957","Stimuli/Hangul_F56.bmp","190","image-keyboard-response","294","808762","0.0-10.0-1.40","test",".","",".","",""
"null","<div style=""color:white; font-size:60px;"">+</div>","null","html-keyboard-response","295","809765","0.0-10.0-0.41","fixation","","","","",""
"2722.4950000090757","Stimuli/Hangul_M56.bmp","188","image-keyboard-response","296","812488","0.0-10.0-1.41","test",",","",",","",""
"null","<div style=""color:white; font-size:60px;"">+</div>","null","html-keyboard-response","297","813491","0.0-10.0-0.42","fixation","","","","",""
"2502.0300000032876","Stimuli/Hangul_F70.bmp","188","image-keyboard-response","298","815995","0.0-10.0-1.42","test",".","",",","",""
"null","<div style=""color:white; font-size:60px;"">+</div>","null","html-keyboard-response","299","816997","0.0-10.0-0.43","fixation","","","","",""
"3659.734999993816","Stimuli/Hangul_M74.bmp","190","image-keyboard-response","300","820659","0.0-10.0-1.43","test",",","",".","",""
"null","<div style=""color:white; font-size:60px;"">+</div>","null","html-keyboard-response","301","821661","0.0-10.0-0.44","fixation","","","","",""
"3320.2000000019325","Stimuli/Hangul_F74.bmp","188","image-keyboard-response","302","824983","0.0-10.0-1.44","test",".","",",","",""
"null","<div style=""color:white; font-size:60px;"">+</div>","null","html-keyboard-response","303","825985","0.0-10.0-0.45","fixation","","","","",""
"2516.250000000582","Stimuli/Hangul_M67.bmp","190","image-keyboard-response","304","828504","0.0-10.0-1.45","test",",","",".","",""
"null","<div style=""color:white; font-size:60px;"">+</div>","null","html-keyboard-response","305","829506","0.0-10.0-0.46","fixation","","","","",""
"3351.2850000115577","Stimuli/Hangul_F59.bmp","188","image-keyboard-response","306","832858","0.0-10.0-1.46","test",".","",",","",""
"null","<div style=""color:white; font-size:60px;"">+</div>","null","html-keyboard-response","307","833860","0.0-10.0-0.47","fixation","","","","",""
"2583.549999995739","Stimuli/Hangul_M71.bmp","188","image-keyboard-response","308","836446","0.0-10.0-1.47","test",",","",",","",""
"null","<div style=""color:white; font-size:60px;"">+</div>","null","html-keyboard-response","309","837448","0.0-10.0-0.48","fixation","","","","",""
"2410.3699999977835","Stimuli/Hangul_F50.bmp","190","image-keyboard-response","310","839860","0.0-10.0-1.48","test",".","",".","",""
"null","<div style=""color:white; font-size:60px;"">+</div>","null","html-keyboard-response","311","840863","0.0-10.0-0.49","fixation","","","","",""
"4203.010000012","Stimuli/Hangul_M55.bmp","188","image-keyboard-response","312","845068","0.0-10.0-1.49","test",",","",",","",""
"1459.4499999948312","<p style=""color:white;"">One more block to go! Please take a moment to rest.</p> <p style=""color:white;"">When you are ready to continue with block 4 of 4, press the space bar.</p> ","32","html-keyboard-response","313","846529","0.0-11.0","","","","","",""
"null","<div style=""color:white; font-size:60px;"">+</div>","null","html-keyboard-response","314","849532","0.0-12.0-0.0","fixation","","","","",""
"2916.509999995469","Stimuli/Hangul_M94.bmp","188","image-keyboard-response","315","852450","0.0-12.0-1.0","test",",","",",","",""
"null","<div style=""color:white; font-size:60px;"">+</div>","null","html-keyboard-response","316","853465","0.0-12.0-0.1","fixation","","","","",""
"2874.435000005178","Stimuli/Hangul_M98.bmp","190","image-keyboard-response","317","856341","0.0-12.0-1.1","test",",","",".","",""
"null","<div style=""color:white; font-size:60px;"">+</div>","null","html-keyboard-response","318","857343","0.0-12.0-0.2","fixation","","","","",""
"4193.539999992936","Stimuli/Hangul_F81.bmp","190","image-keyboard-response","319","861538","0.0-12.0-1.2","test",".","",".","",""
"null","<div style=""color:white; font-size:60px;"">+</div>","null","html-keyboard-response","320","862541","0.0-12.0-0.3","fixation","","","","",""
"3513.4649999963585","Stimuli/Hangul_F99.bmp","188","image-keyboard-response","321","866056","0.0-12.0-1.3","test",".","",",","",""
"null","<div style=""color:white; font-size:60px;"">+</div>","null","html-keyboard-response","322","867061","0.0-12.0-0.4","fixation","","","","",""
"2822.199999995064","Stimuli/Hangul_M95.bmp","188","image-keyboard-response","323","869888","0.0-12.0-1.4","test",",","",",","",""
"null","<div style=""color:white; font-size:60px;"">+</div>","null","html-keyboard-response","324","870890","0.0-12.0-0.5","fixation","","","","",""
"4082.444999992731","Stimuli/Hangul_M76.bmp","188","image-keyboard-response","325","874974","0.0-12.0-1.5","test",",","",",","",""
"null","<div style=""color:white; font-size:60px;"">+</div>","null","html-keyboard-response","326","875976","0.0-12.0-0.6","fixation","","","","",""
"2437.1700000046985","Stimuli/Hangul_F80.bmp","190","image-keyboard-response","327","878415","0.0-12.0-1.6","test",".","",".","",""
"null","<div style=""color:white; font-size:60px;"">+</div>","null","html-keyboard-response","328","879417","0.0-12.0-0.7","fixation","","","","",""
"3318.8200000004144","Stimuli/Hangul_M83.bmp","188","image-keyboard-response","329","882737","0.0-12.0-1.7","test",",","",",","",""
"null","<div style=""color:white; font-size:60px;"">+</div>","null","html-keyboard-response","330","883740","0.0-12.0-0.8","fixation","","","","",""
"3086.139999999432","Stimuli/Hangul_M82.bmp","188","image-keyboard-response","331","886828","0.0-12.0-1.8","test",",","",",","",""
"null","<div style=""color:white; font-size:60px;"">+</div>","null","html-keyboard-response","332","887831","0.0-12.0-0.9","fixation","","","","",""
"3977.0450000069104","Stimuli/Hangul_F75.bmp","190","image-keyboard-response","333","891811","0.0-12.0-1.9","test",".","",".","",""
"null","<div style=""color:white; font-size:60px;"">+</div>","null","html-keyboard-response","334","892813","0.0-12.0-0.10","fixation","","","","",""
"5345.950000002631","Stimuli/Hangul_M92.bmp","188","image-keyboard-response","335","898162","0.0-12.0-1.10","test",",","",",","",""
"null","<div style=""color:white; font-size:60px;"">+</div>","null","html-keyboard-response","336","899166","0.0-12.0-0.11","fixation","","","","",""
"2868.7150000041584","Stimuli/Hangul_M84.bmp","188","image-keyboard-response","337","902039","0.0-12.0-1.11","test",",","",",","",""
"null","<div style=""color:white; font-size:60px;"">+</div>","null","html-keyboard-response","338","903041","0.0-12.0-0.12","fixation","","","","",""
"3769.5649999950547","Stimuli/Hangul_F90.bmp","190","image-keyboard-response","339","906812","0.0-12.0-1.12","test",".","",".","",""
"null","<div style=""color:white; font-size:60px;"">+</div>","null","html-keyboard-response","340","907814","0.0-12.0-0.13","fixation","","","","",""
"2947.7349999942817","Stimuli/Hangul_F88.bmp","190","image-keyboard-response","341","910763","0.0-12.0-1.13","test",".","",".","",""
"null","<div style=""color:white; font-size:60px;"">+</div>","null","html-keyboard-response","342","911766","0.0-12.0-0.14","fixation","","","","",""
"5246.740000002319","Stimuli/Hangul_F97.bmp","190","image-keyboard-response","343","917014","0.0-12.0-1.14","test",".","",".","",""
"null","<div style=""color:white; font-size:60px;"">+</div>","null","html-keyboard-response","344","918036","0.0-12.0-0.15","fixation","","","","",""
"4182.15500000224","Stimuli/Hangul_F89.bmp","188","image-keyboard-response","345","922220","0.0-12.0-1.15","test",".","",",","",""
"null","<div style=""color:white; font-size:60px;"">+</div>","null","html-keyboard-response","346","923222","0.0-12.0-0.16","fixation","","","","",""
"3884.105000004638","Stimuli/Hangul_F93.bmp","190","image-keyboard-response","347","927107","0.0-12.0-1.16","test",".","",".","",""
"null","<div style=""color:white; font-size:60px;"">+</div>","null","html-keyboard-response","348","928110","0.0-12.0-0.17","fixation","","","","",""
"2869.525000001886","Stimuli/Hangul_F85.bmp","188","image-keyboard-response","349","930982","0.0-12.0-1.17","test",".","",",","",""
"null","<div style=""color:white; font-size:60px;"">+</div>","null","html-keyboard-response","350","931985","0.0-12.0-0.18","fixation","","","","",""
"3417.5499999983003","Stimuli/Hangul_M89.bmp","188","image-keyboard-response","351","935403","0.0-12.0-1.18","test",",","",",","",""
"null","<div style=""color:white; font-size:60px;"">+</div>","null","html-keyboard-response","352","936406","0.0-12.0-0.19","fixation","","","","",""
"4028.099999995902","Stimuli/Hangul_F79.bmp","190","image-keyboard-response","353","940435","0.0-12.0-1.19","test",".","",".","",""
"null","<div style=""color:white; font-size:60px;"">+</div>","null","html-keyboard-response","354","941439","0.0-12.0-0.20","fixation","","","","",""
"3334.9100000050385","Stimuli/Hangul_M87.bmp","188","image-keyboard-response","355","944775","0.0-12.0-1.20","test",",","",",","",""
"null","<div style=""color:white; font-size:60px;"">+</div>","null","html-keyboard-response","356","945778","0.0-12.0-0.21","fixation","","","","",""
"2797.82000000705","Stimuli/Hangul_F86.bmp","188","image-keyboard-response","357","948579","0.0-12.0-1.21","test",".","",",","",""
"null","<div style=""color:white; font-size:60px;"">+</div>","null","html-keyboard-response","358","949582","0.0-12.0-0.22","fixation","","","","",""
"5325.899999996182","Stimuli/Hangul_F84.bmp","188","image-keyboard-response","359","954909","0.0-12.0-1.22","test",".","",",","",""
"null","<div style=""color:white; font-size:60px;"">+</div>","null","html-keyboard-response","360","955911","0.0-12.0-0.23","fixation","","","","",""
"3381.7850000050385","Stimuli/Hangul_M90.bmp","188","image-keyboard-response","361","959295","0.0-12.0-1.23","test",",","",",","",""
"null","<div style=""color:white; font-size:60px;"">+</div>","null","html-keyboard-response","362","960296","0.0-12.0-0.24","fixation","","","","",""
"3396.229999998468","Stimuli/Hangul_F82.bmp","188","image-keyboard-response","363","963693","0.0-12.0-1.24","test",".","",",","",""
"null","<div style=""color:white; font-size:60px;"">+</div>","null","html-keyboard-response","364","964695","0.0-12.0-0.25","fixation","","","","",""
"4774.489999996149","Stimuli/Hangul_M78.bmp","188","image-keyboard-response","365","969471","0.0-12.0-1.25","test",",","",",","",""
"null","<div style=""color:white; font-size:60px;"">+</div>","null","html-keyboard-response","366","970474","0.0-12.0-0.26","fixation","","","","",""
"3414.474999997765","Stimuli/Hangul_M91.bmp","188","image-keyboard-response","367","973890","0.0-12.0-1.26","test",",","",",","",""
"null","<div style=""color:white; font-size:60px;"">+</div>","null","html-keyboard-response","368","974892","0.0-12.0-0.27","fixation","","","","",""
"2567.095000005793","Stimuli/Hangul_F98.bmp","190","image-keyboard-response","369","977460","0.0-12.0-1.27","test",".","",".","",""
"null","<div style=""color:white; font-size:60px;"">+</div>","null","html-keyboard-response","370","978462","0.0-12.0-0.28","fixation","","","","",""
"3341.1749999941094","Stimuli/Hangul_M79.bmp","188","image-keyboard-response","371","981805","0.0-12.0-1.28","test",",","",",","",""
"null","<div style=""color:white; font-size:60px;"">+</div>","null","html-keyboard-response","372","982807","0.0-12.0-0.29","fixation","","","","",""
"2553.905000007944","Stimuli/Hangul_F76.bmp","188","image-keyboard-response","373","985362","0.0-12.0-1.29","test",".","",",","",""
"null","<div style=""color:white; font-size:60px;"">+</div>","null","html-keyboard-response","374","986365","0.0-12.0-0.30","fixation","","","","",""
"2684.6050000021933","Stimuli/Hangul_M96.bmp","190","image-keyboard-response","375","989051","0.0-12.0-1.30","test",",","",".","",""
"null","<div style=""color:white; font-size:60px;"">+</div>","null","html-keyboard-response","376","990053","0.0-12.0-0.31","fixation","","","","",""
"2746.3999999890802","Stimuli/Hangul_F94.bmp","188","image-keyboard-response","377","992801","0.0-12.0-1.31","test",".","",",","",""
"null","<div style=""color:white; font-size:60px;"">+</div>","null","html-keyboard-response","378","993805","0.0-12.0-0.32","fixation","","","","",""
"2502.6249999937136","Stimuli/Hangul_M81.bmp","188","image-keyboard-response","379","996308","0.0-12.0-1.32","test",",","",",","",""
"null","<div style=""color:white; font-size:60px;"">+</div>","null","html-keyboard-response","380","997311","0.0-12.0-0.33","fixation","","","","",""
"2640.3900000004796","Stimuli/Hangul_M97.bmp","190","image-keyboard-response","381","999955","0.0-12.0-1.33","test",",","",".","",""
"null","<div style=""color:white; font-size:60px;"">+</div>","null","html-keyboard-response","382","1000958","0.0-12.0-0.34","fixation","","","","",""
"3499.9749999988126","Stimuli/Hangul_F95.bmp","190","image-keyboard-response","383","1004459","0.0-12.0-1.34","test",".","",".","",""
"null","<div style=""color:white; font-size:60px;"">+</div>","null","html-keyboard-response","384","1005462","0.0-12.0-0.35","fixation","","","","",""
"2742.1549999999115","Stimuli/Hangul_M75.bmp","188","image-keyboard-response","385","1008207","0.0-12.0-1.35","test",",","",",","",""
"null","<div style=""color:white; font-size:60px;"">+</div>","null","html-keyboard-response","386","1009209","0.0-12.0-0.36","fixation","","","","",""
"2847.154999995837","Stimuli/Hangul_M85.bmp","188","image-keyboard-response","387","1012057","0.0-12.0-1.36","test",",","",",","",""
"null","<div style=""color:white; font-size:60px;"">+</div>","null","html-keyboard-response","388","1013059","0.0-12.0-0.37","fixation","","","","",""
"2878.564999991795","Stimuli/Hangul_M86.bmp","188","image-keyboard-response","389","1015938","0.0-12.0-1.37","test",",","",",","",""
"null","<div style=""color:white; font-size:60px;"">+</div>","null","html-keyboard-response","390","1016941","0.0-12.0-0.38","fixation","","","","",""
"4778.330000001006","Stimuli/Hangul_F92.bmp","190","image-keyboard-response","391","1021720","0.0-12.0-1.38","test",".","",".","",""
"null","<div style=""color:white; font-size:60px;"">+</div>","null","html-keyboard-response","392","1022723","0.0-12.0-0.39","fixation","","","","",""
"3728.6849999945844","Stimuli/Hangul_M93.bmp","188","image-keyboard-response","393","1026453","0.0-12.0-1.39","test",",","",",","",""
"null","<div style=""color:white; font-size:60px;"">+</div>","null","html-keyboard-response","394","1027455","0.0-12.0-0.40","fixation","","","","",""
"2502.875000005588","Stimuli/Hangul_F96.bmp","190","image-keyboard-response","395","1029960","0.0-12.0-1.40","test",".","",".","",""
"null","<div style=""color:white; font-size:60px;"">+</div>","null","html-keyboard-response","396","1030962","0.0-12.0-0.41","fixation","","","","",""
"2848.1749999918975","Stimuli/Hangul_M80.bmp","190","image-keyboard-response","397","1033811","0.0-12.0-1.41","test",",","",".","",""
"null","<div style=""color:white; font-size:60px;"">+</div>","null","html-keyboard-response","398","1034813","0.0-12.0-0.42","fixation","","","","",""
"3230.5099999939557","Stimuli/Hangul_M77.bmp","190","image-keyboard-response","399","1038045","0.0-12.0-1.42","test",",","",".","",""
"null","<div style=""color:white; font-size:60px;"">+</div>","null","html-keyboard-response","400","1039048","0.0-12.0-0.43","fixation","","","","",""
"3644.289999996661","Stimuli/Hangul_F87.bmp","188","image-keyboard-response","401","1042694","0.0-12.0-1.43","test",".","",",","",""
"null","<div style=""color:white; font-size:60px;"">+</div>","null","html-keyboard-response","402","1043697","0.0-12.0-0.44","fixation","","","","",""
"2446.479999998817","Stimuli/Hangul_F78.bmp","188","image-keyboard-response","403","1046145","0.0-12.0-1.44","test",".","",",","",""
"null","<div style=""color:white; font-size:60px;"">+</div>","null","html-keyboard-response","404","1047148","0.0-12.0-0.45","fixation","","","","",""
"2790.6000000075437","Stimuli/Hangul_F91.bmp","190","image-keyboard-response","405","1049939","0.0-12.0-1.45","test",".","",".","",""
"null","<div style=""color:white; font-size:60px;"">+</div>","null","html-keyboard-response","406","1050942","0.0-12.0-0.46","fixation","","","","",""
"3355.2800000035204","Stimuli/Hangul_M99.bmp","190","image-keyboard-response","407","1054298","0.0-12.0-1.46","test",",","",".","",""
"null","<div style=""color:white; font-size:60px;"">+</div>","null","html-keyboard-response","408","1055300","0.0-12.0-0.47","fixation","","","","",""
"3003.2799999897834","Stimuli/Hangul_F83.bmp","188","image-keyboard-response","409","1058305","0.0-12.0-1.47","test",".","",",","",""
"null","<div style=""color:white; font-size:60px;"">+</div>","null","html-keyboard-response","410","1059309","0.0-12.0-0.48","fixation","","","","",""
"2948.909999992","Stimuli/Hangul_F77.bmp","188","image-keyboard-response","411","1062261","0.0-12.0-1.48","test",".","",",","",""
"null","<div style=""color:white; font-size:60px;"">+</div>","null","html-keyboard-response","412","1063264","0.0-12.0-0.49","fixation","","","","",""
"5027.64000000013","Stimuli/Hangul_M88.bmp","190","image-keyboard-response","413","1068292","0.0-12.0-1.49","test",",","",".","",""
"2816.2000000011176","<p style=""color:white;"">Phase I of the experiment is complete.</p> <p style=""color:white;"">Press the space bar to proceed to Phase II of the experiment.</p> ","32","html-keyboard-response","414","1071110","0.0-13.0","","","","","",""
"18310.1699999969","<p style=""color:white;"">Now we are interested in how well you can predict patterns in the series of figures. You will be asked to predict whether the next figure in the series is more male-like or female-like. When you see the <q>Next Figure</q> prompt, press the corresponding response keys to indicate your prediction: </p><p style=""color:white;""> Male &#8594 <q>,</q> (comma)</p><p style=""color:white;""> Female &#8594 <q>.</q> (period)</p><p style=""color:white;"">The actual figure will then appear on the screen. After you see the figure, please guess the assigned gender with response keys. </p><p style=""color:white;"">As before, you will receive 2 cents for correctly classifying each figure.</p><p style=""color:white;"">Press either response keys to continue.</p>","190","html-keyboard-response","415","1091424","0.0-14.0","","","","","",""
"6811.260000002105","<p style=""color:white;"">PREDICTION BONUS</p> <p style=""color:white;"">Your prediction accuracy is the total number of correct predictions you make over the 200 trials.</p> <p style=""color:white;"">In addition to the 2 cents per correct figure classification, you have the chance to receive a bonus of 40 dollars IF your accuracy is above average relative to previous participants.</p><p style=""color:white;"">If your accuracy is below average relative to previous participants, then you will not receive the 40 dollar bonus.</p><p style=""color:white;"">Press the space bar to continue.</p>","32","html-keyboard-response","416","1098237","0.0-15.0","","","","","",""
"3595.535000000382","<p style=""color:white;"">Here are some examples.</p> <p style=""color:white;"">For each, predict whether the next figure looks more male-like or female-like. Then, when the figure appears, guess whether it looks more male-like or female-like and indicate your choice.</p> <p style=""color:white;"">Press the space bar to continue.</p>","32","html-keyboard-response","417","1101834","0.0-16.0","","","","","",""
"2881.559999994468","<p style=""color:white;""> Next Figure: Male or Female? </p>","190","html-keyboard-response","418","1106719","0.0-17.0-0.0","prediction_train","","","",".",""
"null","<div style=""color:white; font-size:60px;"">+</div>","null","html-keyboard-response","419","1107722","0.0-17.0-1.0","fixation","","","","",""
"3700.9899999976624","Stimuli/Hangul_E2.bmp","188","image-keyboard-response","420","1111425","0.0-17.0-2.0","c2_train",".","","","",","
"2051.439999995753","<p style=""color:white;""> Next Figure: Male or Female? </p>","188","html-keyboard-response","421","1113478","0.0-17.0-0.1","prediction_train","","","",",",""
"null","<div style=""color:white; font-size:60px;"">+</div>","null","html-keyboard-response","422","1114480","0.0-17.0-1.1","fixation","","","","",""
"2097.415000011213","Stimuli/Hangul_E1.bmp","188","image-keyboard-response","423","1116579","0.0-17.0-2.1","c2_train",",","","","",","
"1550.119999999646","<p style=""color:white;""> Next Figure: Male or Female? </p>","190","html-keyboard-response","424","1118130","0.0-17.0-0.2","prediction_train","","","",".",""
"null","<div style=""color:white; font-size:60px;"">+</div>","null","html-keyboard-response","425","1119132","0.0-17.0-1.2","fixation","","","","",""
"1011.0849999911152","Stimuli/Hangul_E0.bmp","190","image-keyboard-response","426","1120145","0.0-17.0-2.2","c2_train",",","","","","."
"1386.7000000027474","<p style=""color:white;"">Let us begin! Press the space bar when you are ready to start block 1 of 4.</p> ","32","html-keyboard-response","427","1121533","0.0-18.0","","","","","",""
"864.9549999972805","<p style=""color:white;""> Next Figure: Male or Female? </p>","190","html-keyboard-response","428","1124401","0.0-19.0-0.0","prediction","","","",".",""
"null","<div style=""color:white; font-size:60px;"">+</div>","null","html-keyboard-response","429","1125404","0.0-19.0-1.0","fixation","","","","",""
"648.669999995036","Stimuli/Hangul_F18.bmp","190","image-keyboard-response","430","1126054","0.0-19.0-2.0","c2_test",".","","","","."
"839.5250000029337","<p style=""color:white;""> Next Figure: Male or Female? </p>","188","html-keyboard-response","431","1126894","0.0-19.0-0.1","prediction","","","",",",""
"null","<div style=""color:white; font-size:60px;"">+</div>","null","html-keyboard-response","432","1127897","0.0-19.0-1.1","fixation","","","","",""
"985.7199999969453","Stimuli/Hangul_F10.bmp","188","image-keyboard-response","433","1128884","0.0-19.0-2.1","c2_test",".","","","",","
"3636.299999998184","<p style=""color:white;""> Next Figure: Male or Female? </p>","188","html-keyboard-response","434","1132522","0.0-19.0-0.2","prediction","","","",",",""
"null","<div style=""color:white; font-size:60px;"">+</div>","null","html-keyboard-response","435","1133525","0.0-19.0-1.2","fixation","","","","",""
"844.2749999957159","Stimuli/Hangul_M5.bmp","188","image-keyboard-response","436","1134371","0.0-19.0-2.2","c2_test",",","","","",","
"613.4199999943376","<p style=""color:white;""> Next Figure: Male or Female? </p>","190","html-keyboard-response","437","1134986","0.0-19.0-0.3","prediction","","","",".",""
"null","<div style=""color:white; font-size:60px;"">+</div>","null","html-keyboard-response","438","1135989","0.0-19.0-1.3","fixation","","","","",""
"782.3199999984354","Stimuli/Hangul_M17.bmp","190","image-keyboard-response","439","1136773","0.0-19.0-2.3","c2_test",",","","","","."
"1578.6599999992177","<p style=""color:white;""> Next Figure: Male or Female? </p>","190","html-keyboard-response","440","1138353","0.0-19.0-0.4","prediction","","","",".",""
"null","<div style=""color:white; font-size:60px;"">+</div>","null","html-keyboard-response","441","1139356","0.0-19.0-1.4","fixation","","","","",""
"794.154999995837","Stimuli/Hangul_M13.bmp","190","image-keyboard-response","442","1140151","0.0-19.0-2.4","c2_test",",","","","","."
"628.8550000027753","<p style=""color:white;""> Next Figure: Male or Female? </p>","188","html-keyboard-response","443","1140781","0.0-19.0-0.5","prediction","","","",",",""
"null","<div style=""color:white; font-size:60px;"">+</div>","null","html-keyboard-response","444","1141784","0.0-19.0-1.5","fixation","","","","",""
"694.5750000013504","Stimuli/Hangul_M3.bmp","188","image-keyboard-response","445","1142480","0.0-19.0-2.5","c2_test",",","","","",","
"713.1999999983236","<p style=""color:white;""> Next Figure: Male or Female? </p>","188","html-keyboard-response","446","1143195","0.0-19.0-0.6","prediction","","","",",",""
"null","<div style=""color:white; font-size:60px;"">+</div>","null","html-keyboard-response","447","1144197","0.0-19.0-1.6","fixation","","","","",""
"971.7400000081398","Stimuli/Hangul_F5.bmp","188","image-keyboard-response","448","1145170","0.0-19.0-2.6","c2_test",".","","","",","
"812.9750000080094","<p style=""color:white;""> Next Figure: Male or Female? </p>","188","html-keyboard-response","449","1145984","0.0-19.0-0.7","prediction","","","",",",""
"null","<div style=""color:white; font-size:60px;"">+</div>","null","html-keyboard-response","450","1146990","0.0-19.0-1.7","fixation","","","","",""
"1418.7949999906123","Stimuli/Hangul_M19.bmp","190","image-keyboard-response","451","1148410","0.0-19.0-2.7","c2_test",",","","","","."
"482.6649999883957","<p style=""color:white;""> Next Figure: Male or Female? </p>","190","html-keyboard-response","452","1148894","0.0-19.0-0.8","prediction","","","",".",""
"null","<div style=""color:white; font-size:60px;"">+</div>","null","html-keyboard-response","453","1149896","0.0-19.0-1.8","fixation","","","","",""
"1790.7050000068266","Stimuli/Hangul_M1.bmp","188","image-keyboard-response","454","1151687","0.0-19.0-2.8","c2_test",",","","","",","
"670.8999999973457","<p style=""color:white;""> Next Figure: Male or Female? </p>","188","html-keyboard-response","455","1152359","0.0-19.0-0.9","prediction","","","",",",""
"null","<div style=""color:white; font-size:60px;"">+</div>","null","html-keyboard-response","456","1153362","0.0-19.0-1.9","fixation","","","","",""
"1003.8799999894109","Stimuli/Hangul_M9.bmp","188","image-keyboard-response","457","1154368","0.0-19.0-2.9","c2_test",",","","","",","
"797.0599999970291","<p style=""color:white;""> Next Figure: Male or Female? </p>","188","html-keyboard-response","458","1155166","0.0-19.0-0.10","prediction","","","",",",""
"null","<div style=""color:white; font-size:60px;"">+</div>","null","html-keyboard-response","459","1156169","0.0-19.0-1.10","fixation","","","","",""
"776.9249999984168","Stimuli/Hangul_M10.bmp","188","image-keyboard-response","460","1156947","0.0-19.0-2.10","c2_test",",","","","",","
"457.5450000120327","<p style=""color:white;""> Next Figure: Male or Female? </p>","190","html-keyboard-response","461","1157406","0.0-19.0-0.11","prediction","","","",".",""
"null","<div style=""color:white; font-size:60px;"">+</div>","null","html-keyboard-response","462","1158409","0.0-19.0-1.11","fixation","","","","",""
"694.7950000029523","Stimuli/Hangul_F15.bmp","190","image-keyboard-response","463","1159104","0.0-19.0-2.11","c2_test",".","","","","."
"719.2900000079535","<p style=""color:white;""> Next Figure: Male or Female? </p>","190","html-keyboard-response","464","1159825","0.0-19.0-0.12","prediction","","","",".",""
"null","<div style=""color:white; font-size:60px;"">+</div>","null","html-keyboard-response","465","1160829","0.0-19.0-1.12","fixation","","","","",""
"1119.88500000746","Stimuli/Hangul_M7.bmp","190","image-keyboard-response","466","1161950","0.0-19.0-2.12","c2_test",",","","","","."
"258.0900000028778","<p style=""color:white;""> Next Figure: Male or Female? </p>","188","html-keyboard-response","467","1162209","0.0-19.0-0.13","prediction","","","",",",""
"null","<div style=""color:white; font-size:60px;"">+</div>","null","html-keyboard-response","468","1163211","0.0-19.0-1.13","fixation","","","","",""
"1362.16000000434","Stimuli/Hangul_F13.bmp","188","image-keyboard-response","469","1164574","0.0-19.0-2.13","c2_test",".","","","",","
"833.7400000020862","<p style=""color:white;""> Next Figure: Male or Female? </p>","188","html-keyboard-response","470","1165410","0.0-19.0-0.14","prediction","","","",",",""
"null","<div style=""color:white; font-size:60px;"">+</div>","null","html-keyboard-response","471","1166413","0.0-19.0-1.14","fixation","","","","",""
"670.8599999984726","Stimuli/Hangul_F20.bmp","190","image-keyboard-response","472","1167085","0.0-19.0-2.14","c2_test",".","","","","."
"412.1949999972712","<p style=""color:white;""> Next Figure: Male or Female? </p>","190","html-keyboard-response","473","1167499","0.0-19.0-0.15","prediction","","","",".",""
"null","<div style=""color:white; font-size:60px;"">+</div>","null","html-keyboard-response","474","1168501","0.0-19.0-1.15","fixation","","","","",""
"1122.9149999998044","Stimuli/Hangul_F22.bmp","188","image-keyboard-response","475","1169625","0.0-19.0-2.15","c2_test",".","","","",","
"151.88000000501052","<p style=""color:white;""> Next Figure: Male or Female? </p>","188","html-keyboard-response","476","1169778","0.0-19.0-0.16","prediction","","","",",",""
"null","<div style=""color:white; font-size:60px;"">+</div>","null","html-keyboard-response","477","1170781","0.0-19.0-1.16","fixation","","","","",""
"1448.120000001043","Stimuli/Hangul_M22.bmp","188","image-keyboard-response","478","1172230","0.0-19.0-2.16","c2_test",",","","","",","
"335.2749999903608","<p style=""color:white;""> Next Figure: Male or Female? </p>","190","html-keyboard-response","479","1172567","0.0-19.0-0.17","prediction","","","",".",""
"null","<div style=""color:white; font-size:60px;"">+</div>","null","html-keyboard-response","480","1173571","0.0-19.0-1.17","fixation","","","","",""
"582.9050000030547","Stimuli/Hangul_M12.bmp","190","image-keyboard-response","481","1174155","0.0-19.0-2.17","c2_test",",","","","","."
"326.58499998785555","<p style=""color:white;""> Next Figure: Male or Female? </p>","188","html-keyboard-response","482","1174483","0.0-19.0-0.18","prediction","","","",",",""
"null","<div style=""color:white; font-size:60px;"">+</div>","null","html-keyboard-response","483","1175486","0.0-19.0-1.18","fixation","","","","",""
"767.2100000055507","Stimuli/Hangul_M16.bmp","188","image-keyboard-response","484","1176254","0.0-19.0-2.18","c2_test",",","","","",","
"892.3150000046007","<p style=""color:white;""> Next Figure: Male or Female? </p>","188","html-keyboard-response","485","1177149","0.0-19.0-0.19","prediction","","","",",",""
"null","<div style=""color:white; font-size:60px;"">+</div>","null","html-keyboard-response","486","1178151","0.0-19.0-1.19","fixation","","","","",""
"982.2050000075251","Stimuli/Hangul_F0.bmp","190","image-keyboard-response","487","1179135","0.0-19.0-2.19","c2_test",".","","","","."
"288.56000000075437","<p style=""color:white;""> Next Figure: Male or Female? </p>","190","html-keyboard-response","488","1179424","0.0-19.0-0.20","prediction","","","",".",""
"null","<div style=""color:white; font-size:60px;"">+</div>","null","html-keyboard-response","489","1180427","0.0-19.0-1.20","fixation","","","","",""
"721.5349999899045","Stimuli/Hangul_F14.bmp","190","image-keyboard-response","490","1181150","0.0-19.0-2.20","c2_test",".","","","","."
"725.1850000028498","<p style=""color:white;""> Next Figure: Male or Female? </p>","190","html-keyboard-response","491","1181876","0.0-19.0-0.21","prediction","","","",".",""
"null","<div style=""color:white; font-size:60px;"">+</div>","null","html-keyboard-response","492","1182878","0.0-19.0-1.21","fixation","","","","",""
"710.760000001872","Stimuli/Hangul_M23.bmp","190","image-keyboard-response","493","1183590","0.0-19.0-2.21","c2_test",",","","","","."
"403.8750000037253","<p style=""color:white;""> Next Figure: Male or Female? </p>","188","html-keyboard-response","494","1183995","0.0-19.0-0.22","prediction","","","",",",""
"null","<div style=""color:white; font-size:60px;"">+</div>","null","html-keyboard-response","495","1184997","0.0-19.0-1.22","fixation","","","","",""
"736.750000010943","Stimuli/Hangul_F4.bmp","190","image-keyboard-response","496","1185734","0.0-19.0-2.22","c2_test",".","","","","."
"783.0800000082236","<p style=""color:white;""> Next Figure: Male or Female? </p>","188","html-keyboard-response","497","1186518","0.0-19.0-0.23","prediction","","","",",",""
"null","<div style=""color:white; font-size:60px;"">+</div>","null","html-keyboard-response","498","1187521","0.0-19.0-1.23","fixation","","","","",""
"2228.500000012107","Stimuli/Hangul_M4.bmp","190","image-keyboard-response","499","1189750","0.0-19.0-2.23","c2_test",",","","","","."
"732.7300000034738","<p style=""color:white;""> Next Figure: Male or Female? </p>","190","html-keyboard-response","500","1190484","0.0-19.0-0.24","prediction","","","",".",""
"null","<div style=""color:white; font-size:60px;"">+</div>","null","html-keyboard-response","501","1191485","0.0-19.0-1.24","fixation","","","","",""
"1033.6799999931827","Stimuli/Hangul_F16.bmp","190","image-keyboard-response","502","1192520","0.0-19.0-2.24","c2_test",".","","","","."
"329.1650000028312","<p style=""color:white;""> Next Figure: Male or Female? </p>","188","html-keyboard-response","503","1192850","0.0-19.0-0.25","prediction","","","",",",""
"null","<div style=""color:white; font-size:60px;"">+</div>","null","html-keyboard-response","504","1193853","0.0-19.0-1.25","fixation","","","","",""
"667.7999999956228","Stimuli/Hangul_M6.bmp","188","image-keyboard-response","505","1194521","0.0-19.0-2.25","c2_test",",","","","",","
"921.9349999912083","<p style=""color:white;""> Next Figure: Male or Female? </p>","188","html-keyboard-response","506","1195444","0.0-19.0-0.26","prediction","","","",",",""
"null","<div style=""color:white; font-size:60px;"">+</div>","null","html-keyboard-response","507","1196475","0.0-19.0-1.26","fixation","","","","",""
"1070.1799999952782","Stimuli/Hangul_F7.bmp","190","image-keyboard-response","508","1197547","0.0-19.0-2.26","c2_test",".","","","","."
"1118.8199999886565","<p style=""color:white;""> Next Figure: Male or Female? </p>","188","html-keyboard-response","509","1198667","0.0-19.0-0.27","prediction","","","",",",""
"null","<div style=""color:white; font-size:60px;"">+</div>","null","html-keyboard-response","510","1199670","0.0-19.0-1.27","fixation","","","","",""
"688.8400000024121","Stimuli/Hangul_F11.bmp","188","image-keyboard-response","511","1200360","0.0-19.0-2.27","c2_test",".","","","",","
"425.0049999973271","<p style=""color:white;""> Next Figure: Male or Female? </p>","188","html-keyboard-response","512","1200786","0.0-19.0-0.28","prediction","","","",",",""
"null","<div style=""color:white; font-size:60px;"">+</div>","null","html-keyboard-response","513","1201788","0.0-19.0-1.28","fixation","","","","",""
"940.4100000103936","Stimuli/Hangul_F8.bmp","188","image-keyboard-response","514","1202729","0.0-19.0-2.28","c2_test",".","","","",","
"193.425000004936","<p style=""color:white;""> Next Figure: Male or Female? </p>","190","html-keyboard-response","515","1202924","0.0-19.0-0.29","prediction","","","",".",""
"null","<div style=""color:white; font-size:60px;"">+</div>","null","html-keyboard-response","516","1203927","0.0-19.0-1.29","fixation","","","","",""
"688.0700000037905","Stimuli/Hangul_F12.bmp","190","image-keyboard-response","517","1204616","0.0-19.0-2.29","c2_test",".","","","","."
"360.8999999994412","<p style=""color:white;""> Next Figure: Male or Female? </p>","188","html-keyboard-response","518","1204979","0.0-19.0-0.30","prediction","","","",",",""
"null","<div style=""color:white; font-size:60px;"">+</div>","null","html-keyboard-response","519","1205981","0.0-19.0-1.30","fixation","","","","",""
"597.1999999892432","Stimuli/Hangul_M2.bmp","188","image-keyboard-response","520","1206579","0.0-19.0-2.30","c2_test",",","","","",","
"705.5450000041164","<p style=""color:white;""> Next Figure: Male or Female? </p>","188","html-keyboard-response","521","1207286","0.0-19.0-0.31","prediction","","","",",",""
"null","<div style=""color:white; font-size:60px;"">+</div>","null","html-keyboard-response","522","1208288","0.0-19.0-1.31","fixation","","","","",""
"1356.9250000000466","Stimuli/Hangul_F9.bmp","188","image-keyboard-response","523","1209646","0.0-19.0-2.31","c2_test",".","","","",","
"393.4450000086799","<p style=""color:white;""> Next Figure: Male or Female? </p>","188","html-keyboard-response","524","1210041","0.0-19.0-0.32","prediction","","","",",",""
"null","<div style=""color:white; font-size:60px;"">+</div>","null","html-keyboard-response","525","1211045","0.0-19.0-1.32","fixation","","","","",""
"601.6550000058487","Stimuli/Hangul_F23.bmp","190","image-keyboard-response","526","1211648","0.0-19.0-2.32","c2_test",".","","","","."
"310.32500001299195","<p style=""color:white;""> Next Figure: Male or Female? </p>","190","html-keyboard-response","527","1211960","0.0-19.0-0.33","prediction","","","",".",""
"null","<div style=""color:white; font-size:60px;"">+</div>","null","html-keyboard-response","528","1212963","0.0-19.0-1.33","fixation","","","","",""
"1045.0500000005122","Stimuli/Hangul_M21.bmp","190","image-keyboard-response","529","1214009","0.0-19.0-2.33","c2_test",",","","","","."
"198.59000000008382","<p style=""color:white;""> Next Figure: Male or Female? </p>","188","html-keyboard-response","530","1214213","0.0-19.0-0.34","prediction","","","",",",""
"null","<div style=""color:white; font-size:60px;"">+</div>","null","html-keyboard-response","531","1215215","0.0-19.0-1.34","fixation","","","","",""
"936.4150000037625","Stimuli/Hangul_F21.bmp","188","image-keyboard-response","532","1216153","0.0-19.0-2.34","c2_test",".","","","",","
"719.3649999974295","<p style=""color:white;""> Next Figure: Male or Female? </p>","188","html-keyboard-response","533","1216873","0.0-19.0-0.35","prediction","","","",",",""
"null","<div style=""color:white; font-size:60px;"">+</div>","null","html-keyboard-response","534","1217876","0.0-19.0-1.35","fixation","","","","",""
"630.9899999904446","Stimuli/Hangul_F6.bmp","190","image-keyboard-response","535","1218509","0.0-19.0-2.35","c2_test",".","","","","."
"1014.269999999553","<p style=""color:white;""> Next Figure: Male or Female? </p>","188","html-keyboard-response","536","1219524","0.0-19.0-0.36","prediction","","","",",",""
"null","<div style=""color:white; font-size:60px;"">+</div>","null","html-keyboard-response","537","1220527","0.0-19.0-1.36","fixation","","","","",""
"794.6599999994505","Stimuli/Hangul_M20.bmp","190","image-keyboard-response","538","1221323","0.0-19.0-2.36","c2_test",",","","","","."
"330.49999999650754","<p style=""color:white;""> Next Figure: Male or Female? </p>","190","html-keyboard-response","539","1221654","0.0-19.0-0.37","prediction","","","",".",""
"null","<div style=""color:white; font-size:60px;"">+</div>","null","html-keyboard-response","540","1222657","0.0-19.0-1.37","fixation","","","","",""
"1203.7200000048615","Stimuli/Hangul_F1.bmp","190","image-keyboard-response","541","1223861","0.0-19.0-2.37","c2_test",".","","","","."
"484.93999999482185","<p style=""color:white;""> Next Figure: Male or Female? </p>","188","html-keyboard-response","542","1224348","0.0-19.0-0.38","prediction","","","",",",""
"null","<div style=""color:white; font-size:60px;"">+</div>","null","html-keyboard-response","543","1225351","0.0-19.0-1.38","fixation","","","","",""
"812.0649999908637","Stimuli/Hangul_F2.bmp","188","image-keyboard-response","544","1226164","0.0-19.0-2.38","c2_test",".","","","",","
"1692.6999999994878","<p style=""color:white;""> Next Figure: Male or Female? </p>","188","html-keyboard-response","545","1227858","0.0-19.0-0.39","prediction","","","",",",""
"null","<div style=""color:white; font-size:60px;"">+</div>","null","html-keyboard-response","546","1228860","0.0-19.0-1.39","fixation","","","","",""
"520.9749999921769","Stimuli/Hangul_F24.bmp","188","image-keyboard-response","547","1229382","0.0-19.0-2.39","c2_test",".","","","",","
"711.9150000070222","<p style=""color:white;""> Next Figure: Male or Female? </p>","188","html-keyboard-response","548","1230095","0.0-19.0-0.40","prediction","","","",",",""
"null","<div style=""color:white; font-size:60px;"">+</div>","null","html-keyboard-response","549","1231097","0.0-19.0-1.40","fixation","","","","",""
"640.4200000106357","Stimuli/Hangul_F19.bmp","188","image-keyboard-response","550","1231739","0.0-19.0-2.40","c2_test",".","","","",","
"507.2099999960046","<p style=""color:white;""> Next Figure: Male or Female? </p>","188","html-keyboard-response","551","1232248","0.0-19.0-0.41","prediction","","","",",",""
"null","<div style=""color:white; font-size:60px;"">+</div>","null","html-keyboard-response","552","1233250","0.0-19.0-1.41","fixation","","","","",""
"976.8500000063796","Stimuli/Hangul_M24.bmp","188","image-keyboard-response","553","1234227","0.0-19.0-2.41","c2_test",",","","","",","
"423.59000000567175","<p style=""color:white;""> Next Figure: Male or Female? </p>","190","html-keyboard-response","554","1234652","0.0-19.0-0.42","prediction","","","",".",""
"null","<div style=""color:white; font-size:60px;"">+</div>","null","html-keyboard-response","555","1235654","0.0-19.0-1.42","fixation","","","","",""
"983.3399999914691","Stimuli/Hangul_M8.bmp","188","image-keyboard-response","556","1236639","0.0-19.0-2.42","c2_test",",","","","",","
"487.10500000743195","<p style=""color:white;""> Next Figure: Male or Female? </p>","188","html-keyboard-response","557","1237127","0.0-19.0-0.43","prediction","","","",",",""
"null","<div style=""color:white; font-size:60px;"">+</div>","null","html-keyboard-response","558","1238130","0.0-19.0-1.43","fixation","","","","",""
"767.7450000047684","Stimuli/Hangul_M11.bmp","188","image-keyboard-response","559","1238899","0.0-19.0-2.43","c2_test",",","","","",","
"430.34000000637025","<p style=""color:white;""> Next Figure: Male or Female? </p>","188","html-keyboard-response","560","1239331","0.0-19.0-0.44","prediction","","","",",",""
"null","<div style=""color:white; font-size:60px;"">+</div>","null","html-keyboard-response","561","1240333","0.0-19.0-1.44","fixation","","","","",""
"864.6399999998976","Stimuli/Hangul_M14.bmp","190","image-keyboard-response","562","1241198","0.0-19.0-2.44","c2_test",",","","","","."
"758.72999998671","<p style=""color:white;""> Next Figure: Male or Female? </p>","188","html-keyboard-response","563","1241958","0.0-19.0-0.45","prediction","","","",",",""
"null","<div style=""color:white; font-size:60px;"">+</div>","null","html-keyboard-response","564","1242961","0.0-19.0-1.45","fixation","","","","",""
"989.0449999948032","Stimuli/Hangul_M18.bmp","190","image-keyboard-response","565","1243951","0.0-19.0-2.45","c2_test",",","","","","."
"264.57500000833534","<p style=""color:white;""> Next Figure: Male or Female? </p>","190","html-keyboard-response","566","1244217","0.0-19.0-0.46","prediction","","","",".",""
"null","<div style=""color:white; font-size:60px;"">+</div>","null","html-keyboard-response","567","1245220","0.0-19.0-1.46","fixation","","","","",""
"605.9799999929965","Stimuli/Hangul_M0.bmp","188","image-keyboard-response","568","1245827","0.0-19.0-2.46","c2_test",",","","","",","
"526.0249999992084","<p style=""color:white;""> Next Figure: Male or Female? </p>","188","html-keyboard-response","569","1246355","0.0-19.0-0.47","prediction","","","",",",""
"null","<div style=""color:white; font-size:60px;"">+</div>","null","html-keyboard-response","570","1247357","0.0-19.0-1.47","fixation","","","","",""
"2133.6000000010245","Stimuli/Hangul_F17.bmp","190","image-keyboard-response","571","1249492","0.0-19.0-2.47","c2_test",".","","","","."
"258.8899999973364","<p style=""color:white;""> Next Figure: Male or Female? </p>","188","html-keyboard-response","572","1249752","0.0-19.0-0.48","prediction","","","",",",""
"null","<div style=""color:white; font-size:60px;"">+</div>","null","html-keyboard-response","573","1250754","0.0-19.0-1.48","fixation","","","","",""
"902.7449999994133","Stimuli/Hangul_M15.bmp","188","image-keyboard-response","574","1251658","0.0-19.0-2.48","c2_test",",","","","",","
"769.054999996908","<p style=""color:white;""> Next Figure: Male or Female? </p>","188","html-keyboard-response","575","1252428","0.0-19.0-0.49","prediction","","","",",",""
"null","<div style=""color:white; font-size:60px;"">+</div>","null","html-keyboard-response","576","1253431","0.0-19.0-1.49","fixation","","","","",""
"896.6999999976251","Stimuli/Hangul_F3.bmp","190","image-keyboard-response","577","1254328","0.0-19.0-2.49","c2_test",".","","","","."
"1014.5800000028685","<p style=""color:white;"">Good job, block 1 complete! Please take a moment to rest.</p> <p style=""color:white;"">When you are ready to continue with block 2 of 4, press the space bar.</p> ","32","html-keyboard-response","578","1255345","0.0-20.0","","","","","",""
"300.9900000032503","<p style=""color:white;""> Next Figure: Male or Female? </p>","190","html-keyboard-response","579","1257649","0.0-21.0-0.0","prediction","","","",".",""
"null","<div style=""color:white; font-size:60px;"">+</div>","null","html-keyboard-response","580","1258652","0.0-21.0-1.0","fixation","","","","",""
"793.0349999952596","Stimuli/Hangul_M29.bmp","188","image-keyboard-response","581","1259446","0.0-21.0-2.0","c2_test",",","","","",","
"344.064999997383","<p style=""color:white;""> Next Figure: Male or Female? </p>","188","html-keyboard-response","582","1259791","0.0-21.0-0.1","prediction","","","",",",""
"null","<div style=""color:white; font-size:60px;"">+</div>","null","html-keyboard-response","583","1260792","0.0-21.0-1.1","fixation","","","","",""
"1031.3000000023749","Stimuli/Hangul_M39.bmp","188","image-keyboard-response","584","1261825","0.0-21.0-2.1","c2_test",",","","","",","
"282.76000000187196","<p style=""color:white;""> Next Figure: Male or Female? </p>","188","html-keyboard-response","585","1262109","0.0-21.0-0.2","prediction","","","",",",""
"null","<div style=""color:white; font-size:60px;"">+</div>","null","html-keyboard-response","586","1263112","0.0-21.0-1.2","fixation","","","","",""
"721.6549999867566","Stimuli/Hangul_F28.bmp","188","image-keyboard-response","587","1263836","0.0-21.0-2.2","c2_test",".","","","",","
"347.5200000102632","<p style=""color:white;""> Next Figure: Male or Female? </p>","188","html-keyboard-response","588","1264184","0.0-21.0-0.3","prediction","","","",",",""
"null","<div style=""color:white; font-size:60px;"">+</div>","null","html-keyboard-response","589","1265187","0.0-21.0-1.3","fixation","","","","",""
"1514.5500000070315","Stimuli/Hangul_F42.bmp","190","image-keyboard-response","590","1266703","0.0-21.0-2.3","c2_test",".","","","","."
"276.42500000377186","<p style=""color:white;""> Next Figure: Male or Female? </p>","188","html-keyboard-response","591","1266980","0.0-21.0-0.4","prediction","","","",",",""
"null","<div style=""color:white; font-size:60px;"">+</div>","null","html-keyboard-response","592","1267983","0.0-21.0-1.4","fixation","","","","",""
"1222.034999998752","Stimuli/Hangul_F31.bmp","190","image-keyboard-response","593","1269206","0.0-21.0-2.4","c2_test",".","","","","."
"238.14499999559484","<p style=""color:white;""> Next Figure: Male or Female? </p>","190","html-keyboard-response","594","1269445","0.0-21.0-0.5","prediction","","","",".",""
"null","<div style=""color:white; font-size:60px;"">+</div>","null","html-keyboard-response","595","1270448","0.0-21.0-1.5","fixation","","","","",""
"704.2949999885168","Stimuli/Hangul_M42.bmp","190","image-keyboard-response","596","1271154","0.0-21.0-2.5","c2_test",",","","","","."
"308.69499999983236","<p style=""color:white;""> Next Figure: Male or Female? </p>","188","html-keyboard-response","597","1271464","0.0-21.0-0.6","prediction","","","",",",""
"null","<div style=""color:white; font-size:60px;"">+</div>","null","html-keyboard-response","598","1272466","0.0-21.0-1.6","fixation","","","","",""
"775.6399999926798","Stimuli/Hangul_F36.bmp","190","image-keyboard-response","599","1273243","0.0-21.0-2.6","c2_test",".","","","","."
"465.2449999996461","<p style=""color:white;""> Next Figure: Male or Female? </p>","188","html-keyboard-response","600","1273710","0.0-21.0-0.7","prediction","","","",",",""
"null","<div style=""color:white; font-size:60px;"">+</div>","null","html-keyboard-response","601","1274712","0.0-21.0-1.7","fixation","","","","",""
"957.0749999983236","Stimuli/Hangul_M30.bmp","188","image-keyboard-response","602","1275670","0.0-21.0-2.7","c2_test",",","","","",","
"403.90999999362975","<p style=""color:white;""> Next Figure: Male or Female? </p>","188","html-keyboard-response","603","1276075","0.0-21.0-0.8","prediction","","","",",",""
"null","<div style=""color:white; font-size:60px;"">+</div>","null","html-keyboard-response","604","1277077","0.0-21.0-1.8","fixation","","","","",""
"977.7949999989942","Stimuli/Hangul_F34.bmp","188","image-keyboard-response","605","1278056","0.0-21.0-2.8","c2_test",".","","","",","
"217.8649999985937","<p style=""color:white;""> Next Figure: Male or Female? </p>","190","html-keyboard-response","606","1278275","0.0-21.0-0.9","prediction","","","",".",""
"null","<div style=""color:white; font-size:60px;"">+</div>","null","html-keyboard-response","607","1279277","0.0-21.0-1.9","fixation","","","","",""
"979.8800000136252","Stimuli/Hangul_F37.bmp","188","image-keyboard-response","608","1280258","0.0-21.0-2.9","c2_test",".","","","",","
"804.7749999971129","<p style=""color:white;""> Next Figure: Male or Female? </p>","190","html-keyboard-response","609","1281064","0.0-21.0-0.10","prediction","","","",".",""
"null","<div style=""color:white; font-size:60px;"">+</div>","null","html-keyboard-response","610","1282069","0.0-21.0-1.10","fixation","","","","",""
"1151.8699999870732","Stimuli/Hangul_M49.bmp","190","image-keyboard-response","611","1283222","0.0-21.0-2.10","c2_test",",","","","","."
"206.47000000439584","<p style=""color:white;""> Next Figure: Male or Female? </p>","188","html-keyboard-response","612","1283429","0.0-21.0-0.11","prediction","","","",",",""
"null","<div style=""color:white; font-size:60px;"">+</div>","null","html-keyboard-response","613","1284431","0.0-21.0-1.11","fixation","","","","",""
"912.7399999997579","Stimuli/Hangul_M43.bmp","188","image-keyboard-response","614","1285345","0.0-21.0-2.11","c2_test",",","","","",","
"2729.1949999926146","<p style=""color:white;""> Next Figure: Male or Female? </p>","188","html-keyboard-response","615","1288076","0.0-21.0-0.12","prediction","","","",",",""
"null","<div style=""color:white; font-size:60px;"">+</div>","null","html-keyboard-response","616","1289079","0.0-21.0-1.12","fixation","","","","",""
"782.3599999975413","Stimuli/Hangul_M44.bmp","188","image-keyboard-response","617","1289863","0.0-21.0-2.12","c2_test",",","","","",","
"388.7400000093039","<p style=""color:white;""> Next Figure: Male or Female? </p>","188","html-keyboard-response","618","1290253","0.0-21.0-0.13","prediction","","","",",",""
"null","<div style=""color:white; font-size:60px;"">+</div>","null","html-keyboard-response","619","1291256","0.0-21.0-1.13","fixation","","","","",""
"728.1800000055227","Stimuli/Hangul_M25.bmp","188","image-keyboard-response","620","1291985","0.0-21.0-2.13","c2_test",",","","","",","
"347.00499998871237","<p style=""color:white;""> Next Figure: Male or Female? </p>","188","html-keyboard-response","621","1292333","0.0-21.0-0.14","prediction","","","",",",""
"null","<div style=""color:white; font-size:60px;"">+</div>","null","html-keyboard-response","622","1293335","0.0-21.0-1.14","fixation","","","","",""
"721.7949999903794","Stimuli/Hangul_F40.bmp","190","image-keyboard-response","623","1294058","0.0-21.0-2.14","c2_test",".","","","","."
"749.4950000110548","<p style=""color:white;""> Next Figure: Male or Female? </p>","188","html-keyboard-response","624","1294809","0.0-21.0-0.15","prediction","","","",",",""
"null","<div style=""color:white; font-size:60px;"">+</div>","null","html-keyboard-response","625","1295812","0.0-21.0-1.15","fixation","","","","",""
"1012.3750000058208","Stimuli/Hangul_M33.bmp","190","image-keyboard-response","626","1296825","0.0-21.0-2.15","c2_test",",","","","","."
"239.76500000571832","<p style=""color:white;""> Next Figure: Male or Female? </p>","190","html-keyboard-response","627","1297066","0.0-21.0-0.16","prediction","","","",".",""
"null","<div style=""color:white; font-size:60px;"">+</div>","null","html-keyboard-response","628","1298069","0.0-21.0-1.16","fixation","","","","",""
"669.4100000020117","Stimuli/Hangul_F45.bmp","188","image-keyboard-response","629","1298740","0.0-21.0-2.16","c2_test",".","","","",","
"685.1250000037253","<p style=""color:white;""> Next Figure: Male or Female? </p>","188","html-keyboard-response","630","1299426","0.0-21.0-0.17","prediction","","","",",",""
"null","<div style=""color:white; font-size:60px;"">+</div>","null","html-keyboard-response","631","1300428","0.0-21.0-1.17","fixation","","","","",""
"732.3150000013411","Stimuli/Hangul_M46.bmp","190","image-keyboard-response","632","1301161","0.0-21.0-2.17","c2_test",",","","","","."
"397.6800000090152","<p style=""color:white;""> Next Figure: Male or Female? </p>","190","html-keyboard-response","633","1301561","0.0-21.0-0.18","prediction","","","",".",""
"null","<div style=""color:white; font-size:60px;"">+</div>","null","html-keyboard-response","634","1302563","0.0-21.0-1.18","fixation","","","","",""
"319.99499999778345","Stimuli/Hangul_M36.bmp","188","image-keyboard-response","635","1302884","0.0-21.0-2.18","c2_test",",","","","",","
"1580.1050000009127","<p style=""color:white;""> Next Figure: Male or Female? </p>","188","html-keyboard-response","636","1304466","0.0-21.0-0.19","prediction","","","",",",""
"null","<div style=""color:white; font-size:60px;"">+</div>","null","html-keyboard-response","637","1305470","0.0-21.0-1.19","fixation","","","","",""
"470.4599999967031","Stimuli/Hangul_M35.bmp","188","image-keyboard-response","638","1305943","0.0-21.0-2.19","c2_test",",","","","",","
"737.2500000055879","<p style=""color:white;""> Next Figure: Male or Female? </p>","190","html-keyboard-response","639","1306682","0.0-21.0-0.20","prediction","","","",".",""
"null","<div style=""color:white; font-size:60px;"">+</div>","null","html-keyboard-response","640","1307684","0.0-21.0-1.20","fixation","","","","",""
"1507.6949999930803","Stimuli/Hangul_F30.bmp","188","image-keyboard-response","641","1309193","0.0-21.0-2.20","c2_test",".","","","",","
"673.6699999892153","<p style=""color:white;""> Next Figure: Male or Female? </p>","190","html-keyboard-response","642","1309871","0.0-21.0-0.21","prediction","","","",".",""
"null","<div style=""color:white; font-size:60px;"">+</div>","null","html-keyboard-response","643","1310874","0.0-21.0-1.21","fixation","","","","",""
"1221.0650000050664","Stimuli/Hangul_F29.bmp","188","image-keyboard-response","644","1312098","0.0-21.0-2.21","c2_test",".","","","",","
"496.11999999615364","<p style=""color:white;""> Next Figure: Male or Female? </p>","188","html-keyboard-response","645","1312598","0.0-21.0-0.22","prediction","","","",",",""
"null","<div style=""color:white; font-size:60px;"">+</div>","null","html-keyboard-response","646","1313600","0.0-21.0-1.22","fixation","","","","",""
"653.3999999957159","Stimuli/Hangul_M32.bmp","190","image-keyboard-response","647","1314254","0.0-21.0-2.22","c2_test",",","","","","."
"1815.350000004284","<p style=""color:white;""> Next Figure: Male or Female? </p>","188","html-keyboard-response","648","1316070","0.0-21.0-0.23","prediction","","","",",",""
"null","<div style=""color:white; font-size:60px;"">+</div>","null","html-keyboard-response","649","1317074","0.0-21.0-1.23","fixation","","","","",""
"645.6750000070315","Stimuli/Hangul_F38.bmp","188","image-keyboard-response","650","1317723","0.0-21.0-2.23","c2_test",".","","","",","
"458.4600000088103","<p style=""color:white;""> Next Figure: Male or Female? </p>","188","html-keyboard-response","651","1318183","0.0-21.0-0.24","prediction","","","",",",""
"null","<div style=""color:white; font-size:60px;"">+</div>","null","html-keyboard-response","652","1319185","0.0-21.0-1.24","fixation","","","","",""
"777.4700000011362","Stimuli/Hangul_F35.bmp","190","image-keyboard-response","653","1319963","0.0-21.0-2.24","c2_test",".","","","","."
"578.9050000021234","<p style=""color:white;""> Next Figure: Male or Female? </p>","188","html-keyboard-response","654","1320543","0.0-21.0-0.25","prediction","","","",",",""
"null","<div style=""color:white; font-size:60px;"">+</div>","null","html-keyboard-response","655","1321546","0.0-21.0-1.25","fixation","","","","",""
