"rt","stimulus","key_press","trial_type","trial_index","time_elapsed","internal_node_id","test_part","correct_response","C1_train","C1","A","C2"
"3415.969999972731","<p style=""color:white;"">Welcome to the experiment! Press any key to begin.</p>","70","html-keyboard-response","0","3423","0.0-0.0","","","","","",""
"28398.864999995567","<p style=""color:white;"">You will see a series of abstract figures. They are adaptations of signs in the Korean alphabet, but that is not important for this study. </p><p style=""color:white;"">Abstract figures sometimes have a more masculine or feminine shape. Here, each figure has already been assigned a gender as <q>Male</q> or <q>Female</q> by a panel of respondents in a pilot study. The respondents were not given specific instructions on how to do this, but were only told to use their intuition and to take into account the entire configuration of the stimulus. </p><p style=""color:white;"">Your task now is to guess the assigned gender of each figure. Please press the corresponding response keys to indicate your choice: </p><p style=""color:white;""> Male &#8594 <q>,</q> (comma)</p><p style=""color:white;""> Female &#8594 <q>.</q> (period)</p><p style=""color:white;"">Press either response keys to continue.</p>","188","html-keyboard-response","1","31823","0.0-1.0","","","","","",""
"15462.509999983013","<p style=""color:white;"">Your choice is correct if it matches the gender assigned by the majority of respondents in the pilot study.</p> <p style=""color:white;"">For each correct choice you will receive 2 cents. There will be 200 trials divided into 4 blocks of 50 trials. You will be able to take a break after every 50 trials.</p> <p style=""color:white;"">Press the space bar to continue.</p>","32","html-keyboard-response","2","47286","0.0-2.0","","","","","",""
"7063.135000003967","<p style=""color:white;"">Here are some examples.</p> <p style=""color:white;"">For each, guess whether the assigned figure is male-like or female-like and indicate your choice by pressing either response keys.</p> <p style=""color:white;"">Press the space bar to continue.</p>","32","html-keyboard-response","3","54350","0.0-3.0","","","","","",""
"null","<div style=""color:white; font-size:60px;"">+</div>","null","html-keyboard-response","4","57352","0.0-4.0-0.0","fixation","","","","",""
"3909.4099999638274","Stimuli/Hangul_E0.bmp","190","image-keyboard-response","5","61262","0.0-4.0-1.0","c1_train",",",".","","",""
"null","<div style=""color:white; font-size:60px;"">+</div>","null","html-keyboard-response","6","62264","0.0-4.0-0.1","fixation","","","","",""
"2573.24499997776","Stimuli/Hangul_E2.bmp","188","image-keyboard-response","7","64838","0.0-4.0-1.1","c1_train",".",",","","",""
"null","<div style=""color:white; font-size:60px;"">+</div>","null","html-keyboard-response","8","65839","0.0-4.0-0.2","fixation","","","","",""
"3181.715000013355","Stimuli/Hangul_E1.bmp","190","image-keyboard-response","9","69022","0.0-4.0-1.2","c1_train",",",".","","",""
"3007.6049999915995","<p style=""color:white;"">Let us begin! Press the space bar when you are ready to start block 1 of 4.</p> ","32","html-keyboard-response","10","72030","0.0-5.0","","","","","",""
"null","<div style=""color:white; font-size:60px;"">+</div>","null","html-keyboard-response","11","75032","0.0-6.0-0.0","fixation","","","","",""
"2460.7400000095367","Stimuli/Hangul_F7.bmp","190","image-keyboard-response","12","77494","0.0-6.0-1.0","test",".","",".","",""
"null","<div style=""color:white; font-size:60px;"">+</div>","null","html-keyboard-response","13","78496","0.0-6.0-0.1","fixation","","","","",""
"3477.680000010878","Stimuli/Hangul_F16.bmp","188","image-keyboard-response","14","81974","0.0-6.0-1.1","test",".","",",","",""
"null","<div style=""color:white; font-size:60px;"">+</div>","null","html-keyboard-response","15","82975","0.0-6.0-0.2","fixation","","","","",""
"2222.3700000322424","Stimuli/Hangul_F3.bmp","188","image-keyboard-response","16","85198","0.0-6.0-1.2","test",".","",",","",""
"null","<div style=""color:white; font-size:60px;"">+</div>","null","html-keyboard-response","17","86199","0.0-6.0-0.3","fixation","","","","",""
"2893.645000003744","Stimuli/Hangul_M17.bmp","188","image-keyboard-response","18","89094","0.0-6.0-1.3","test",",","",",","",""
"null","<div style=""color:white; font-size:60px;"">+</div>","null","html-keyboard-response","19","90095","0.0-6.0-0.4","fixation","","","","",""
"3437.699999951292","Stimuli/Hangul_F21.bmp","188","image-keyboard-response","20","93534","0.0-6.0-1.4","test",".","",",","",""
"null","<div style=""color:white; font-size:60px;"">+</div>","null","html-keyboard-response","21","94536","0.0-6.0-0.5","fixation","","","","",""
"2166.075000015553","Stimuli/Hangul_M2.bmp","190","image-keyboard-response","22","96703","0.0-6.0-1.5","test",",","",".","",""
"null","<div style=""color:white; font-size:60px;"">+</div>","null","html-keyboard-response","23","97705","0.0-6.0-0.6","fixation","","","","",""
"2588.7849999708124","Stimuli/Hangul_M22.bmp","188","image-keyboard-response","24","100294","0.0-6.0-1.6","test",",","",",","",""
"null","<div style=""color:white; font-size:60px;"">+</div>","null","html-keyboard-response","25","101297","0.0-6.0-0.7","fixation","","","","",""
"2492.9099999717437","Stimuli/Hangul_M24.bmp","188","image-keyboard-response","26","103790","0.0-6.0-1.7","test",",","",",","",""
"null","<div style=""color:white; font-size:60px;"">+</div>","null","html-keyboard-response","27","104792","0.0-6.0-0.8","fixation","","","","",""
"2726.184999977704","Stimuli/Hangul_F10.bmp","188","image-keyboard-response","28","107519","0.0-6.0-1.8","test",".","",",","",""
"null","<div style=""color:white; font-size:60px;"">+</div>","null","html-keyboard-response","29","108520","0.0-6.0-0.9","fixation","","","","",""
"2709.97999998508","Stimuli/Hangul_F15.bmp","188","image-keyboard-response","30","111230","0.0-6.0-1.9","test",".","",",","",""
"null","<div style=""color:white; font-size:60px;"">+</div>","null","html-keyboard-response","31","112231","0.0-6.0-0.10","fixation","","","","",""
"2774.12000001641","Stimuli/Hangul_M16.bmp","188","image-keyboard-response","32","115006","0.0-6.0-1.10","test",",","",",","",""
"null","<div style=""color:white; font-size:60px;"">+</div>","null","html-keyboard-response","33","116008","0.0-6.0-0.11","fixation","","","","",""
"2974.450000037905","Stimuli/Hangul_M20.bmp","190","image-keyboard-response","34","118983","0.0-6.0-1.11","test",",","",".","",""
"null","<div style=""color:white; font-size:60px;"">+</div>","null","html-keyboard-response","35","119983","0.0-6.0-0.12","fixation","","","","",""
"3078.174999973271","Stimuli/Hangul_M0.bmp","188","image-keyboard-response","36","123062","0.0-6.0-1.12","test",",","",",","",""
"null","<div style=""color:white; font-size:60px;"">+</div>","null","html-keyboard-response","37","124064","0.0-6.0-0.13","fixation","","","","",""
"2693.840000021737","Stimuli/Hangul_M13.bmp","188","image-keyboard-response","38","126758","0.0-6.0-1.13","test",",","",",","",""
"null","<div style=""color:white; font-size:60px;"">+</div>","null","html-keyboard-response","39","127760","0.0-6.0-0.14","fixation","","","","",""
"2398.4350000391714","Stimuli/Hangul_M9.bmp","188","image-keyboard-response","40","130159","0.0-6.0-1.14","test",",","",",","",""
"null","<div style=""color:white; font-size:60px;"">+</div>","null","html-keyboard-response","41","131160","0.0-6.0-0.15","fixation","","","","",""
"2413.330000010319","Stimuli/Hangul_F8.bmp","188","image-keyboard-response","42","133574","0.0-6.0-1.15","test",".","",",","",""
"null","<div style=""color:white; font-size:60px;"">+</div>","null","html-keyboard-response","43","134576","0.0-6.0-0.16","fixation","","","","",""
"2261.3799999817275","Stimuli/Hangul_F13.bmp","190","image-keyboard-response","44","136838","0.0-6.0-1.16","test",".","",".","",""
"null","<div style=""color:white; font-size:60px;"">+</div>","null","html-keyboard-response","45","137840","0.0-6.0-0.17","fixation","","","","",""
"2478.2450000056997","Stimuli/Hangul_F23.bmp","188","image-keyboard-response","46","140319","0.0-6.0-1.17","test",".","",",","",""
"null","<div style=""color:white; font-size:60px;"">+</div>","null","html-keyboard-response","47","141321","0.0-6.0-0.18","fixation","","","","",""
"2468.6450000153854","Stimuli/Hangul_F11.bmp","188","image-keyboard-response","48","143790","0.0-6.0-1.18","test",".","",",","",""
"null","<div style=""color:white; font-size:60px;"">+</div>","null","html-keyboard-response","49","144792","0.0-6.0-0.19","fixation","","","","",""
"2781.9649999728426","Stimuli/Hangul_F18.bmp","190","image-keyboard-response","50","147574","0.0-6.0-1.19","test",".","",".","",""
"null","<div style=""color:white; font-size:60px;"">+</div>","null","html-keyboard-response","51","148576","0.0-6.0-0.20","fixation","","","","",""
"3269.915000011679","Stimuli/Hangul_M21.bmp","190","image-keyboard-response","52","151847","0.0-6.0-1.20","test",",","",".","",""
"null","<div style=""color:white; font-size:60px;"">+</div>","null","html-keyboard-response","53","152848","0.0-6.0-0.21","fixation","","","","",""
"2789.3850000109524","Stimuli/Hangul_M10.bmp","188","image-keyboard-response","54","155639","0.0-6.0-1.21","test",",","",",","",""
"null","<div style=""color:white; font-size:60px;"">+</div>","null","html-keyboard-response","55","156640","0.0-6.0-0.22","fixation","","","","",""
"2837.7549999859184","Stimuli/Hangul_M23.bmp","190","image-keyboard-response","56","159479","0.0-6.0-1.22","test",",","",".","",""
"null","<div style=""color:white; font-size:60px;"">+</div>","null","html-keyboard-response","57","160480","0.0-6.0-0.23","fixation","","","","",""
"2054.650000005495","Stimuli/Hangul_M19.bmp","190","image-keyboard-response","58","162535","0.0-6.0-1.23","test",",","",".","",""
"null","<div style=""color:white; font-size:60px;"">+</div>","null","html-keyboard-response","59","163536","0.0-6.0-0.24","fixation","","","","",""
"2717.769999988377","Stimuli/Hangul_M11.bmp","188","image-keyboard-response","60","166255","0.0-6.0-1.24","test",",","",",","",""
"null","<div style=""color:white; font-size:60px;"">+</div>","null","html-keyboard-response","61","167256","0.0-6.0-0.25","fixation","","","","",""
"2261.739999987185","Stimuli/Hangul_F9.bmp","190","image-keyboard-response","62","169519","0.0-6.0-1.25","test",".","",".","",""
"null","<div style=""color:white; font-size:60px;"">+</div>","null","html-keyboard-response","63","170519","0.0-6.0-0.26","fixation","","","","",""
"2471.144999959506","Stimuli/Hangul_M5.bmp","188","image-keyboard-response","64","172991","0.0-6.0-1.26","test",",","",",","",""
"null","<div style=""color:white; font-size:60px;"">+</div>","null","html-keyboard-response","65","173992","0.0-6.0-0.27","fixation","","","","",""
"3237.500000046566","Stimuli/Hangul_F6.bmp","190","image-keyboard-response","66","177231","0.0-6.0-1.27","test",".","",".","",""
"null","<div style=""color:white; font-size:60px;"">+</div>","null","html-keyboard-response","67","178232","0.0-6.0-0.28","fixation","","","","",""
"2981.48499999661","Stimuli/Hangul_F22.bmp","190","image-keyboard-response","68","181215","0.0-6.0-1.28","test",".","",".","",""
"null","<div style=""color:white; font-size:60px;"">+</div>","null","html-keyboard-response","69","182217","0.0-6.0-0.29","fixation","","","","",""
"3813.429999980144","Stimuli/Hangul_M15.bmp","190","image-keyboard-response","70","186031","0.0-6.0-1.29","test",",","",".","",""
"null","<div style=""color:white; font-size:60px;"">+</div>","null","html-keyboard-response","71","187032","0.0-6.0-0.30","fixation","","","","",""
"3013.5000000009313","Stimuli/Hangul_F24.bmp","190","image-keyboard-response","72","190046","0.0-6.0-1.30","test",".","",".","",""
"null","<div style=""color:white; font-size:60px;"">+</div>","null","html-keyboard-response","73","191048","0.0-6.0-0.31","fixation","","","","",""
"2253.5550000029616","Stimuli/Hangul_F2.bmp","188","image-keyboard-response","74","193303","0.0-6.0-1.31","test",".","",",","",""
"null","<div style=""color:white; font-size:60px;"">+</div>","null","html-keyboard-response","75","194304","0.0-6.0-0.32","fixation","","","","",""
"3038.0700000096112","Stimuli/Hangul_M12.bmp","188","image-keyboard-response","76","197343","0.0-6.0-1.32","test",",","",",","",""
"null","<div style=""color:white; font-size:60px;"">+</div>","null","html-keyboard-response","77","198344","0.0-6.0-0.33","fixation","","","","",""
"2933.6999999941327","Stimuli/Hangul_F12.bmp","188","image-keyboard-response","78","201279","0.0-6.0-1.33","test",".","",",","",""
"null","<div style=""color:white; font-size:60px;"">+</div>","null","html-keyboard-response","79","202280","0.0-6.0-0.34","fixation","","","","",""
"2846.014999959152","Stimuli/Hangul_F0.bmp","188","image-keyboard-response","80","205127","0.0-6.0-1.34","test",".","",",","",""
"null","<div style=""color:white; font-size:60px;"">+</div>","null","html-keyboard-response","81","206127","0.0-6.0-0.35","fixation","","","","",""
"2126.79999996908","Stimuli/Hangul_F1.bmp","190","image-keyboard-response","82","208255","0.0-6.0-1.35","test",".","",".","",""
"null","<div style=""color:white; font-size:60px;"">+</div>","null","html-keyboard-response","83","209256","0.0-6.0-0.36","fixation","","","","",""
"3005.3750000079162","Stimuli/Hangul_M3.bmp","188","image-keyboard-response","84","212263","0.0-6.0-1.36","test",",","",",","",""
"null","<div style=""color:white; font-size:60px;"">+</div>","null","html-keyboard-response","85","213264","0.0-6.0-0.37","fixation","","","","",""
"2589.6799999754876","Stimuli/Hangul_F5.bmp","188","image-keyboard-response","86","215855","0.0-6.0-1.37","test",".","",",","",""
"null","<div style=""color:white; font-size:60px;"">+</div>","null","html-keyboard-response","87","216856","0.0-6.0-0.38","fixation","","","","",""
"2454.420000023674","Stimuli/Hangul_F20.bmp","190","image-keyboard-response","88","219311","0.0-6.0-1.38","test",".","",".","",""
"null","<div style=""color:white; font-size:60px;"">+</div>","null","html-keyboard-response","89","220312","0.0-6.0-0.39","fixation","","","","",""
"2829.9199999892153","Stimuli/Hangul_F4.bmp","188","image-keyboard-response","90","223143","0.0-6.0-1.39","test",".","",",","",""
"null","<div style=""color:white; font-size:60px;"">+</div>","null","html-keyboard-response","91","224144","0.0-6.0-0.40","fixation","","","","",""
"2197.8399999788962","Stimuli/Hangul_M6.bmp","188","image-keyboard-response","92","226343","0.0-6.0-1.40","test",",","",",","",""
"null","<div style=""color:white; font-size:60px;"">+</div>","null","html-keyboard-response","93","227344","0.0-6.0-0.41","fixation","","","","",""
"2446.17000001017","Stimuli/Hangul_M1.bmp","188","image-keyboard-response","94","229791","0.0-6.0-1.41","test",",","",",","",""
"null","<div style=""color:white; font-size:60px;"">+</div>","null","html-keyboard-response","95","230793","0.0-6.0-0.42","fixation","","","","",""
"2109.4649999868125","Stimuli/Hangul_F17.bmp","190","image-keyboard-response","96","232903","0.0-6.0-1.42","test",".","",".","",""
"null","<div style=""color:white; font-size:60px;"">+</div>","null","html-keyboard-response","97","233904","0.0-6.0-0.43","fixation","","","","",""
"1950.1300000119954","Stimuli/Hangul_M14.bmp","190","image-keyboard-response","98","235855","0.0-6.0-1.43","test",",","",".","",""
"null","<div style=""color:white; font-size:60px;"">+</div>","null","html-keyboard-response","99","236856","0.0-6.0-0.44","fixation","","","","",""
"3749.805000028573","Stimuli/Hangul_F19.bmp","188","image-keyboard-response","100","240607","0.0-6.0-1.44","test",".","",",","",""
"null","<div style=""color:white; font-size:60px;"">+</div>","null","html-keyboard-response","101","241608","0.0-6.0-0.45","fixation","","","","",""
"3437.080000003334","Stimuli/Hangul_M18.bmp","190","image-keyboard-response","102","245046","0.0-6.0-1.45","test",",","",".","",""
"null","<div style=""color:white; font-size:60px;"">+</div>","null","html-keyboard-response","103","246048","0.0-6.0-0.46","fixation","","","","",""
"3525.514999986626","Stimuli/Hangul_M8.bmp","188","image-keyboard-response","104","249575","0.0-6.0-1.46","test",",","",",","",""
"null","<div style=""color:white; font-size:60px;"">+</div>","null","html-keyboard-response","105","250576","0.0-6.0-0.47","fixation","","","","",""
"2214.105000020936","Stimuli/Hangul_M4.bmp","190","image-keyboard-response","106","252791","0.0-6.0-1.47","test",",","",".","",""
"null","<div style=""color:white; font-size:60px;"">+</div>","null","html-keyboard-response","107","253793","0.0-6.0-0.48","fixation","","","","",""
"2469.2849999992177","Stimuli/Hangul_F14.bmp","190","image-keyboard-response","108","256263","0.0-6.0-1.48","test",".","",".","",""
"null","<div style=""color:white; font-size:60px;"">+</div>","null","html-keyboard-response","109","257264","0.0-6.0-0.49","fixation","","","","",""
"3014.3800000078045","Stimuli/Hangul_M7.bmp","188","image-keyboard-response","110","260279","0.0-6.0-1.49","test",",","",",","",""
"84855.86500004865","<p style=""color:white;"">Good job, block 1 complete! Please take a moment to rest.</p> <p style=""color:white;"">When you are ready to continue with block 2 of 4, press the space bar.</p> ","32","html-keyboard-response","111","345135","0.0-7.0","","","","","",""
"null","<div style=""color:white; font-size:60px;"">+</div>","null","html-keyboard-response","112","348138","0.0-8.0-0.0","fixation","","","","",""
"3276.060000003781","Stimuli/Hangul_F37.bmp","188","image-keyboard-response","113","351414","0.0-8.0-1.0","test",".","",",","",""
"null","<div style=""color:white; font-size:60px;"">+</div>","null","html-keyboard-response","114","352416","0.0-8.0-0.1","fixation","","","","",""
"2005.5300000240095","Stimuli/Hangul_F26.bmp","190","image-keyboard-response","115","354422","0.0-8.0-1.1","test",".","",".","",""
"null","<div style=""color:white; font-size:60px;"">+</div>","null","html-keyboard-response","116","355425","0.0-8.0-0.2","fixation","","","","",""
"2085.35499998834","Stimuli/Hangul_M48.bmp","188","image-keyboard-response","117","357511","0.0-8.0-1.2","test",",","",",","",""
"null","<div style=""color:white; font-size:60px;"">+</div>","null","html-keyboard-response","118","358512","0.0-8.0-0.3","fixation","","","","",""
"2293.0949999717996","Stimuli/Hangul_M31.bmp","190","image-keyboard-response","119","360806","0.0-8.0-1.3","test",",","",".","",""
"null","<div style=""color:white; font-size:60px;"">+</div>","null","html-keyboard-response","120","361808","0.0-8.0-0.4","fixation","","","","",""
"2509.940000018105","Stimuli/Hangul_M45.bmp","188","image-keyboard-response","121","364318","0.0-8.0-1.4","test",",","",",","",""
"null","<div style=""color:white; font-size:60px;"">+</div>","null","html-keyboard-response","122","365320","0.0-8.0-0.5","fixation","","","","",""
"1973.2599999988452","Stimuli/Hangul_F44.bmp","188","image-keyboard-response","123","367294","0.0-8.0-1.5","test",".","",",","",""
"null","<div style=""color:white; font-size:60px;"">+</div>","null","html-keyboard-response","124","368296","0.0-8.0-0.6","fixation","","","","",""
"3805.660000012722","Stimuli/Hangul_F27.bmp","190","image-keyboard-response","125","372103","0.0-8.0-1.6","test",".","",".","",""
"null","<div style=""color:white; font-size:60px;"">+</div>","null","html-keyboard-response","126","373104","0.0-8.0-0.7","fixation","","","","",""
"2157.1899999980815","Stimuli/Hangul_M33.bmp","190","image-keyboard-response","127","375262","0.0-8.0-1.7","test",",","",".","",""
"null","<div style=""color:white; font-size:60px;"">+</div>","null","html-keyboard-response","128","376264","0.0-8.0-0.8","fixation","","","","",""
"2013.669999956619","Stimuli/Hangul_M41.bmp","190","image-keyboard-response","129","378278","0.0-8.0-1.8","test",",","",".","",""
"null","<div style=""color:white; font-size:60px;"">+</div>","null","html-keyboard-response","130","379280","0.0-8.0-0.9","fixation","","","","",""
"1973.9999999874271","Stimuli/Hangul_M36.bmp","190","image-keyboard-response","131","381254","0.0-8.0-1.9","test",",","",".","",""
"null","<div style=""color:white; font-size:60px;"">+</div>","null","html-keyboard-response","132","382255","0.0-8.0-0.10","fixation","","","","",""
"1942.334999970626","Stimuli/Hangul_M32.bmp","190","image-keyboard-response","133","384199","0.0-8.0-1.10","test",",","",".","",""
"null","<div style=""color:white; font-size:60px;"">+</div>","null","html-keyboard-response","134","385200","0.0-8.0-0.11","fixation","","","","",""
"2045.7799999858253","Stimuli/Hangul_M35.bmp","190","image-keyboard-response","135","387246","0.0-8.0-1.11","test",",","",".","",""
"null","<div style=""color:white; font-size:60px;"">+</div>","null","html-keyboard-response","136","388247","0.0-8.0-0.12","fixation","","","","",""
"2286.7049999767914","Stimuli/Hangul_M37.bmp","188","image-keyboard-response","137","390534","0.0-8.0-1.12","test",",","",",","",""
"null","<div style=""color:white; font-size:60px;"">+</div>","null","html-keyboard-response","138","391536","0.0-8.0-0.13","fixation","","","","",""
"2405.5800000205636","Stimuli/Hangul_F36.bmp","190","image-keyboard-response","139","393942","0.0-8.0-1.13","test",".","",".","",""
"null","<div style=""color:white; font-size:60px;"">+</div>","null","html-keyboard-response","140","394944","0.0-8.0-0.14","fixation","","","","",""
"2518.4550000121817","Stimuli/Hangul_F49.bmp","190","image-keyboard-response","141","397463","0.0-8.0-1.14","test",".","",".","",""
"null","<div style=""color:white; font-size:60px;"">+</div>","null","html-keyboard-response","142","398464","0.0-8.0-0.15","fixation","","","","",""
"2205.29000001261","Stimuli/Hangul_F25.bmp","190","image-keyboard-response","143","400670","0.0-8.0-1.15","test",".","",".","",""
"null","<div style=""color:white; font-size:60px;"">+</div>","null","html-keyboard-response","144","401672","0.0-8.0-0.16","fixation","","","","",""
"2101.319999957923","Stimuli/Hangul_F38.bmp","188","image-keyboard-response","145","403774","0.0-8.0-1.16","test",".","",",","",""
"null","<div style=""color:white; font-size:60px;"">+</div>","null","html-keyboard-response","146","404775","0.0-8.0-0.17","fixation","","","","",""
"2094.725000031758","Stimuli/Hangul_F46.bmp","188","image-keyboard-response","147","406870","0.0-8.0-1.17","test",".","",",","",""
"null","<div style=""color:white; font-size:60px;"">+</div>","null","html-keyboard-response","148","407872","0.0-8.0-0.18","fixation","","","","",""
"2374.2199999978766","Stimuli/Hangul_M25.bmp","188","image-keyboard-response","149","410247","0.0-8.0-1.18","test",",","",",","",""
"null","<div style=""color:white; font-size:60px;"">+</div>","null","html-keyboard-response","150","411248","0.0-8.0-0.19","fixation","","","","",""
"2565.1350000407547","Stimuli/Hangul_F33.bmp","190","image-keyboard-response","151","413814","0.0-8.0-1.19","test",".","",".","",""
"null","<div style=""color:white; font-size:60px;"">+</div>","null","html-keyboard-response","152","414816","0.0-8.0-0.20","fixation","","","","",""
"2149.695000029169","Stimuli/Hangul_M43.bmp","188","image-keyboard-response","153","416966","0.0-8.0-1.20","test",",","",",","",""
"null","<div style=""color:white; font-size:60px;"">+</div>","null","html-keyboard-response","154","417967","0.0-8.0-0.21","fixation","","","","",""
"2102.194999984931","Stimuli/Hangul_M29.bmp","188","image-keyboard-response","155","420070","0.0-8.0-1.21","test",",","",",","",""
"null","<div style=""color:white; font-size:60px;"">+</div>","null","html-keyboard-response","156","421072","0.0-8.0-0.22","fixation","","","","",""
"2006.0999999986961","Stimuli/Hangul_F35.bmp","190","image-keyboard-response","157","423079","0.0-8.0-1.22","test",".","",".","",""
"null","<div style=""color:white; font-size:60px;"">+</div>","null","html-keyboard-response","158","424080","0.0-8.0-0.23","fixation","","","","",""
"1789.394999970682","Stimuli/Hangul_M42.bmp","190","image-keyboard-response","159","425870","0.0-8.0-1.23","test",",","",".","",""
"null","<div style=""color:white; font-size:60px;"">+</div>","null","html-keyboard-response","160","426871","0.0-8.0-0.24","fixation","","","","",""
"2006.3999999547377","Stimuli/Hangul_F30.bmp","188","image-keyboard-response","161","428878","0.0-8.0-1.24","test",".","",",","",""
"null","<div style=""color:white; font-size:60px;"">+</div>","null","html-keyboard-response","162","429880","0.0-8.0-0.25","fixation","","","","",""
"2149.8199999914505","Stimuli/Hangul_M44.bmp","188","image-keyboard-response","163","432030","0.0-8.0-1.25","test",",","",",","",""
"null","<div style=""color:white; font-size:60px;"">+</div>","null","html-keyboard-response","164","433032","0.0-8.0-0.26","fixation","","","","",""
"2078.2600000384264","Stimuli/Hangul_F45.bmp","188","image-keyboard-response","165","435111","0.0-8.0-1.26","test",".","",",","",""
"null","<div style=""color:white; font-size:60px;"">+</div>","null","html-keyboard-response","166","436112","0.0-8.0-0.27","fixation","","","","",""
"2037.525000050664","Stimuli/Hangul_F47.bmp","188","image-keyboard-response","167","438150","0.0-8.0-1.27","test",".","",",","",""
"null","<div style=""color:white; font-size:60px;"">+</div>","null","html-keyboard-response","168","439152","0.0-8.0-0.28","fixation","","","","",""
"1837.699999974575","Stimuli/Hangul_F43.bmp","188","image-keyboard-response","169","440990","0.0-8.0-1.28","test",".","",",","",""
"null","<div style=""color:white; font-size:60px;"">+</div>","null","html-keyboard-response","170","441992","0.0-8.0-0.29","fixation","","","","",""
"1989.9050000240095","Stimuli/Hangul_M39.bmp","188","image-keyboard-response","171","443982","0.0-8.0-1.29","test",",","",",","",""
"null","<div style=""color:white; font-size:60px;"">+</div>","null","html-keyboard-response","172","444983","0.0-8.0-0.30","fixation","","","","",""
"1870.580000046175","Stimuli/Hangul_F40.bmp","190","image-keyboard-response","173","446854","0.0-8.0-1.30","test",".","",".","",""
"null","<div style=""color:white; font-size:60px;"">+</div>","null","html-keyboard-response","174","447856","0.0-8.0-0.31","fixation","","","","",""
"2173.639999993611","Stimuli/Hangul_F39.bmp","188","image-keyboard-response","175","450030","0.0-8.0-1.31","test",".","",",","",""
"null","<div style=""color:white; font-size:60px;"">+</div>","null","html-keyboard-response","176","451032","0.0-8.0-0.32","fixation","","","","",""
"2373.6499999649823","Stimuli/Hangul_F29.bmp","188","image-keyboard-response","177","453406","0.0-8.0-1.32","test",".","",",","",""
"null","<div style=""color:white; font-size:60px;"">+</div>","null","html-keyboard-response","178","454407","0.0-8.0-0.33","fixation","","","","",""
"2102.0300000091083","Stimuli/Hangul_F31.bmp","190","image-keyboard-response","179","456510","0.0-8.0-1.33","test",".","",".","",""
"null","<div style=""color:white; font-size:60px;"">+</div>","null","html-keyboard-response","180","457512","0.0-8.0-0.34","fixation","","","","",""
"2726.3000000384636","Stimuli/Hangul_F34.bmp","188","image-keyboard-response","181","460239","0.0-8.0-1.34","test",".","",",","",""
"null","<div style=""color:white; font-size:60px;"">+</div>","null","html-keyboard-response","182","461239","0.0-8.0-0.35","fixation","","","","",""
"2229.894999996759","Stimuli/Hangul_M34.bmp","190","image-keyboard-response","183","463470","0.0-8.0-1.35","test",",","",".","",""
"null","<div style=""color:white; font-size:60px;"">+</div>","null","html-keyboard-response","184","464472","0.0-8.0-0.36","fixation","","","","",""
"2229.7700000344776","Stimuli/Hangul_M26.bmp","188","image-keyboard-response","185","466702","0.0-8.0-1.36","test",",","",",","",""
"null","<div style=""color:white; font-size:60px;"">+</div>","null","html-keyboard-response","186","467704","0.0-8.0-0.37","fixation","","","","",""
"2557.3300000396557","Stimuli/Hangul_M28.bmp","190","image-keyboard-response","187","470263","0.0-8.0-1.37","test",",","",".","",""
"null","<div style=""color:white; font-size:60px;"">+</div>","null","html-keyboard-response","188","471263","0.0-8.0-0.38","fixation","","","","",""
"2038.0000000004657","Stimuli/Hangul_M40.bmp","188","image-keyboard-response","189","473302","0.0-8.0-1.38","test",",","",",","",""
"null","<div style=""color:white; font-size:60px;"">+</div>","null","html-keyboard-response","190","474303","0.0-8.0-0.39","fixation","","","","",""
"2558.2350000040606","Stimuli/Hangul_M47.bmp","188","image-keyboard-response","191","476862","0.0-8.0-1.39","test",",","",",","",""
"null","<div style=""color:white; font-size:60px;"">+</div>","null","html-keyboard-response","192","477863","0.0-8.0-0.40","fixation","","","","",""
"2078.6100000259466","Stimuli/Hangul_F41.bmp","188","image-keyboard-response","193","479942","0.0-8.0-1.40","test",".","",",","",""
"null","<div style=""color:white; font-size:60px;"">+</div>","null","html-keyboard-response","194","480944","0.0-8.0-0.41","fixation","","","","",""
"2061.809999984689","Stimuli/Hangul_F42.bmp","188","image-keyboard-response","195","483007","0.0-8.0-1.41","test",".","",",","",""
"null","<div style=""color:white; font-size:60px;"">+</div>","null","html-keyboard-response","196","484007","0.0-8.0-0.42","fixation","","","","",""
"2222.620000015013","Stimuli/Hangul_M30.bmp","190","image-keyboard-response","197","486230","0.0-8.0-1.42","test",",","",".","",""
"null","<div style=""color:white; font-size:60px;"">+</div>","null","html-keyboard-response","198","487232","0.0-8.0-0.43","fixation","","","","",""
"2253.1200000084937","Stimuli/Hangul_F48.bmp","188","image-keyboard-response","199","489486","0.0-8.0-1.43","test",".","",",","",""
"null","<div style=""color:white; font-size:60px;"">+</div>","null","html-keyboard-response","200","490487","0.0-8.0-0.44","fixation","","","","",""
"2390.1649999897927","Stimuli/Hangul_M46.bmp","190","image-keyboard-response","201","492878","0.0-8.0-1.44","test",",","",".","",""
"null","<div style=""color:white; font-size:60px;"">+</div>","null","html-keyboard-response","202","493880","0.0-8.0-0.45","fixation","","","","",""
"2534.670000022743","Stimuli/Hangul_M38.bmp","190","image-keyboard-response","203","496415","0.0-8.0-1.45","test",",","",".","",""
"null","<div style=""color:white; font-size:60px;"">+</div>","null","html-keyboard-response","204","497416","0.0-8.0-0.46","fixation","","","","",""
"2012.8250000416301","Stimuli/Hangul_F28.bmp","188","image-keyboard-response","205","499430","0.0-8.0-1.46","test",".","",",","",""
"null","<div style=""color:white; font-size:60px;"">+</div>","null","html-keyboard-response","206","500431","0.0-8.0-0.47","fixation","","","","",""
"2038.2150000077672","Stimuli/Hangul_M27.bmp","188","image-keyboard-response","207","502470","0.0-8.0-1.47","test",",","",",","",""
"null","<div style=""color:white; font-size:60px;"">+</div>","null","html-keyboard-response","208","503472","0.0-8.0-0.48","fixation","","","","",""
"2613.4750000201166","Stimuli/Hangul_M49.bmp","190","image-keyboard-response","209","506086","0.0-8.0-1.48","test",",","",".","",""
"null","<div style=""color:white; font-size:60px;"">+</div>","null","html-keyboard-response","210","507087","0.0-8.0-0.49","fixation","","","","",""
"2934.175000002142","Stimuli/Hangul_F32.bmp","188","image-keyboard-response","211","510022","0.0-8.0-1.49","test",".","",",","",""
"1198350.625000021","<p style=""color:white;"">Half way there! Please take a moment to rest.</p> <p style=""color:white;"">When you are ready to continue with block 3 of 4, press the space bar.</p> ","32","html-keyboard-response","212","1708374","0.0-9.0","","","","","",""
"null","<div style=""color:white; font-size:60px;"">+</div>","null","html-keyboard-response","213","1711376","0.0-10.0-0.0","fixation","","","","",""
"4092.5350000034086","Stimuli/Hangul_M70.bmp","188","image-keyboard-response","214","1715469","0.0-10.0-1.0","test",",","",",","",""
"null","<div style=""color:white; font-size:60px;"">+</div>","null","html-keyboard-response","215","1716471","0.0-10.0-0.1","fixation","","","","",""
"2862.2249999898486","Stimuli/Hangul_M52.bmp","188","image-keyboard-response","216","1719334","0.0-10.0-1.1","test",",","",",","",""
"null","<div style=""color:white; font-size:60px;"">+</div>","null","html-keyboard-response","217","1720335","0.0-10.0-0.2","fixation","","","","",""
"2445.415000023786","Stimuli/Hangul_F70.bmp","188","image-keyboard-response","218","1722782","0.0-10.0-1.2","test",".","",",","",""
"null","<div style=""color:white; font-size:60px;"">+</div>","null","html-keyboard-response","219","1723783","0.0-10.0-0.3","fixation","","","","",""
"2805.7499999995343","Stimuli/Hangul_M72.bmp","188","image-keyboard-response","220","1726590","0.0-10.0-1.3","test",",","",",","",""
"null","<div style=""color:white; font-size:60px;"">+</div>","null","html-keyboard-response","221","1727591","0.0-10.0-0.4","fixation","","","","",""
"2326.5700000338256","Stimuli/Hangul_M55.bmp","188","image-keyboard-response","222","1729918","0.0-10.0-1.4","test",",","",",","",""
"null","<div style=""color:white; font-size:60px;"">+</div>","null","html-keyboard-response","223","1730919","0.0-10.0-0.5","fixation","","","","",""
"2461.79500001017","Stimuli/Hangul_M61.bmp","190","image-keyboard-response","224","1733381","0.0-10.0-1.5","test",",","",".","",""
"null","<div style=""color:white; font-size:60px;"">+</div>","null","html-keyboard-response","225","1734383","0.0-10.0-0.6","fixation","","","","",""
"2389.804999984335","Stimuli/Hangul_F58.bmp","190","image-keyboard-response","226","1736774","0.0-10.0-1.6","test",".","",".","",""
"null","<div style=""color:white; font-size:60px;"">+</div>","null","html-keyboard-response","227","1737775","0.0-10.0-0.7","fixation","","","","",""
"2414.1299999901094","Stimuli/Hangul_M68.bmp","188","image-keyboard-response","228","1740190","0.0-10.0-1.7","test",",","",",","",""
"null","<div style=""color:white; font-size:60px;"">+</div>","null","html-keyboard-response","229","1741192","0.0-10.0-0.8","fixation","","","","",""
"2181.6450000042096","Stimuli/Hangul_F54.bmp","190","image-keyboard-response","230","1743374","0.0-10.0-1.8","test",".","",".","",""
"null","<div style=""color:white; font-size:60px;"">+</div>","null","html-keyboard-response","231","1744375","0.0-10.0-0.9","fixation","","","","",""
"3117.3650000127964","Stimuli/Hangul_F62.bmp","190","image-keyboard-response","232","1747493","0.0-10.0-1.9","test",".","",".","",""
"null","<div style=""color:white; font-size:60px;"">+</div>","null","html-keyboard-response","233","1748495","0.0-10.0-0.10","fixation","","","","",""
"2094.2599999834783","Stimuli/Hangul_M63.bmp","188","image-keyboard-response","234","1750590","0.0-10.0-1.10","test",",","",",","",""
"null","<div style=""color:white; font-size:60px;"">+</div>","null","html-keyboard-response","235","1751591","0.0-10.0-0.11","fixation","","","","",""
"3405.384999990929","Stimuli/Hangul_F67.bmp","188","image-keyboard-response","236","1754997","0.0-10.0-1.11","test",".","",",","",""
"null","<div style=""color:white; font-size:60px;"">+</div>","null","html-keyboard-response","237","1755999","0.0-10.0-0.12","fixation","","","","",""
"2709.6800000290386","Stimuli/Hangul_F73.bmp","190","image-keyboard-response","238","1758710","0.0-10.0-1.12","test",".","",".","",""
"null","<div style=""color:white; font-size:60px;"">+</div>","null","html-keyboard-response","239","1759711","0.0-10.0-0.13","fixation","","","","",""
"2318.489999976009","Stimuli/Hangul_M50.bmp","188","image-keyboard-response","240","1762030","0.0-10.0-1.13","test",",","",",","",""
"null","<div style=""color:white; font-size:60px;"">+</div>","null","html-keyboard-response","241","1763032","0.0-10.0-0.14","fixation","","","","",""
"2204.700000002049","Stimuli/Hangul_F68.bmp","190","image-keyboard-response","242","1765237","0.0-10.0-1.14","test",".","",".","",""
"null","<div style=""color:white; font-size:60px;"">+</div>","null","html-keyboard-response","243","1766239","0.0-10.0-0.15","fixation","","","","",""
"2453.9649999933317","Stimuli/Hangul_F57.bmp","190","image-keyboard-response","244","1768694","0.0-10.0-1.15","test",".","",".","",""
"null","<div style=""color:white; font-size:60px;"">+</div>","null","html-keyboard-response","245","1769696","0.0-10.0-0.16","fixation","","","","",""
"2541.7100000195205","Stimuli/Hangul_F63.bmp","188","image-keyboard-response","246","1772239","0.0-10.0-1.16","test",".","",",","",""
"null","<div style=""color:white; font-size:60px;"">+</div>","null","html-keyboard-response","247","1773240","0.0-10.0-0.17","fixation","","","","",""
"2525.3049999591894","Stimuli/Hangul_M67.bmp","190","image-keyboard-response","248","1775766","0.0-10.0-1.17","test",",","",".","",""
"null","<div style=""color:white; font-size:60px;"">+</div>","null","html-keyboard-response","249","1776768","0.0-10.0-0.18","fixation","","","","",""
"2037.445000023581","Stimuli/Hangul_M53.bmp","188","image-keyboard-response","250","1778806","0.0-10.0-1.18","test",",","",",","",""
"null","<div style=""color:white; font-size:60px;"">+</div>","null","html-keyboard-response","251","1779808","0.0-10.0-0.19","fixation","","","","",""
"2709.939999971539","Stimuli/Hangul_M54.bmp","190","image-keyboard-response","252","1782519","0.0-10.0-1.19","test",",","",".","",""
"null","<div style=""color:white; font-size:60px;"">+</div>","null","html-keyboard-response","253","1783520","0.0-10.0-0.20","fixation","","","","",""
"2349.2850000038743","Stimuli/Hangul_M51.bmp","188","image-keyboard-response","254","1785870","0.0-10.0-1.20","test",",","",",","",""
"null","<div style=""color:white; font-size:60px;"">+</div>","null","html-keyboard-response","255","1786871","0.0-10.0-0.21","fixation","","","","",""
"2462.3399999691173","Stimuli/Hangul_F61.bmp","188","image-keyboard-response","256","1789334","0.0-10.0-1.21","test",".","",",","",""
"null","<div style=""color:white; font-size:60px;"">+</div>","null","html-keyboard-response","257","1790336","0.0-10.0-0.22","fixation","","","","",""
"2229.445000004489","Stimuli/Hangul_F53.bmp","190","image-keyboard-response","258","1792566","0.0-10.0-1.22","test",".","",".","",""
"null","<div style=""color:white; font-size:60px;"">+</div>","null","html-keyboard-response","259","1793568","0.0-10.0-0.23","fixation","","","","",""
"1685.3550000232644","Stimuli/Hangul_F69.bmp","190","image-keyboard-response","260","1795254","0.0-10.0-1.23","test",".","",".","",""
"null","<div style=""color:white; font-size:60px;"">+</div>","null","html-keyboard-response","261","1796255","0.0-10.0-0.24","fixation","","","","",""
"2494.3900000071153","Stimuli/Hangul_M71.bmp","188","image-keyboard-response","262","1798750","0.0-10.0-1.24","test",",","",",","",""
"null","<div style=""color:white; font-size:60px;"">+</div>","null","html-keyboard-response","263","1799752","0.0-10.0-0.25","fixation","","","","",""
"1902.1649999776855","Stimuli/Hangul_F51.bmp","190","image-keyboard-response","264","1801654","0.0-10.0-1.25","test",".","",".","",""
"null","<div style=""color:white; font-size:60px;"">+</div>","null","html-keyboard-response","265","1802656","0.0-10.0-0.26","fixation","","","","",""
"1701.9100000034086","Stimuli/Hangul_F56.bmp","190","image-keyboard-response","266","1804359","0.0-10.0-1.26","test",".","",".","",""
"null","<div style=""color:white; font-size:60px;"">+</div>","null","html-keyboard-response","267","1805359","0.0-10.0-0.27","fixation","","","","",""
"2038.0049999803305","Stimuli/Hangul_F59.bmp","188","image-keyboard-response","268","1807398","0.0-10.0-1.27","test",".","",",","",""
"null","<div style=""color:white; font-size:60px;"">+</div>","null","html-keyboard-response","269","1808399","0.0-10.0-0.28","fixation","","","","",""
"2142.3650000360794","Stimuli/Hangul_F60.bmp","190","image-keyboard-response","270","1810542","0.0-10.0-1.28","test",".","",".","",""
"null","<div style=""color:white; font-size:60px;"">+</div>","null","html-keyboard-response","271","1811543","0.0-10.0-0.29","fixation","","","","",""
"2862.5199999660254","Stimuli/Hangul_F74.bmp","190","image-keyboard-response","272","1814407","0.0-10.0-1.29","test",".","",".","",""
"null","<div style=""color:white; font-size:60px;"">+</div>","null","html-keyboard-response","273","1815408","0.0-10.0-0.30","fixation","","","","",""
"2725.765000039246","Stimuli/Hangul_F66.bmp","190","image-keyboard-response","274","1818134","0.0-10.0-1.30","test",".","",".","",""
"null","<div style=""color:white; font-size:60px;"">+</div>","null","html-keyboard-response","275","1819136","0.0-10.0-0.31","fixation","","","","",""
"2949.3599999696016","Stimuli/Hangul_M59.bmp","190","image-keyboard-response","276","1822086","0.0-10.0-1.31","test",",","",".","",""
"null","<div style=""color:white; font-size:60px;"">+</div>","null","html-keyboard-response","277","1823088","0.0-10.0-0.32","fixation","","","","",""
"2149.825000029523","Stimuli/Hangul_F50.bmp","190","image-keyboard-response","278","1825239","0.0-10.0-1.32","test",".","",".","",""
"null","<div style=""color:white; font-size:60px;"">+</div>","null","html-keyboard-response","279","1826240","0.0-10.0-0.33","fixation","","","","",""
"2045.3850000048988","Stimuli/Hangul_F64.bmp","190","image-keyboard-response","280","1828286","0.0-10.0-1.33","test",".","",".","",""
"null","<div style=""color:white; font-size:60px;"">+</div>","null","html-keyboard-response","281","1829287","0.0-10.0-0.34","fixation","","","","",""
"2294.415000011213","Stimuli/Hangul_M73.bmp","188","image-keyboard-response","282","1831582","0.0-10.0-1.34","test",",","",",","",""
"null","<div style=""color:white; font-size:60px;"">+</div>","null","html-keyboard-response","283","1832584","0.0-10.0-0.35","fixation","","","","",""
"2557.734999980312","Stimuli/Hangul_F52.bmp","190","image-keyboard-response","284","1835142","0.0-10.0-1.35","test",".","",".","",""
"null","<div style=""color:white; font-size:60px;"">+</div>","null","html-keyboard-response","285","1836144","0.0-10.0-0.36","fixation","","","","",""
"2846.27499995986","Stimuli/Hangul_M62.bmp","188","image-keyboard-response","286","1838991","0.0-10.0-1.36","test",",","",",","",""
"null","<div style=""color:white; font-size:60px;"">+</div>","null","html-keyboard-response","287","1839993","0.0-10.0-0.37","fixation","","","","",""
"3053.6900000297464","Stimuli/Hangul_M60.bmp","190","image-keyboard-response","288","1843047","0.0-10.0-1.37","test",",","",".","",""
"null","<div style=""color:white; font-size:60px;"">+</div>","null","html-keyboard-response","289","1844048","0.0-10.0-0.38","fixation","","","","",""
"2877.7700000209734","Stimuli/Hangul_M74.bmp","188","image-keyboard-response","290","1846926","0.0-10.0-1.38","test",",","",",","",""
"null","<div style=""color:white; font-size:60px;"">+</div>","null","html-keyboard-response","291","1847928","0.0-10.0-0.39","fixation","","","","",""
"2957.8099999926053","Stimuli/Hangul_M64.bmp","188","image-keyboard-response","292","1850887","0.0-10.0-1.39","test",",","",",","",""
"null","<div style=""color:white; font-size:60px;"">+</div>","null","html-keyboard-response","293","1851888","0.0-10.0-0.40","fixation","","","","",""
"3526.1150000151247","Stimuli/Hangul_M58.bmp","188","image-keyboard-response","294","1855414","0.0-10.0-1.40","test",",","",",","",""
"null","<div style=""color:white; font-size:60px;"">+</div>","null","html-keyboard-response","295","1856416","0.0-10.0-0.41","fixation","","","","",""
"2117.2050000168383","Stimuli/Hangul_M57.bmp","188","image-keyboard-response","296","1858534","0.0-10.0-1.41","test",",","",",","",""
"null","<div style=""color:white; font-size:60px;"">+</div>","null","html-keyboard-response","297","1859536","0.0-10.0-0.42","fixation","","","","",""
"2373.5650000162423","Stimuli/Hangul_F55.bmp","188","image-keyboard-response","298","1861911","0.0-10.0-1.42","test",".","",",","",""
"null","<div style=""color:white; font-size:60px;"">+</div>","null","html-keyboard-response","299","1862912","0.0-10.0-0.43","fixation","","","","",""
"1733.7900000275113","Stimuli/Hangul_F71.bmp","190","image-keyboard-response","300","1864646","0.0-10.0-1.43","test",".","",".","",""
"null","<div style=""color:white; font-size:60px;"">+</div>","null","html-keyboard-response","301","1865648","0.0-10.0-0.44","fixation","","","","",""
"2109.564999991562","Stimuli/Hangul_F72.bmp","188","image-keyboard-response","302","1867758","0.0-10.0-1.44","test",".","",",","",""
"null","<div style=""color:white; font-size:60px;"">+</div>","null","html-keyboard-response","303","1868760","0.0-10.0-0.45","fixation","","","","",""
"1613.9950000215322","Stimuli/Hangul_F65.bmp","190","image-keyboard-response","304","1870374","0.0-10.0-1.45","test",".","",".","",""
"null","<div style=""color:white; font-size:60px;"">+</div>","null","html-keyboard-response","305","1871376","0.0-10.0-0.46","fixation","","","","",""
"2301.880000042729","Stimuli/Hangul_M66.bmp","188","image-keyboard-response","306","1873679","0.0-10.0-1.46","test",",","",",","",""
"null","<div style=""color:white; font-size:60px;"">+</div>","null","html-keyboard-response","307","1874680","0.0-10.0-0.47","fixation","","","","",""
"2173.064999980852","Stimuli/Hangul_M69.bmp","188","image-keyboard-response","308","1876854","0.0-10.0-1.47","test",",","",",","",""
"null","<div style=""color:white; font-size:60px;"">+</div>","null","html-keyboard-response","309","1877856","0.0-10.0-0.48","fixation","","","","",""
"2550.0299999839626","Stimuli/Hangul_M56.bmp","188","image-keyboard-response","310","1880406","0.0-10.0-1.48","test",",","",",","",""
"null","<div style=""color:white; font-size:60px;"">+</div>","null","html-keyboard-response","311","1881408","0.0-10.0-0.49","fixation","","","","",""
"2414.185000001453","Stimuli/Hangul_M65.bmp","188","image-keyboard-response","312","1883823","0.0-10.0-1.49","test",",","",",","",""
"1190.889999968931","<p style=""color:white;"">One more block to go! Please take a moment to rest.</p> <p style=""color:white;"">When you are ready to continue with block 4 of 4, press the space bar.</p> ","32","html-keyboard-response","313","1885014","0.0-11.0","","","","","",""
"null","<div style=""color:white; font-size:60px;"">+</div>","null","html-keyboard-response","314","1888016","0.0-12.0-0.0","fixation","","","","",""
"2165.27999995742","Stimuli/Hangul_M76.bmp","188","image-keyboard-response","315","1890182","0.0-12.0-1.0","test",",","",",","",""
"null","<div style=""color:white; font-size:60px;"">+</div>","null","html-keyboard-response","316","1891184","0.0-12.0-0.1","fixation","","","","",""
"1821.590000006836","Stimuli/Hangul_M87.bmp","190","image-keyboard-response","317","1893006","0.0-12.0-1.1","test",",","",".","",""
"null","<div style=""color:white; font-size:60px;"">+</div>","null","html-keyboard-response","318","1894007","0.0-12.0-0.2","fixation","","","","",""
"2390.289999952074","Stimuli/Hangul_F88.bmp","190","image-keyboard-response","319","1896398","0.0-12.0-1.2","test",".","",".","",""
"null","<div style=""color:white; font-size:60px;"">+</div>","null","html-keyboard-response","320","1897400","0.0-12.0-0.3","fixation","","","","",""
"2749.355000036303","Stimuli/Hangul_M93.bmp","188","image-keyboard-response","321","1900150","0.0-12.0-1.3","test",",","",",","",""
"null","<div style=""color:white; font-size:60px;"">+</div>","null","html-keyboard-response","322","1901151","0.0-12.0-0.4","fixation","","","","",""
"2398.0650000157766","Stimuli/Hangul_M80.bmp","188","image-keyboard-response","323","1903550","0.0-12.0-1.4","test",",","",",","",""
"null","<div style=""color:white; font-size:60px;"">+</div>","null","html-keyboard-response","324","1904551","0.0-12.0-0.5","fixation","","","","",""
"1717.5300000235438","Stimuli/Hangul_F95.bmp","190","image-keyboard-response","325","1906270","0.0-12.0-1.5","test",".","",".","",""
"null","<div style=""color:white; font-size:60px;"">+</div>","null","html-keyboard-response","326","1907271","0.0-12.0-0.6","fixation","","","","",""
"1894.8049999889918","Stimuli/Hangul_F98.bmp","190","image-keyboard-response","327","1909166","0.0-12.0-1.6","test",".","",".","",""
"null","<div style=""color:white; font-size:60px;"">+</div>","null","html-keyboard-response","328","1910167","0.0-12.0-0.7","fixation","","","","",""
"2622.0099999918602","Stimuli/Hangul_M88.bmp","188","image-keyboard-response","329","1912790","0.0-12.0-1.7","test",",","",",","",""
"null","<div style=""color:white; font-size:60px;"">+</div>","null","html-keyboard-response","330","1913791","0.0-12.0-0.8","fixation","","","","",""
"2014.1449999646284","Stimuli/Hangul_M78.bmp","188","image-keyboard-response","331","1915806","0.0-12.0-1.8","test",",","",",","",""
"null","<div style=""color:white; font-size:60px;"">+</div>","null","html-keyboard-response","332","1916808","0.0-12.0-0.9","fixation","","","","",""
"2125.189999991562","Stimuli/Hangul_M75.bmp","188","image-keyboard-response","333","1918934","0.0-12.0-1.9","test",",","",",","",""
"null","<div style=""color:white; font-size:60px;"">+</div>","null","html-keyboard-response","334","1919935","0.0-12.0-0.10","fixation","","","","",""
"1742.5249999505468","Stimuli/Hangul_F97.bmp","190","image-keyboard-response","335","1921678","0.0-12.0-1.10","test",".","",".","",""
"null","<div style=""color:white; font-size:60px;"">+</div>","null","html-keyboard-response","336","1922680","0.0-12.0-0.11","fixation","","","","",""
"1788.6199999484234","Stimuli/Hangul_F86.bmp","190","image-keyboard-response","337","1924470","0.0-12.0-1.11","test",".","",".","",""
"null","<div style=""color:white; font-size:60px;"">+</div>","null","html-keyboard-response","338","1925472","0.0-12.0-0.12","fixation","","","","",""
"2157.4450000189245","Stimuli/Hangul_M98.bmp","188","image-keyboard-response","339","1927630","0.0-12.0-1.12","test",",","",",","",""
"null","<div style=""color:white; font-size:60px;"">+</div>","null","html-keyboard-response","340","1928631","0.0-12.0-0.13","fixation","","","","",""
"2005.795000004582","Stimuli/Hangul_F94.bmp","190","image-keyboard-response","341","1930638","0.0-12.0-1.13","test",".","",".","",""
"null","<div style=""color:white; font-size:60px;"">+</div>","null","html-keyboard-response","342","1931640","0.0-12.0-0.14","fixation","","","","",""
"2438.114999968093","Stimuli/Hangul_F77.bmp","190","image-keyboard-response","343","1934078","0.0-12.0-1.14","test",".","",".","",""
"null","<div style=""color:white; font-size:60px;"">+</div>","null","html-keyboard-response","344","1935079","0.0-12.0-0.15","fixation","","","","",""
"2157.920000026934","Stimuli/Hangul_M90.bmp","188","image-keyboard-response","345","1937238","0.0-12.0-1.15","test",",","",",","",""
"null","<div style=""color:white; font-size:60px;"">+</div>","null","html-keyboard-response","346","1938240","0.0-12.0-0.16","fixation","","","","",""
"2005.6800000020303","Stimuli/Hangul_F83.bmp","190","image-keyboard-response","347","1940246","0.0-12.0-1.16","test",".","",".","",""
"null","<div style=""color:white; font-size:60px;"">+</div>","null","html-keyboard-response","348","1941248","0.0-12.0-0.17","fixation","","","","",""
"2173.8899999763817","Stimuli/Hangul_F99.bmp","188","image-keyboard-response","349","1943422","0.0-12.0-1.17","test",".","",",","",""
"null","<div style=""color:white; font-size:60px;"">+</div>","null","html-keyboard-response","350","1944423","0.0-12.0-0.18","fixation","","","","",""
"2894.6449999930337","Stimuli/Hangul_M94.bmp","188","image-keyboard-response","351","1947318","0.0-12.0-1.18","test",",","",",","",""
"null","<div style=""color:white; font-size:60px;"">+</div>","null","html-keyboard-response","352","1948320","0.0-12.0-0.19","fixation","","","","",""
"2317.174999974668","Stimuli/Hangul_F82.bmp","190","image-keyboard-response","353","1950638","0.0-12.0-1.19","test",".","",".","",""
"null","<div style=""color:white; font-size:60px;"">+</div>","null","html-keyboard-response","354","1951639","0.0-12.0-0.20","fixation","","","","",""
"1997.8800000390038","Stimuli/Hangul_F79.bmp","190","image-keyboard-response","355","1953638","0.0-12.0-1.20","test",".","",".","",""
"null","<div style=""color:white; font-size:60px;"">+</div>","null","html-keyboard-response","356","1954638","0.0-12.0-0.21","fixation","","","","",""
"2285.8950000372715","Stimuli/Hangul_M81.bmp","188","image-keyboard-response","357","1956926","0.0-12.0-1.21","test",",","",",","",""
"null","<div style=""color:white; font-size:60px;"">+</div>","null","html-keyboard-response","358","1957927","0.0-12.0-0.22","fixation","","","","",""
"2246.8149999622256","Stimuli/Hangul_F90.bmp","188","image-keyboard-response","359","1960174","0.0-12.0-1.22","test",".","",",","",""
"null","<div style=""color:white; font-size:60px;"">+</div>","null","html-keyboard-response","360","1961176","0.0-12.0-0.23","fixation","","","","",""
"2164.989999961108","Stimuli/Hangul_F80.bmp","190","image-keyboard-response","361","1963342","0.0-12.0-1.23","test",".","",".","",""
"null","<div style=""color:white; font-size:60px;"">+</div>","null","html-keyboard-response","362","1964343","0.0-12.0-0.24","fixation","","","","",""
"2078.139999997802","Stimuli/Hangul_M84.bmp","190","image-keyboard-response","363","1966422","0.0-12.0-1.24","test",",","",".","",""
"null","<div style=""color:white; font-size:60px;"">+</div>","null","html-keyboard-response","364","1967423","0.0-12.0-0.25","fixation","","","","",""
"2006.085000000894","Stimuli/Hangul_F96.bmp","188","image-keyboard-response","365","1969430","0.0-12.0-1.25","test",".","",",","",""
"null","<div style=""color:white; font-size:60px;"">+</div>","null","html-keyboard-response","366","1970431","0.0-12.0-0.26","fixation","","","","",""
"2350.4050000337884","Stimuli/Hangul_M79.bmp","188","image-keyboard-response","367","1972782","0.0-12.0-1.26","test",",","",",","",""
"null","<div style=""color:white; font-size:60px;"">+</div>","null","html-keyboard-response","368","1973783","0.0-12.0-0.27","fixation","","","","",""
"1766.1899999948218","Stimuli/Hangul_F84.bmp","190","image-keyboard-response","369","1975550","0.0-12.0-1.27","test",".","",".","",""
"null","<div style=""color:white; font-size:60px;"">+</div>","null","html-keyboard-response","370","1976551","0.0-12.0-0.28","fixation","","","","",""
"2837.5449999584816","Stimuli/Hangul_M96.bmp","188","image-keyboard-response","371","1979390","0.0-12.0-1.28","test",",","",",","",""
"null","<div style=""color:white; font-size:60px;"">+</div>","null","html-keyboard-response","372","1980391","0.0-12.0-0.29","fixation","","","","",""
"2053.1300000147894","Stimuli/Hangul_F78.bmp","190","image-keyboard-response","373","1982446","0.0-12.0-1.29","test",".","",".","",""
"null","<div style=""color:white; font-size:60px;"">+</div>","null","html-keyboard-response","374","1983447","0.0-12.0-0.30","fixation","","","","",""
"2077.8299999656156","Stimuli/Hangul_M77.bmp","188","image-keyboard-response","375","1985526","0.0-12.0-1.30","test",",","",",","",""
"null","<div style=""color:white; font-size:60px;"">+</div>","null","html-keyboard-response","376","1986527","0.0-12.0-0.31","fixation","","","","",""
"2038.074999989476","Stimuli/Hangul_M85.bmp","188","image-keyboard-response","377","1988566","0.0-12.0-1.31","test",",","",",","",""
"null","<div style=""color:white; font-size:60px;"">+</div>","null","html-keyboard-response","378","1989567","0.0-12.0-0.32","fixation","","","","",""
"1982.3599999654107","Stimuli/Hangul_M82.bmp","188","image-keyboard-response","379","1991549","0.0-12.0-1.32","test",",","",",","",""
"null","<div style=""color:white; font-size:60px;"">+</div>","null","html-keyboard-response","380","1992551","0.0-12.0-0.33","fixation","","","","",""
"2085.755000007339","Stimuli/Hangul_M83.bmp","188","image-keyboard-response","381","1994638","0.0-12.0-1.33","test",",","",",","",""
"null","<div style=""color:white; font-size:60px;"">+</div>","null","html-keyboard-response","382","1995640","0.0-12.0-0.34","fixation","","","","",""
"2045.6049999920651","Stimuli/Hangul_F85.bmp","190","image-keyboard-response","383","1997686","0.0-12.0-1.34","test",".","",".","",""
"null","<div style=""color:white; font-size:60px;"">+</div>","null","html-keyboard-response","384","1998687","0.0-12.0-0.35","fixation","","","","",""
"1757.645000005141","Stimuli/Hangul_F75.bmp","190","image-keyboard-response","385","2000445","0.0-12.0-1.35","test",".","",".","",""
"null","<div style=""color:white; font-size:60px;"">+</div>","null","html-keyboard-response","386","2001447","0.0-12.0-0.36","fixation","","","","",""
"2150.4900000290945","Stimuli/Hangul_M86.bmp","188","image-keyboard-response","387","2003598","0.0-12.0-1.36","test",",","",",","",""
"null","<div style=""color:white; font-size:60px;"">+</div>","null","html-keyboard-response","388","2004599","0.0-12.0-0.37","fixation","","","","",""
"1870.0299999909475","Stimuli/Hangul_F93.bmp","190","image-keyboard-response","389","2006470","0.0-12.0-1.37","test",".","",".","",""
"null","<div style=""color:white; font-size:60px;"">+</div>","null","html-keyboard-response","390","2007473","0.0-12.0-0.38","fixation","","","","",""
"2021.390000008978","Stimuli/Hangul_M91.bmp","188","image-keyboard-response","391","2009495","0.0-12.0-1.38","test",",","",",","",""
"null","<div style=""color:white; font-size:60px;"">+</div>","null","html-keyboard-response","392","2010496","0.0-12.0-0.39","fixation","","","","",""
"2357.4699999880977","Stimuli/Hangul_F92.bmp","190","image-keyboard-response","393","2012854","0.0-12.0-1.39","test",".","",".","",""
"null","<div style=""color:white; font-size:60px;"">+</div>","null","html-keyboard-response","394","2013856","0.0-12.0-0.40","fixation","","","","",""
"1909.6950000384822","Stimuli/Hangul_M95.bmp","188","image-keyboard-response","395","2015766","0.0-12.0-1.40","test",",","",",","",""
"null","<div style=""color:white; font-size:60px;"">+</div>","null","html-keyboard-response","396","2016768","0.0-12.0-0.41","fixation","","","","",""
"2005.7549999910407","Stimuli/Hangul_F87.bmp","190","image-keyboard-response","397","2018774","0.0-12.0-1.41","test",".","",".","",""
"null","<div style=""color:white; font-size:60px;"">+</div>","null","html-keyboard-response","398","2019776","0.0-12.0-0.42","fixation","","","","",""
"1966.6250000009313","Stimuli/Hangul_M89.bmp","188","image-keyboard-response","399","2021743","0.0-12.0-1.42","test",",","",",","",""
"null","<div style=""color:white; font-size:60px;"">+</div>","null","html-keyboard-response","400","2022744","0.0-12.0-0.43","fixation","","","","",""
"2037.47999999905","Stimuli/Hangul_F76.bmp","190","image-keyboard-response","401","2024782","0.0-12.0-1.43","test",".","",".","",""
"null","<div style=""color:white; font-size:60px;"">+</div>","null","html-keyboard-response","402","2025784","0.0-12.0-0.44","fixation","","","","",""
"2125.9549999958836","Stimuli/Hangul_F81.bmp","190","image-keyboard-response","403","2027910","0.0-12.0-1.44","test",".","",".","",""
"null","<div style=""color:white; font-size:60px;"">+</div>","null","html-keyboard-response","404","2028911","0.0-12.0-0.45","fixation","","","","",""
"1758.365000016056","Stimuli/Hangul_F89.bmp","190","image-keyboard-response","405","2030670","0.0-12.0-1.45","test",".","",".","",""
"null","<div style=""color:white; font-size:60px;"">+</div>","null","html-keyboard-response","406","2031672","0.0-12.0-0.46","fixation","","","","",""
"2230.1600000355393","Stimuli/Hangul_M92.bmp","188","image-keyboard-response","407","2033902","0.0-12.0-1.46","test",",","",",","",""
"null","<div style=""color:white; font-size:60px;"">+</div>","null","html-keyboard-response","408","2034904","0.0-12.0-0.47","fixation","","","","",""
"2741.814999957569","Stimuli/Hangul_F91.bmp","190","image-keyboard-response","409","2037646","0.0-12.0-1.47","test",".","",".","",""
"null","<div style=""color:white; font-size:60px;"">+</div>","null","html-keyboard-response","410","2038647","0.0-12.0-0.48","fixation","","","","",""
"2644.899999955669","Stimuli/Hangul_M99.bmp","188","image-keyboard-response","411","2041294","0.0-12.0-1.48","test",",","",",","",""
"null","<div style=""color:white; font-size:60px;"">+</div>","null","html-keyboard-response","412","2042296","0.0-12.0-0.49","fixation","","","","",""
"2518.14999995986","Stimuli/Hangul_M97.bmp","190","image-keyboard-response","413","2044815","0.0-12.0-1.49","test",",","",".","",""
"2206.56500000041","<p style=""color:white;"">Phase I of the experiment is complete.</p> <p style=""color:white;"">Press the space bar to proceed to Phase II of the experiment.</p> ","32","html-keyboard-response","414","2047022","0.0-13.0","","","","","",""
"20422.979999973904","<p style=""color:white;"">Now we are interested in how well you can predict patterns in the series of figures. You will be asked to predict whether the next figure in the series is more male-like or female-like. When you see the <q>Next Figure</q> prompt, press the corresponding response keys to indicate your prediction: </p><p style=""color:white;""> Male &#8594 <q>,</q> (comma)</p><p style=""color:white;""> Female &#8594 <q>.</q> (period)</p><p style=""color:white;"">The actual figure will then appear on the screen. After you see the figure, please guess the assigned gender with response keys. </p><p style=""color:white;"">As before, you will receive 2 cents for correctly classifying each figure.</p><p style=""color:white;"">Press either response keys to continue.</p>","188","html-keyboard-response","415","2069446","0.0-14.0","","","","","",""
"22519.525000010617","<p style=""color:white;"">PREDICTION BONUS</p> <p style=""color:white;"">Your prediction accuracy is the total number of correct predictions you make over the 200 trials.</p> <p style=""color:white;"">In addition to the 2 cents per correct figure classification, you have the chance to receive a bonus of 40 dollars IF your accuracy is above average relative to previous participants.</p><p style=""color:white;"">If your accuracy is below average relative to previous participants, then you will not receive the 40 dollar bonus.</p><p style=""color:white;"">Press the space bar to continue.</p>","32","html-keyboard-response","416","2091966","0.0-15.0","","","","","",""
"9735.080000013113","<p style=""color:white;"">Here are some examples.</p> <p style=""color:white;"">For each, predict whether the next figure looks more male-like or female-like. Then, when the figure appears, guess whether it looks more male-like or female-like and indicate your choice.</p> <p style=""color:white;"">Press the space bar to continue.</p>","32","html-keyboard-response","417","2101702","0.0-16.0","","","","","",""
"6246.304999978747","<p style=""color:white;""> Next Figure: Male or Female? </p>","190","html-keyboard-response","418","2109950","0.0-17.0-0.0","prediction_train","","","",".",""
"null","<div style=""color:white; font-size:60px;"">+</div>","null","html-keyboard-response","419","2110952","0.0-17.0-1.0","fixation","","","","",""
"1052.2350000101142","Stimuli/Hangul_E2.bmp","190","image-keyboard-response","420","2112005","0.0-17.0-2.0","c2_train",".","","","","."
"4095.300000044517","<p style=""color:white;""> Next Figure: Male or Female? </p>","190","html-keyboard-response","421","2116101","0.0-17.0-0.1","prediction_train","","","",".",""
"null","<div style=""color:white; font-size:60px;"">+</div>","null","html-keyboard-response","422","2117103","0.0-17.0-1.1","fixation","","","","",""
"773.5000000102445","Stimuli/Hangul_E0.bmp","188","image-keyboard-response","423","2117878","0.0-17.0-2.1","c2_train",",","","","",","
"4055.9549999888986","<p style=""color:white;""> Next Figure: Male or Female? </p>","190","html-keyboard-response","424","2121934","0.0-17.0-0.2","prediction_train","","","",".",""
"null","<div style=""color:white; font-size:60px;"">+</div>","null","html-keyboard-response","425","2122936","0.0-17.0-1.2","fixation","","","","",""
"1717.3750000074506","Stimuli/Hangul_E1.bmp","188","image-keyboard-response","426","2124654","0.0-17.0-2.2","c2_train",",","","","",","
"3166.785000008531","<p style=""color:white;"">Let us begin! Press the space bar when you are ready to start block 1 of 4.</p> ","32","html-keyboard-response","427","2127822","0.0-18.0","","","","","",""
"910.7000000076368","<p style=""color:white;""> Next Figure: Male or Female? </p>","190","html-keyboard-response","428","2130735","0.0-19.0-0.0","prediction","","","",".",""
"null","<div style=""color:white; font-size:60px;"">+</div>","null","html-keyboard-response","429","2131737","0.0-19.0-1.0","fixation","","","","",""
"893.4000000008382","Stimuli/Hangul_M8.bmp","188","image-keyboard-response","430","2132631","0.0-19.0-2.0","c2_test",",","","","",","
"3214.8399999714456","<p style=""color:white;""> Next Figure: Male or Female? </p>","190","html-keyboard-response","431","2135846","0.0-19.0-0.1","prediction","","","",".",""
"null","<div style=""color:white; font-size:60px;"">+</div>","null","html-keyboard-response","432","2136848","0.0-19.0-1.1","fixation","","","","",""
"549.9950000084937","Stimuli/Hangul_F4.bmp","190","image-keyboard-response","433","2137398","0.0-19.0-2.1","c2_test",".","","","","."
"3311.459999997169","<p style=""color:white;""> Next Figure: Male or Female? </p>","188","html-keyboard-response","434","2140711","0.0-19.0-0.2","prediction","","","",",",""
"null","<div style=""color:white; font-size:60px;"">+</div>","null","html-keyboard-response","435","2141712","0.0-19.0-1.2","fixation","","","","",""
"581.0949999722652","Stimuli/Hangul_M5.bmp","188","image-keyboard-response","436","2142294","0.0-19.0-2.2","c2_test",",","","","",","
"3359.9249999970198","<p style=""color:white;""> Next Figure: Male or Female? </p>","190","html-keyboard-response","437","2145655","0.0-19.0-0.3","prediction","","","",".",""
"null","<div style=""color:white; font-size:60px;"">+</div>","null","html-keyboard-response","438","2146656","0.0-19.0-1.3","fixation","","","","",""
"1157.2750000050291","Stimuli/Hangul_M16.bmp","188","image-keyboard-response","439","2147814","0.0-19.0-2.3","c2_test",",","","","",","
"2023.4899999923073","<p style=""color:white;""> Next Figure: Male or Female? </p>","190","html-keyboard-response","440","2149838","0.0-19.0-0.4","prediction","","","",".",""
"null","<div style=""color:white; font-size:60px;"">+</div>","null","html-keyboard-response","441","2150840","0.0-19.0-1.4","fixation","","","","",""
"869.5899999584071","Stimuli/Hangul_M10.bmp","188","image-keyboard-response","442","2151711","0.0-19.0-2.4","c2_test",",","","","",","
"4135.580000001937","<p style=""color:white;""> Next Figure: Male or Female? </p>","190","html-keyboard-response","443","2155847","0.0-19.0-0.5","prediction","","","",".",""
"null","<div style=""color:white; font-size:60px;"">+</div>","null","html-keyboard-response","444","2156848","0.0-19.0-1.5","fixation","","","","",""
"997.5550000090152","Stimuli/Hangul_M7.bmp","188","image-keyboard-response","445","2157846","0.0-19.0-2.5","c2_test",",","","","",","
"1663.585000031162","<p style=""color:white;""> Next Figure: Male or Female? </p>","190","html-keyboard-response","446","2159511","0.0-19.0-0.6","prediction","","","",".",""
"null","<div style=""color:white; font-size:60px;"">+</div>","null","html-keyboard-response","447","2160512","0.0-19.0-1.6","fixation","","","","",""
"1293.6549999867566","Stimuli/Hangul_F19.bmp","188","image-keyboard-response","448","2161806","0.0-19.0-2.6","c2_test",".","","","",","
"1399.4000000529923","<p style=""color:white;""> Next Figure: Male or Female? </p>","188","html-keyboard-response","449","2163206","0.0-19.0-0.7","prediction","","","",",",""
"null","<div style=""color:white; font-size:60px;"">+</div>","null","html-keyboard-response","450","2164208","0.0-19.0-1.7","fixation","","","","",""
"1117.6550000091083","Stimuli/Hangul_M22.bmp","188","image-keyboard-response","451","2165326","0.0-19.0-2.7","c2_test",",","","","",","
"1815.645000024233","<p style=""color:white;""> Next Figure: Male or Female? </p>","188","html-keyboard-response","452","2167143","0.0-19.0-0.8","prediction","","","",",",""
"null","<div style=""color:white; font-size:60px;"">+</div>","null","html-keyboard-response","453","2168144","0.0-19.0-1.8","fixation","","","","",""
"997.9899999452755","Stimuli/Hangul_F12.bmp","188","image-keyboard-response","454","2169142","0.0-19.0-2.8","c2_test",".","","","",","
"3175.5649999831803","<p style=""color:white;""> Next Figure: Male or Female? </p>","188","html-keyboard-response","455","2172319","0.0-19.0-0.9","prediction","","","",",",""
"null","<div style=""color:white; font-size:60px;"">+</div>","null","html-keyboard-response","456","2173320","0.0-19.0-1.9","fixation","","","","",""
"653.5750000039116","Stimuli/Hangul_F1.bmp","190","image-keyboard-response","457","2173975","0.0-19.0-2.9","c2_test",".","","","","."
"1575.2099999808706","<p style=""color:white;""> Next Figure: Male or Female? </p>","190","html-keyboard-response","458","2175550","0.0-19.0-0.10","prediction","","","",".",""
"null","<div style=""color:white; font-size:60px;"">+</div>","null","html-keyboard-response","459","2176552","0.0-19.0-1.10","fixation","","","","",""
"517.9399999906309","Stimuli/Hangul_F10.bmp","190","image-keyboard-response","460","2177070","0.0-19.0-2.10","c2_test",".","","","","."
"1751.6799999866635","<p style=""color:white;""> Next Figure: Male or Female? </p>","190","html-keyboard-response","461","2178823","0.0-19.0-0.11","prediction","","","",".",""
"null","<div style=""color:white; font-size:60px;"">+</div>","null","html-keyboard-response","462","2179824","0.0-19.0-1.11","fixation","","","","",""
"693.4000000474043","Stimuli/Hangul_M19.bmp","188","image-keyboard-response","463","2180518","0.0-19.0-2.11","c2_test",",","","","",","
"2087.515000021085","<p style=""color:white;""> Next Figure: Male or Female? </p>","190","html-keyboard-response","464","2182606","0.0-19.0-0.12","prediction","","","",".",""
"null","<div style=""color:white; font-size:60px;"">+</div>","null","html-keyboard-response","465","2183608","0.0-19.0-1.12","fixation","","","","",""
"733.5899999598041","Stimuli/Hangul_F5.bmp","188","image-keyboard-response","466","2184342","0.0-19.0-2.12","c2_test",".","","","",","
"1095.5799999646842","<p style=""color:white;""> Next Figure: Male or Female? </p>","188","html-keyboard-response","467","2185439","0.0-19.0-0.13","prediction","","","",",",""
"null","<div style=""color:white; font-size:60px;"">+</div>","null","html-keyboard-response","468","2186440","0.0-19.0-1.13","fixation","","","","",""
"757.7450000098906","Stimuli/Hangul_M21.bmp","188","image-keyboard-response","469","2187198","0.0-19.0-2.13","c2_test",",","","","",","
"2047.0450000138953","<p style=""color:white;""> Next Figure: Male or Female? </p>","188","html-keyboard-response","470","2189247","0.0-19.0-0.14","prediction","","","",",",""
"null","<div style=""color:white; font-size:60px;"">+</div>","null","html-keyboard-response","471","2190248","0.0-19.0-1.14","fixation","","","","",""
"701.7050000140443","Stimuli/Hangul_M15.bmp","188","image-keyboard-response","472","2190950","0.0-19.0-2.14","c2_test",",","","","",","
"1567.1900000306778","<p style=""color:white;""> Next Figure: Male or Female? </p>","190","html-keyboard-response","473","2192518","0.0-19.0-0.15","prediction","","","",".",""
"null","<div style=""color:white; font-size:60px;"">+</div>","null","html-keyboard-response","474","2193519","0.0-19.0-1.15","fixation","","","","",""
"789.6900000050664","Stimuli/Hangul_M20.bmp","188","image-keyboard-response","475","2194310","0.0-19.0-2.15","c2_test",",","","","",","
"1223.7699999823235","<p style=""color:white;""> Next Figure: Male or Female? </p>","188","html-keyboard-response","476","2195534","0.0-19.0-0.16","prediction","","","",",",""
"null","<div style=""color:white; font-size:60px;"">+</div>","null","html-keyboard-response","477","2196535","0.0-19.0-1.16","fixation","","","","",""
"677.8749999939464","Stimuli/Hangul_M24.bmp","188","image-keyboard-response","478","2197214","0.0-19.0-2.16","c2_test",",","","","",","
"1151.320000004489","<p style=""color:white;""> Next Figure: Male or Female? </p>","188","html-keyboard-response","479","2198366","0.0-19.0-0.17","prediction","","","",",",""
"null","<div style=""color:white; font-size:60px;"">+</div>","null","html-keyboard-response","480","2199367","0.0-19.0-1.17","fixation","","","","",""
"838.5700000217184","Stimuli/Hangul_M9.bmp","188","image-keyboard-response","481","2200206","0.0-19.0-2.17","c2_test",",","","","",","
"1095.2599999727681","<p style=""color:white;""> Next Figure: Male or Female? </p>","188","html-keyboard-response","482","2201302","0.0-19.0-0.18","prediction","","","",",",""
"null","<div style=""color:white; font-size:60px;"">+</div>","null","html-keyboard-response","483","2202303","0.0-19.0-1.18","fixation","","","","",""
"678.2500000554137","Stimuli/Hangul_M23.bmp","188","image-keyboard-response","484","2202982","0.0-19.0-2.18","c2_test",",","","","",","
"1687.3999999952503","<p style=""color:white;""> Next Figure: Male or Female? </p>","188","html-keyboard-response","485","2204670","0.0-19.0-0.19","prediction","","","",",",""
"null","<div style=""color:white; font-size:60px;"">+</div>","null","html-keyboard-response","486","2205671","0.0-19.0-1.19","fixation","","","","",""
"797.7799999644049","Stimuli/Hangul_M12.bmp","188","image-keyboard-response","487","2206470","0.0-19.0-2.19","c2_test",",","","","",","
"911.3699999870732","<p style=""color:white;""> Next Figure: Male or Female? </p>","188","html-keyboard-response","488","2207382","0.0-19.0-0.20","prediction","","","",",",""
"null","<div style=""color:white; font-size:60px;"">+</div>","null","html-keyboard-response","489","2208383","0.0-19.0-1.20","fixation","","","","",""
"790.500000002794","Stimuli/Hangul_M18.bmp","188","image-keyboard-response","490","2209174","0.0-19.0-2.20","c2_test",",","","","",","
"879.3500000028871","<p style=""color:white;""> Next Figure: Male or Female? </p>","188","html-keyboard-response","491","2210054","0.0-19.0-0.21","prediction","","","",",",""
"null","<div style=""color:white; font-size:60px;"">+</div>","null","html-keyboard-response","492","2211055","0.0-19.0-1.21","fixation","","","","",""
"1286.2500000046566","Stimuli/Hangul_M6.bmp","188","image-keyboard-response","493","2212342","0.0-19.0-2.21","c2_test",",","","","",","
"1095.069999981206","<p style=""color:white;""> Next Figure: Male or Female? </p>","188","html-keyboard-response","494","2213438","0.0-19.0-0.22","prediction","","","",",",""
"null","<div style=""color:white; font-size:60px;"">+</div>","null","html-keyboard-response","495","2214439","0.0-19.0-1.22","fixation","","","","",""
"798.2150000170805","Stimuli/Hangul_F9.bmp","188","image-keyboard-response","496","2215238","0.0-19.0-2.22","c2_test",".","","","",","
"871.1849999963306","<p style=""color:white;""> Next Figure: Male or Female? </p>","188","html-keyboard-response","497","2216110","0.0-19.0-0.23","prediction","","","",",",""
"null","<div style=""color:white; font-size:60px;"">+</div>","null","html-keyboard-response","498","2217111","0.0-19.0-1.23","fixation","","","","",""
"677.5900000357069","Stimuli/Hangul_F13.bmp","188","image-keyboard-response","499","2217790","0.0-19.0-2.23","c2_test",".","","","",","
"879.7500000218861","<p style=""color:white;""> Next Figure: Male or Female? </p>","188","html-keyboard-response","500","2218670","0.0-19.0-0.24","prediction","","","",",",""
"null","<div style=""color:white; font-size:60px;"">+</div>","null","html-keyboard-response","501","2219671","0.0-19.0-1.24","fixation","","","","",""
"870.2950000297278","Stimuli/Hangul_F20.bmp","188","image-keyboard-response","502","2220542","0.0-19.0-2.24","c2_test",".","","","",","
"687.320000026375","<p style=""color:white;""> Next Figure: Male or Female? </p>","188","html-keyboard-response","503","2221230","0.0-19.0-0.25","prediction","","","",",",""
"null","<div style=""color:white; font-size:60px;"">+</div>","null","html-keyboard-response","504","2222232","0.0-19.0-1.25","fixation","","","","",""
"710.3149999747984","Stimuli/Hangul_F23.bmp","188","image-keyboard-response","505","2222942","0.0-19.0-2.25","c2_test",".","","","",","
"646.9650000217371","<p style=""color:white;""> Next Figure: Male or Female? </p>","188","html-keyboard-response","506","2223590","0.0-19.0-0.26","prediction","","","",",",""
"null","<div style=""color:white; font-size:60px;"">+</div>","null","html-keyboard-response","507","2224592","0.0-19.0-1.26","fixation","","","","",""
"686.3049999810755","Stimuli/Hangul_F7.bmp","188","image-keyboard-response","508","2225279","0.0-19.0-2.26","c2_test",".","","","",","
"598.874999966938","<p style=""color:white;""> Next Figure: Male or Female? </p>","188","html-keyboard-response","509","2225878","0.0-19.0-0.27","prediction","","","",",",""
"null","<div style=""color:white; font-size:60px;"">+</div>","null","html-keyboard-response","510","2226879","0.0-19.0-1.27","fixation","","","","",""
"813.9649999793619","Stimuli/Hangul_F3.bmp","188","image-keyboard-response","511","2227694","0.0-19.0-2.27","c2_test",".","","","",","
"511.24999998137355","<p style=""color:white;""> Next Figure: Male or Female? </p>","188","html-keyboard-response","512","2228206","0.0-19.0-0.28","prediction","","","",",",""
"null","<div style=""color:white; font-size:60px;"">+</div>","null","html-keyboard-response","513","2229207","0.0-19.0-1.28","fixation","","","","",""
"742.8649999783374","Stimuli/Hangul_F14.bmp","190","image-keyboard-response","514","2229950","0.0-19.0-2.28","c2_test",".","","","","."
"983.3499999949709","<p style=""color:white;""> Next Figure: Male or Female? </p>","190","html-keyboard-response","515","2230934","0.0-19.0-0.29","prediction","","","",".",""
"null","<div style=""color:white; font-size:60px;"">+</div>","null","html-keyboard-response","516","2231935","0.0-19.0-1.29","fixation","","","","",""
"830.3400000440888","Stimuli/Hangul_M3.bmp","188","image-keyboard-response","517","2232766","0.0-19.0-2.29","c2_test",",","","","",","
"1215.9749999991618","<p style=""color:white;""> Next Figure: Male or Female? </p>","188","html-keyboard-response","518","2233982","0.0-19.0-0.30","prediction","","","",",",""
"null","<div style=""color:white; font-size:60px;"">+</div>","null","html-keyboard-response","519","2234984","0.0-19.0-1.30","fixation","","","","",""
"741.3900000392459","Stimuli/Hangul_F0.bmp","188","image-keyboard-response","520","2235726","0.0-19.0-2.30","c2_test",".","","","",","
"623.3399999910034","<p style=""color:white;""> Next Figure: Male or Female? </p>","188","html-keyboard-response","521","2236350","0.0-19.0-0.31","prediction","","","",",",""
"null","<div style=""color:white; font-size:60px;"">+</div>","null","html-keyboard-response","522","2237351","0.0-19.0-1.31","fixation","","","","",""
"741.9499999959953","Stimuli/Hangul_F15.bmp","188","image-keyboard-response","523","2238094","0.0-19.0-2.31","c2_test",".","","","",","
"767.2899999888614","<p style=""color:white;""> Next Figure: Male or Female? </p>","188","html-keyboard-response","524","2238862","0.0-19.0-0.32","prediction","","","",",",""
"null","<div style=""color:white; font-size:60px;"">+</div>","null","html-keyboard-response","525","2239863","0.0-19.0-1.32","fixation","","","","",""
"717.9899999755435","Stimuli/Hangul_M11.bmp","188","image-keyboard-response","526","2240582","0.0-19.0-2.32","c2_test",",","","","",","
"567.4350000335835","<p style=""color:white;""> Next Figure: Male or Female? </p>","188","html-keyboard-response","527","2241150","0.0-19.0-0.33","prediction","","","",",",""
"null","<div style=""color:white; font-size:60px;"">+</div>","null","html-keyboard-response","528","2242152","0.0-19.0-1.33","fixation","","","","",""
"701.1749999946915","Stimuli/Hangul_M14.bmp","188","image-keyboard-response","529","2242854","0.0-19.0-2.33","c2_test",",","","","",","
"855.8799999882467","<p style=""color:white;""> Next Figure: Male or Female? </p>","188","html-keyboard-response","530","2243710","0.0-19.0-0.34","prediction","","","",",",""
"null","<div style=""color:white; font-size:60px;"">+</div>","null","html-keyboard-response","531","2244711","0.0-19.0-1.34","fixation","","","","",""
"798.9599999855272","Stimuli/Hangul_F16.bmp","188","image-keyboard-response","532","2245510","0.0-19.0-2.34","c2_test",".","","","",","
"607.0949999848381","<p style=""color:white;""> Next Figure: Male or Female? </p>","188","html-keyboard-response","533","2246118","0.0-19.0-0.35","prediction","","","",",",""
"null","<div style=""color:white; font-size:60px;"">+</div>","null","html-keyboard-response","534","2247119","0.0-19.0-1.35","fixation","","","","",""
"677.8399999602698","Stimuli/Hangul_F24.bmp","188","image-keyboard-response","535","2247798","0.0-19.0-2.35","c2_test",".","","","",","
"791.0450000199489","<p style=""color:white;""> Next Figure: Male or Female? </p>","188","html-keyboard-response","536","2248590","0.0-19.0-0.36","prediction","","","",",",""
"null","<div style=""color:white; font-size:60px;"">+</div>","null","html-keyboard-response","537","2249592","0.0-19.0-1.36","fixation","","","","",""
"757.480000029318","Stimuli/Hangul_F18.bmp","190","image-keyboard-response","538","2250350","0.0-19.0-2.36","c2_test",".","","","","."
"879.7650000196882","<p style=""color:white;""> Next Figure: Male or Female? </p>","190","html-keyboard-response","539","2251230","0.0-19.0-0.37","prediction","","","",".",""
"null","<div style=""color:white; font-size:60px;"">+</div>","null","html-keyboard-response","540","2252231","0.0-19.0-1.37","fixation","","","","",""
"646.065000037197","Stimuli/Hangul_M4.bmp","188","image-keyboard-response","541","2252878","0.0-19.0-2.37","c2_test",",","","","",","
"1231.5899999812245","<p style=""color:white;""> Next Figure: Male or Female? </p>","190","html-keyboard-response","542","2254110","0.0-19.0-0.38","prediction","","","",".",""
"null","<div style=""color:white; font-size:60px;"">+</div>","null","html-keyboard-response","543","2255111","0.0-19.0-1.38","fixation","","","","",""
"558.3350000088103","Stimuli/Hangul_F21.bmp","190","image-keyboard-response","544","2255670","0.0-19.0-2.38","c2_test",".","","","","."
"1039.3700000131503","<p style=""color:white;""> Next Figure: Male or Female? </p>","190","html-keyboard-response","545","2256710","0.0-19.0-0.39","prediction","","","",".",""
"null","<div style=""color:white; font-size:60px;"">+</div>","null","html-keyboard-response","546","2257711","0.0-19.0-1.39","fixation","","","","",""
"662.140000029467","Stimuli/Hangul_M17.bmp","188","image-keyboard-response","547","2258374","0.0-19.0-2.39","c2_test",",","","","",","
"830.9700000099838","<p style=""color:white;""> Next Figure: Male or Female? </p>","188","html-keyboard-response","548","2259206","0.0-19.0-0.40","prediction","","","",",",""
"null","<div style=""color:white; font-size:60px;"">+</div>","null","html-keyboard-response","549","2260207","0.0-19.0-1.40","fixation","","","","",""
"614.1349999816157","Stimuli/Hangul_M1.bmp","188","image-keyboard-response","550","2260822","0.0-19.0-2.40","c2_test",",","","","",","
"903.1599999871105","<p style=""color:white;""> Next Figure: Male or Female? </p>","188","html-keyboard-response","551","2261726","0.0-19.0-0.41","prediction","","","",",",""
"null","<div style=""color:white; font-size:60px;"">+</div>","null","html-keyboard-response","552","2262727","0.0-19.0-1.41","fixation","","","","",""
"694.4399999920279","Stimuli/Hangul_F17.bmp","188","image-keyboard-response","553","2263422","0.0-19.0-2.41","c2_test",".","","","",","
"775.3649999503978","<p style=""color:white;""> Next Figure: Male or Female? </p>","188","html-keyboard-response","554","2264198","0.0-19.0-0.42","prediction","","","",",",""
"null","<div style=""color:white; font-size:60px;"">+</div>","null","html-keyboard-response","555","2265200","0.0-19.0-1.42","fixation","","","","",""
"645.7649999647401","Stimuli/Hangul_M0.bmp","188","image-keyboard-response","556","2265846","0.0-19.0-2.42","c2_test",",","","","",","
"711.3499999977648","<p style=""color:white;""> Next Figure: Male or Female? </p>","188","html-keyboard-response","557","2266558","0.0-19.0-0.43","prediction","","","",",",""
"null","<div style=""color:white; font-size:60px;"">+</div>","null","html-keyboard-response","558","2267560","0.0-19.0-1.43","fixation","","","","",""
"685.4900000034831","Stimuli/Hangul_F11.bmp","188","image-keyboard-response","559","2268246","0.0-19.0-2.43","c2_test",".","","","",","
"815.4949999880046","<p style=""color:white;""> Next Figure: Male or Female? </p>","188","html-keyboard-response","560","2269062","0.0-19.0-0.44","prediction","","","",",",""
"null","<div style=""color:white; font-size:60px;"">+</div>","null","html-keyboard-response","561","2270063","0.0-19.0-1.44","fixation","","","","",""
"726.5149999875575","Stimuli/Hangul_F22.bmp","188","image-keyboard-response","562","2270790","0.0-19.0-2.44","c2_test",".","","","",","
"1263.3499999647029","<p style=""color:white;""> Next Figure: Male or Female? </p>","188","html-keyboard-response","563","2272054","0.0-19.0-0.45","prediction","","","",",",""
"null","<div style=""color:white; font-size:60px;"">+</div>","null","html-keyboard-response","564","2273056","0.0-19.0-1.45","fixation","","","","",""
"685.1949999690987","Stimuli/Hangul_M2.bmp","188","image-keyboard-response","565","2273742","0.0-19.0-2.45","c2_test",",","","","",","
"839.3500000238419","<p style=""color:white;""> Next Figure: Male or Female? </p>","188","html-keyboard-response","566","2274582","0.0-19.0-0.46","prediction","","","",",",""
"null","<div style=""color:white; font-size:60px;"">+</div>","null","html-keyboard-response","567","2275584","0.0-19.0-1.46","fixation","","","","",""
"710.3200000128709","Stimuli/Hangul_F6.bmp","188","image-keyboard-response","568","2276295","0.0-19.0-2.46","c2_test",".","","","",","
"1030.9349999879487","<p style=""color:white;""> Next Figure: Male or Female? </p>","188","html-keyboard-response","569","2277326","0.0-19.0-0.47","prediction","","","",",",""
"null","<div style=""color:white; font-size:60px;"">+</div>","null","html-keyboard-response","570","2278327","0.0-19.0-1.47","fixation","","","","",""
"525.8000000030734","Stimuli/Hangul_M13.bmp","188","image-keyboard-response","571","2278854","0.0-19.0-2.47","c2_test",",","","","",","
"687.5799999688752","<p style=""color:white;""> Next Figure: Male or Female? </p>","188","html-keyboard-response","572","2279542","0.0-19.0-0.48","prediction","","","",",",""
"null","<div style=""color:white; font-size:60px;"">+</div>","null","html-keyboard-response","573","2280543","0.0-19.0-1.48","fixation","","","","",""
"582.0350000285544","Stimuli/Hangul_F8.bmp","190","image-keyboard-response","574","2281126","0.0-19.0-2.48","c2_test",".","","","","."
"1391.570000036154","<p style=""color:white;""> Next Figure: Male or Female? </p>","190","html-keyboard-response","575","2282518","0.0-19.0-0.49","prediction","","","",".",""
"null","<div style=""color:white; font-size:60px;"">+</div>","null","html-keyboard-response","576","2283519","0.0-19.0-1.49","fixation","","","","",""
"685.7899999595247","Stimuli/Hangul_F2.bmp","188","image-keyboard-response","577","2284206","0.0-19.0-2.49","c2_test",".","","","",","
"1615.590000001248","<p style=""color:white;"">Good job, block 1 complete! Please take a moment to rest.</p> <p style=""color:white;"">When you are ready to continue with block 2 of 4, press the space bar.</p> ","32","html-keyboard-response","578","2285822","0.0-20.0","","","","","",""
"1574.735000031069","<p style=""color:white;""> Next Figure: Male or Female? </p>","190","html-keyboard-response","579","2289399","0.0-21.0-0.0","prediction","","","",".",""
"null","<div style=""color:white; font-size:60px;"">+</div>","null","html-keyboard-response","580","2290400","0.0-21.0-1.0","fixation","","","","",""
"821.2749999947846","Stimuli/Hangul_F25.bmp","188","image-keyboard-response","581","2291222","0.0-21.0-2.0","c2_test",".","","","",","
"1247.4899999797344","<p style=""color:white;""> Next Figure: Male or Female? </p>","188","html-keyboard-response","582","2292470","0.0-21.0-0.1","prediction","","","",",",""
"null","<div style=""color:white; font-size:60px;"">+</div>","null","html-keyboard-response","583","2293472","0.0-21.0-1.1","fixation","","","","",""
"613.4799999999814","Stimuli/Hangul_M39.bmp","188","image-keyboard-response","584","2294086","0.0-21.0-2.1","c2_test",",","","","",","
"687.4449999886565","<p style=""color:white;""> Next Figure: Male or Female? </p>","188","html-keyboard-response","585","2294774","0.0-21.0-0.2","prediction","","","",",",""
"null","<div style=""color:white; font-size:60px;"">+</div>","null","html-keyboard-response","586","2295775","0.0-21.0-1.2","fixation","","","","",""
"590.0300000212155","Stimuli/Hangul_M49.bmp","188","image-keyboard-response","587","2296366","0.0-21.0-2.2","c2_test",",","","","",","
"535.4700000025332","<p style=""color:white;""> Next Figure: Male or Female? </p>","188","html-keyboard-response","588","2296902","0.0-21.0-0.3","prediction","","","",",",""
"null","<div style=""color:white; font-size:60px;"">+</div>","null","html-keyboard-response","589","2297904","0.0-21.0-1.3","fixation","","","","",""
"661.4749999716878","Stimuli/Hangul_F45.bmp","188","image-keyboard-response","590","2298566","0.0-21.0-2.3","c2_test",".","","","",","
"535.6099999626167","<p style=""color:white;""> Next Figure: Male or Female? </p>","188","html-keyboard-response","591","2299102","0.0-21.0-0.4","prediction","","","",",",""
"null","<div style=""color:white; font-size:60px;"">+</div>","null","html-keyboard-response","592","2300104","0.0-21.0-1.4","fixation","","","","",""
"566.2149999989197","Stimuli/Hangul_F38.bmp","188","image-keyboard-response","593","2300670","0.0-21.0-2.4","c2_test",".","","","",","
"487.10000002756715","<p style=""color:white;""> Next Figure: Male or Female? </p>","188","html-keyboard-response","594","2301158","0.0-21.0-0.5","prediction","","","",",",""
"null","<div style=""color:white; font-size:60px;"">+</div>","null","html-keyboard-response","595","2302159","0.0-21.0-1.5","fixation","","","","",""
"678.2150000217371","Stimuli/Hangul_F40.bmp","188","image-keyboard-response","596","2302838","0.0-21.0-2.5","c2_test",".","","","",","
"455.4800000041723","<p style=""color:white;""> Next Figure: Male or Female? </p>","188","html-keyboard-response","597","2303294","0.0-21.0-0.6","prediction","","","",",",""
"null","<div style=""color:white; font-size:60px;"">+</div>","null","html-keyboard-response","598","2304295","0.0-21.0-1.6","fixation","","","","",""
"678.7699999986216","Stimuli/Hangul_F35.bmp","190","image-keyboard-response","599","2304974","0.0-21.0-2.6","c2_test",".","","","","."
"743.4150000335649","<p style=""color:white;""> Next Figure: Male or Female? </p>","190","html-keyboard-response","600","2305718","0.0-21.0-0.7","prediction","","","",".",""
"null","<div style=""color:white; font-size:60px;"">+</div>","null","html-keyboard-response","601","2306719","0.0-21.0-1.7","fixation","","","","",""
"573.9900000044145","Stimuli/Hangul_M48.bmp","188","image-keyboard-response","602","2307294","0.0-21.0-2.7","c2_test",",","","","",","
"1119.524999987334","<p style=""color:white;""> Next Figure: Male or Female? </p>","190","html-keyboard-response","603","2308414","0.0-21.0-0.8","prediction","","","",".",""
"null","<div style=""color:white; font-size:60px;"">+</div>","null","html-keyboard-response","604","2309416","0.0-21.0-1.8","fixation","","","","",""
"653.554999968037","Stimuli/Hangul_M25.bmp","188","image-keyboard-response","605","2310070","0.0-21.0-2.8","c2_test",",","","","",","
"1031.5550000523217","<p style=""color:white;""> Next Figure: Male or Female? </p>","190","html-keyboard-response","606","2311102","0.0-21.0-0.9","prediction","","","",".",""
"null","<div style=""color:white; font-size:60px;"">+</div>","null","html-keyboard-response","607","2312104","0.0-21.0-1.9","fixation","","","","",""
"949.5800000149757","Stimuli/Hangul_F27.bmp","188","image-keyboard-response","608","2313054","0.0-21.0-2.9","c2_test",".","","","",","
"871.2800000212155","<p style=""color:white;""> Next Figure: Male or Female? </p>","188","html-keyboard-response","609","2313926","0.0-21.0-0.10","prediction","","","",",",""
"null","<div style=""color:white; font-size:60px;"">+</div>","null","html-keyboard-response","610","2314927","0.0-21.0-1.10","fixation","","","","",""
"606.0999999754131","Stimuli/Hangul_M43.bmp","188","image-keyboard-response","611","2315534","0.0-21.0-2.10","c2_test",",","","","",","
"711.6500000120141","<p style=""color:white;""> Next Figure: Male or Female? </p>","188","html-keyboard-response","612","2316246","0.0-21.0-0.11","prediction","","","",",",""
"null","<div style=""color:white; font-size:60px;"">+</div>","null","html-keyboard-response","613","2317248","0.0-21.0-1.11","fixation","","","","",""
"630.0300000002608","Stimuli/Hangul_M29.bmp","188","image-keyboard-response","614","2317878","0.0-21.0-2.11","c2_test",",","","","",","
"831.3999999663793","<p style=""color:white;""> Next Figure: Male or Female? </p>","188","html-keyboard-response","615","2318710","0.0-21.0-0.12","prediction","","","",",",""
"null","<div style=""color:white; font-size:60px;"">+</div>","null","html-keyboard-response","616","2319712","0.0-21.0-1.12","fixation","","","","",""
"637.5249999691732","Stimuli/Hangul_F37.bmp","190","image-keyboard-response","617","2320350","0.0-21.0-2.12","c2_test",".","","","","."
"983.7999999872409","<p style=""color:white;""> Next Figure: Male or Female? </p>","190","html-keyboard-response","618","2321335","0.0-21.0-0.13","prediction","","","",".",""
"null","<div style=""color:white; font-size:60px;"">+</div>","null","html-keyboard-response","619","2322336","0.0-21.0-1.13","fixation","","","","",""
"501.9699999829754","Stimuli/Hangul_F31.bmp","190","image-keyboard-response","620","2322838","0.0-21.0-2.13","c2_test",".","","","","."
"1031.3500000047497","<p style=""color:white;""> Next Figure: Male or Female? </p>","190","html-keyboard-response","621","2323870","0.0-21.0-0.14","prediction","","","",".",""
"null","<div style=""color:white; font-size:60px;"">+</div>","null","html-keyboard-response","622","2324872","0.0-21.0-1.14","fixation","","","","",""
"589.8199999937788","Stimuli/Hangul_M28.bmp","188","image-keyboard-response","623","2325462","0.0-21.0-2.14","c2_test",",","","","",","
"919.4999999599531","<p style=""color:white;""> Next Figure: Male or Female? </p>","188","html-keyboard-response","624","2326382","0.0-21.0-0.15","prediction","","","",",",""
"null","<div style=""color:white; font-size:60px;"">+</div>","null","html-keyboard-response","625","2327383","0.0-21.0-1.15","fixation","","","","",""
"638.4550000075251","Stimuli/Hangul_M44.bmp","188","image-keyboard-response","626","2328022","0.0-21.0-2.15","c2_test",",","","","",","
"1471.8250000150874","<p style=""color:white;""> Next Figure: Male or Female? </p>","188","html-keyboard-response","627","2329494","0.0-21.0-0.16","prediction","","","",",",""
"null","<div style=""color:white; font-size:60px;"">+</div>","null","html-keyboard-response","628","2330496","0.0-21.0-1.16","fixation","","","","",""
"516.6099999914877","Stimuli/Hangul_M32.bmp","188","image-keyboard-response","629","2331014","0.0-21.0-2.16","c2_test",",","","","",","
"544.0299999900162","<p style=""color:white;""> Next Figure: Male or Female? </p>","188","html-keyboard-response","630","2331559","0.0-21.0-0.17","prediction","","","",",",""
"null","<div style=""color:white; font-size:60px;"">+</div>","null","html-keyboard-response","631","2332560","0.0-21.0-1.17","fixation","","","","",""
"677.994999976363","Stimuli/Hangul_F30.bmp","190","image-keyboard-response","632","2333238","0.0-21.0-2.17","c2_test",".","","","","."
"663.1550000165589","<p style=""color:white;""> Next Figure: Male or Female? </p>","190","html-keyboard-response","633","2333902","0.0-21.0-0.18","prediction","","","",".",""
"null","<div style=""color:white; font-size:60px;"">+</div>","null","html-keyboard-response","634","2334903","0.0-21.0-1.18","fixation","","","","",""
"686.7649999912828","Stimuli/Hangul_F26.bmp","188","image-keyboard-response","635","2335590","0.0-21.0-2.18","c2_test",".","","","",","
"1087.4300000141375","<p style=""color:white;""> Next Figure: Male or Female? </p>","188","html-keyboard-response","636","2336678","0.0-21.0-0.19","prediction","","","",",",""
"null","<div style=""color:white; font-size:60px;"">+</div>","null","html-keyboard-response","637","2337680","0.0-21.0-1.19","fixation","","","","",""
"701.7249999917112","Stimuli/Hangul_M45.bmp","188","image-keyboard-response","638","2338382","0.0-21.0-2.19","c2_test",",","","","",","
"1751.5049999929033","<p style=""color:white;""> Next Figure: Male or Female? </p>","188","html-keyboard-response","639","2340134","0.0-21.0-0.20","prediction","","","",",",""
"null","<div style=""color:white; font-size:60px;"">+</div>","null","html-keyboard-response","640","2341136","0.0-21.0-1.20","fixation","","","","",""
"662.0450000045821","Stimuli/Hangul_M34.bmp","188","image-keyboard-response","641","2341799","0.0-21.0-2.20","c2_test",",","","","",","
"1438.7550000101328","<p style=""color:white;""> Next Figure: Male or Female? </p>","188","html-keyboard-response","642","2343238","0.0-21.0-0.21","prediction","","","",",",""
"null","<div style=""color:white; font-size:60px;"">+</div>","null","html-keyboard-response","643","2344240","0.0-21.0-1.21","fixation","","","","",""
"933.8650000281632","Stimuli/Hangul_F47.bmp","188","image-keyboard-response","644","2345174","0.0-21.0-2.21","c2_test",".","","","",","
"950.345000019297","<p style=""color:white;""> Next Figure: Male or Female? </p>","188","html-keyboard-response","645","2346126","0.0-21.0-0.22","prediction","","","",",",""
"null","<div style=""color:white; font-size:60px;"">+</div>","null","html-keyboard-response","646","2347128","0.0-21.0-1.22","fixation","","","","",""
"837.4150000163354","Stimuli/Hangul_F28.bmp","188","image-keyboard-response","647","2347966","0.0-21.0-2.22","c2_test",".","","","",","
"759.3099999940023","<p style=""color:white;""> Next Figure: Male or Female? </p>","188","html-keyboard-response","648","2348726","0.0-21.0-0.23","prediction","","","",",",""
"null","<div style=""color:white; font-size:60px;"">+</div>","null","html-keyboard-response","649","2349728","0.0-21.0-1.23","fixation","","","","",""
"830.1399999763817","Stimuli/Hangul_F43.bmp","188","image-keyboard-response","650","2350558","0.0-21.0-2.23","c2_test",".","","","",","
"863.4200000087731","<p style=""color:white;""> Next Figure: Male or Female? </p>","188","html-keyboard-response","651","2351422","0.0-21.0-0.24","prediction","","","",",",""
"null","<div style=""color:white; font-size:60px;"">+</div>","null","html-keyboard-response","652","2352424","0.0-21.0-1.24","fixation","","","","",""
"582.2700000135228","Stimuli/Hangul_F32.bmp","190","image-keyboard-response","653","2353007","0.0-21.0-2.24","c2_test",".","","","","."
"1022.8999999817461","<p style=""color:white;""> Next Figure: Male or Female? </p>","190","html-keyboard-response","654","2354030","0.0-21.0-0.25","prediction","","","",".",""
