"rt","stimulus","key_press","trial_type","trial_index","time_elapsed","internal_node_id","test_part","correct_response","C1_train","C1","A","C2"
"3458.934999998746","<p style=""color:white;"">Welcome to the experiment! Press any key to begin.</p>","32","html-keyboard-response","0","3471","0.0-0.0","","","","","",""
"16631.625000001804","<p style=""color:white;"">You will see a series of abstract figures. They are adaptations of signs in the Korean alphabet, but that is not important for this study. </p><p style=""color:white;"">Abstract figures sometimes have a more masculine or feminine shape. Here, each figure has already been assigned a gender as <q>Male</q> or <q>Female</q> by a panel of respondents in a pilot study. The respondents were not given specific instructions on how to do this, but were only told to use their intuition and to take into account the entire configuration of the stimulus. </p><p style=""color:white;"">Your task now is to guess the assigned gender of each figure. Please press the corresponding response keys to indicate your choice: </p><p style=""color:white;""> Male &#8594 <q>,</q> (comma)</p><p style=""color:white;""> Female &#8594 <q>.</q> (period)</p><p style=""color:white;"">Press either response keys to continue.</p>","188","html-keyboard-response","1","20108","0.0-1.0","","","","","",""
"1989.095000000816","<p style=""color:white;"">Your choice is correct if it matches the gender assigned by the majority of respondents in the pilot study.</p> <p style=""color:white;"">For each correct choice you will receive 2 cents. There will be 200 trials divided into 4 blocks of 50 trials. You will be able to take a break after every 50 trials.</p> <p style=""color:white;"">Press the space bar to continue.</p>","32","html-keyboard-response","2","22100","0.0-2.0","","","","","",""
"5339.8550000019895","<p style=""color:white;"">Here are some examples.</p> <p style=""color:white;"">For each, guess whether the assigned figure is male-like or female-like and indicate your choice by pressing either response keys.</p> <p style=""color:white;"">Press the space bar to continue.</p>","32","html-keyboard-response","3","27443","0.0-3.0","","","","","",""
"null","<div style=""color:white; font-size:60px;"">+</div>","null","html-keyboard-response","4","30449","0.0-4.0-0.0","fixation","","","","",""
"317.1699999984412","Stimuli/Hangul_E2.bmp","188","image-keyboard-response","5","30771","0.0-4.0-1.0","c1_train",".",",","","",""
"null","<div style=""color:white; font-size:60px;"">+</div>","null","html-keyboard-response","6","31774","0.0-4.0-0.1","fixation","","","","",""
"370.88500000027125","Stimuli/Hangul_E0.bmp","190","image-keyboard-response","7","32148","0.0-4.0-1.1","c1_train",",",".","","",""
"null","<div style=""color:white; font-size:60px;"">+</div>","null","html-keyboard-response","8","33151","0.0-4.0-0.2","fixation","","","","",""
"9.879999997792765","Stimuli/Hangul_E1.bmp","188","image-keyboard-response","9","33163","0.0-4.0-1.2","c1_train",",",",","","",""
"2260.7549999993353","<p style=""color:white;"">Let us begin! Press the space bar when you are ready to start block 1 of 4.</p> ","32","html-keyboard-response","10","35428","0.0-5.0","","","","","",""
"null","<div style=""color:white; font-size:60px;"">+</div>","null","html-keyboard-response","11","38432","0.0-6.0-0.0","fixation","","","","",""
"1606.5400000006775","Stimuli/Hangul_F8.bmp","190","image-keyboard-response","12","40043","0.0-6.0-1.0","test",".","",".","",""
"null","<div style=""color:white; font-size:60px;"">+</div>","null","html-keyboard-response","13","41048","0.0-6.0-0.1","fixation","","","","",""
"2473.2899999980873","Stimuli/Hangul_F2.bmp","190","image-keyboard-response","14","43524","0.0-6.0-1.1","test",".","",".","",""
"null","<div style=""color:white; font-size:60px;"">+</div>","null","html-keyboard-response","15","44528","0.0-6.0-0.2","fixation","","","","",""
"1735.384999999951","Stimuli/Hangul_M13.bmp","188","image-keyboard-response","16","46268","0.0-6.0-1.2","test",",","",",","",""
"null","<div style=""color:white; font-size:60px;"">+</div>","null","html-keyboard-response","17","47271","0.0-6.0-0.3","fixation","","","","",""
"2444.0099999992526","Stimuli/Hangul_F5.bmp","188","image-keyboard-response","18","49717","0.0-6.0-1.3","test",".","",",","",""
"null","<div style=""color:white; font-size:60px;"">+</div>","null","html-keyboard-response","19","50720","0.0-6.0-0.4","fixation","","","","",""
"2488.04999999993","Stimuli/Hangul_M16.bmp","190","image-keyboard-response","20","53212","0.0-6.0-1.4","test",",","",".","",""
"null","<div style=""color:white; font-size:60px;"">+</div>","null","html-keyboard-response","21","54215","0.0-6.0-0.5","fixation","","","","",""
"1425.9999999994761","Stimuli/Hangul_M17.bmp","188","image-keyboard-response","22","55643","0.0-6.0-1.5","test",",","",",","",""
"null","<div style=""color:white; font-size:60px;"">+</div>","null","html-keyboard-response","23","56645","0.0-6.0-0.6","fixation","","","","",""
"297.54999999931897","Stimuli/Hangul_M7.bmp","188","image-keyboard-response","24","56948","0.0-6.0-1.6","test",",","",",","",""
"null","<div style=""color:white; font-size:60px;"">+</div>","null","html-keyboard-response","25","57952","0.0-6.0-0.7","fixation","","","","",""
"193.55999999970663","Stimuli/Hangul_M4.bmp","188","image-keyboard-response","26","58148","0.0-6.0-1.7","test",",","",",","",""
"null","<div style=""color:white; font-size:60px;"">+</div>","null","html-keyboard-response","27","59159","0.0-6.0-0.8","fixation","","","","",""
"1745.969999999943","Stimuli/Hangul_F1.bmp","190","image-keyboard-response","28","60907","0.0-6.0-1.8","test",".","",".","",""
"null","<div style=""color:white; font-size:60px;"">+</div>","null","html-keyboard-response","29","61909","0.0-6.0-0.9","fixation","","","","",""
"1409.7600000022794","Stimuli/Hangul_F0.bmp","188","image-keyboard-response","30","63323","0.0-6.0-1.9","test",".","",",","",""
"null","<div style=""color:white; font-size:60px;"">+</div>","null","html-keyboard-response","31","64324","0.0-6.0-0.10","fixation","","","","",""
"1140.9200000016426","Stimuli/Hangul_M0.bmp","190","image-keyboard-response","32","65468","0.0-6.0-1.10","test",",","",".","",""
"null","<div style=""color:white; font-size:60px;"">+</div>","null","html-keyboard-response","33","66470","0.0-6.0-0.11","fixation","","","","",""
"1472.364999997808","Stimuli/Hangul_F12.bmp","190","image-keyboard-response","34","67947","0.0-6.0-1.11","test",".","",".","",""
"null","<div style=""color:white; font-size:60px;"">+</div>","null","html-keyboard-response","35","68950","0.0-6.0-0.12","fixation","","","","",""
"562.7349999995204","Stimuli/Hangul_M12.bmp","188","image-keyboard-response","36","69515","0.0-6.0-1.12","test",",","",",","",""
"null","<div style=""color:white; font-size:60px;"">+</div>","null","html-keyboard-response","37","70518","0.0-6.0-0.13","fixation","","","","",""
"106.87999999936437","Stimuli/Hangul_M11.bmp","190","image-keyboard-response","38","70628","0.0-6.0-1.13","test",",","",".","",""
"null","<div style=""color:white; font-size:60px;"">+</div>","null","html-keyboard-response","39","71632","0.0-6.0-0.14","fixation","","","","",""
"1786.8750000016007","Stimuli/Hangul_F20.bmp","188","image-keyboard-response","40","73420","0.0-6.0-1.14","test",".","",",","",""
"null","<div style=""color:white; font-size:60px;"">+</div>","null","html-keyboard-response","41","74423","0.0-6.0-0.15","fixation","","","","",""
"1754.480000003241","Stimuli/Hangul_F23.bmp","190","image-keyboard-response","42","76180","0.0-6.0-1.15","test",".","",".","",""
"null","<div style=""color:white; font-size:60px;"">+</div>","null","html-keyboard-response","43","77183","0.0-6.0-0.16","fixation","","","","",""
"2055.3299999992305","Stimuli/Hangul_F4.bmp","188","image-keyboard-response","44","79243","0.0-6.0-1.16","test",".","",",","",""
"null","<div style=""color:white; font-size:60px;"">+</div>","null","html-keyboard-response","45","80246","0.0-6.0-0.17","fixation","","","","",""
"1786.6749999993772","Stimuli/Hangul_M10.bmp","190","image-keyboard-response","46","82036","0.0-6.0-1.17","test",",","",".","",""
"null","<div style=""color:white; font-size:60px;"">+</div>","null","html-keyboard-response","47","83039","0.0-6.0-0.18","fixation","","","","",""
"2159.9999999998545","Stimuli/Hangul_F16.bmp","188","image-keyboard-response","48","85205","0.0-6.0-1.18","test",".","",",","",""
"null","<div style=""color:white; font-size:60px;"">+</div>","null","html-keyboard-response","49","86208","0.0-6.0-0.19","fixation","","","","",""
"1712.5749999977415","Stimuli/Hangul_M1.bmp","190","image-keyboard-response","50","87923","0.0-6.0-1.19","test",",","",".","",""
"null","<div style=""color:white; font-size:60px;"">+</div>","null","html-keyboard-response","51","88926","0.0-6.0-0.20","fixation","","","","",""
"1672.7450000034878","Stimuli/Hangul_F24.bmp","188","image-keyboard-response","52","90603","0.0-6.0-1.20","test",".","",",","",""
"null","<div style=""color:white; font-size:60px;"">+</div>","null","html-keyboard-response","53","91606","0.0-6.0-0.21","fixation","","","","",""
"2131.9299999995565","Stimuli/Hangul_M9.bmp","190","image-keyboard-response","54","93740","0.0-6.0-1.21","test",",","",".","",""
"null","<div style=""color:white; font-size:60px;"">+</div>","null","html-keyboard-response","55","94743","0.0-6.0-0.22","fixation","","","","",""
"2398.1200000016543","Stimuli/Hangul_M8.bmp","188","image-keyboard-response","56","97148","0.0-6.0-1.22","test",",","",",","",""
"null","<div style=""color:white; font-size:60px;"">+</div>","null","html-keyboard-response","57","98151","0.0-6.0-0.23","fixation","","","","",""
"2313.880000001518","Stimuli/Hangul_F14.bmp","190","image-keyboard-response","58","100467","0.0-6.0-1.23","test",".","",".","",""
"null","<div style=""color:white; font-size:60px;"">+</div>","null","html-keyboard-response","59","101470","0.0-6.0-0.24","fixation","","","","",""
"3871.6200000017125","Stimuli/Hangul_F13.bmp","188","image-keyboard-response","60","105347","0.0-6.0-1.24","test",".","",",","",""
"null","<div style=""color:white; font-size:60px;"">+</div>","null","html-keyboard-response","61","106349","0.0-6.0-0.25","fixation","","","","",""
"4682.355000000825","Stimuli/Hangul_M5.bmp","190","image-keyboard-response","62","111037","0.0-6.0-1.25","test",",","",".","",""
"null","<div style=""color:white; font-size:60px;"">+</div>","null","html-keyboard-response","63","112040","0.0-6.0-0.26","fixation","","","","",""
"2990.6599999994796","Stimuli/Hangul_M19.bmp","188","image-keyboard-response","64","115036","0.0-6.0-1.26","test",",","",",","",""
"null","<div style=""color:white; font-size:60px;"">+</div>","null","html-keyboard-response","65","116038","0.0-6.0-0.27","fixation","","","","",""
"2602.664999998524","Stimuli/Hangul_F7.bmp","190","image-keyboard-response","66","118643","0.0-6.0-1.27","test",".","",".","",""
"null","<div style=""color:white; font-size:60px;"">+</div>","null","html-keyboard-response","67","119646","0.0-6.0-0.28","fixation","","","","",""
"1876.4800000026298","Stimuli/Hangul_M20.bmp","188","image-keyboard-response","68","121524","0.0-6.0-1.28","test",",","",",","",""
"null","<div style=""color:white; font-size:60px;"">+</div>","null","html-keyboard-response","69","122531","0.0-6.0-0.29","fixation","","","","",""
"1802.7250000013737","Stimuli/Hangul_M2.bmp","190","image-keyboard-response","70","124339","0.0-6.0-1.29","test",",","",".","",""
"null","<div style=""color:white; font-size:60px;"">+</div>","null","html-keyboard-response","71","125342","0.0-6.0-0.30","fixation","","","","",""
"1827.5900000007823","Stimuli/Hangul_M24.bmp","188","image-keyboard-response","72","127171","0.0-6.0-1.30","test",",","",",","",""
"null","<div style=""color:white; font-size:60px;"">+</div>","null","html-keyboard-response","73","128174","0.0-6.0-0.31","fixation","","","","",""
"2377.0350000013423","Stimuli/Hangul_F18.bmp","190","image-keyboard-response","74","130555","0.0-6.0-1.31","test",".","",".","",""
"null","<div style=""color:white; font-size:60px;"">+</div>","null","html-keyboard-response","75","131558","0.0-6.0-0.32","fixation","","","","",""
"1987.6450000010664","Stimuli/Hangul_M18.bmp","188","image-keyboard-response","76","133548","0.0-6.0-1.32","test",",","",",","",""
"null","<div style=""color:white; font-size:60px;"">+</div>","null","html-keyboard-response","77","134553","0.0-6.0-0.33","fixation","","","","",""
"2452.470000000176","Stimuli/Hangul_F19.bmp","190","image-keyboard-response","78","137011","0.0-6.0-1.33","test",".","",".","",""
"null","<div style=""color:white; font-size:60px;"">+</div>","null","html-keyboard-response","79","138014","0.0-6.0-0.34","fixation","","","","",""
"2210.4399999989255","Stimuli/Hangul_F10.bmp","188","image-keyboard-response","80","140227","0.0-6.0-1.34","test",".","",",","",""
"null","<div style=""color:white; font-size:60px;"">+</div>","null","html-keyboard-response","81","141235","0.0-6.0-0.35","fixation","","","","",""
"1147.3499999992782","Stimuli/Hangul_F15.bmp","190","image-keyboard-response","82","142387","0.0-6.0-1.35","test",".","",".","",""
"null","<div style=""color:white; font-size:60px;"">+</div>","null","html-keyboard-response","83","143390","0.0-6.0-0.36","fixation","","","","",""
"2146.615000001475","Stimuli/Hangul_F11.bmp","188","image-keyboard-response","84","145539","0.0-6.0-1.36","test",".","",",","",""
"null","<div style=""color:white; font-size:60px;"">+</div>","null","html-keyboard-response","85","146542","0.0-6.0-0.37","fixation","","","","",""
"1727.339999997639","Stimuli/Hangul_M21.bmp","190","image-keyboard-response","86","148275","0.0-6.0-1.37","test",",","",".","",""
"null","<div style=""color:white; font-size:60px;"">+</div>","null","html-keyboard-response","87","149280","0.0-6.0-0.38","fixation","","","","",""
"1695.8149999991292","Stimuli/Hangul_M15.bmp","188","image-keyboard-response","88","150979","0.0-6.0-1.38","test",",","",",","",""
"null","<div style=""color:white; font-size:60px;"">+</div>","null","html-keyboard-response","89","151982","0.0-6.0-0.39","fixation","","","","",""
"1970.3149999986636","Stimuli/Hangul_F3.bmp","188","image-keyboard-response","90","153954","0.0-6.0-1.39","test",".","",",","",""
"null","<div style=""color:white; font-size:60px;"">+</div>","null","html-keyboard-response","91","154958","0.0-6.0-0.40","fixation","","","","",""
"1777.0449999989069","Stimuli/Hangul_F17.bmp","190","image-keyboard-response","92","156740","0.0-6.0-1.40","test",".","",".","",""
"null","<div style=""color:white; font-size:60px;"">+</div>","null","html-keyboard-response","93","157744","0.0-6.0-0.41","fixation","","","","",""
"1951.8800000005285","Stimuli/Hangul_F22.bmp","188","image-keyboard-response","94","159698","0.0-6.0-1.41","test",".","",",","",""
"null","<div style=""color:white; font-size:60px;"">+</div>","null","html-keyboard-response","95","160701","0.0-6.0-0.42","fixation","","","","",""
"2176.3150000006135","Stimuli/Hangul_M22.bmp","188","image-keyboard-response","96","162884","0.0-6.0-1.42","test",",","",",","",""
"null","<div style=""color:white; font-size:60px;"">+</div>","null","html-keyboard-response","97","163886","0.0-6.0-0.43","fixation","","","","",""
"1026.8700000015087","Stimuli/Hangul_F9.bmp","190","image-keyboard-response","98","164916","0.0-6.0-1.43","test",".","",".","",""
"null","<div style=""color:white; font-size:60px;"">+</div>","null","html-keyboard-response","99","165919","0.0-6.0-0.44","fixation","","","","",""
"1531.3549999991665","Stimuli/Hangul_F6.bmp","190","image-keyboard-response","100","167452","0.0-6.0-1.44","test",".","",".","",""
"null","<div style=""color:white; font-size:60px;"">+</div>","null","html-keyboard-response","101","168455","0.0-6.0-0.45","fixation","","","","",""
"79.15500000308384","Stimuli/Hangul_M23.bmp","188","image-keyboard-response","102","168540","0.0-6.0-1.45","test",",","",",","",""
"null","<div style=""color:white; font-size:60px;"">+</div>","null","html-keyboard-response","103","169543","0.0-6.0-0.46","fixation","","","","",""
"1138.330000001588","Stimuli/Hangul_M14.bmp","190","image-keyboard-response","104","170683","0.0-6.0-1.46","test",",","",".","",""
"null","<div style=""color:white; font-size:60px;"">+</div>","null","html-keyboard-response","105","171687","0.0-6.0-0.47","fixation","","","","",""
"1202.1700000004785","Stimuli/Hangul_M6.bmp","190","image-keyboard-response","106","172892","0.0-6.0-1.47","test",",","",".","",""
"null","<div style=""color:white; font-size:60px;"">+</div>","null","html-keyboard-response","107","173900","0.0-6.0-0.48","fixation","","","","",""
"157.2249999990163","Stimuli/Hangul_F21.bmp","188","image-keyboard-response","108","174059","0.0-6.0-1.48","test",".","",",","",""
"null","<div style=""color:white; font-size:60px;"">+</div>","null","html-keyboard-response","109","175062","0.0-6.0-0.49","fixation","","","","",""
"1416.9849999998405","Stimuli/Hangul_M3.bmp","188","image-keyboard-response","110","176483","0.0-6.0-1.49","test",",","",",","",""
"5173.694999997679","<p style=""color:white;"">Good job, block 1 complete! Please take a moment to rest.</p> <p style=""color:white;"">When you are ready to continue with block 2 of 4, press the space bar.</p> ","32","html-keyboard-response","111","181660","0.0-7.0","","","","","",""
"null","<div style=""color:white; font-size:60px;"">+</div>","null","html-keyboard-response","112","184663","0.0-8.0-0.0","fixation","","","","",""
"2102.53499999817","Stimuli/Hangul_M28.bmp","188","image-keyboard-response","113","186770","0.0-8.0-1.0","test",",","",",","",""
"null","<div style=""color:white; font-size:60px;"">+</div>","null","html-keyboard-response","114","187772","0.0-8.0-0.1","fixation","","","","",""
"1949.239999998099","Stimuli/Hangul_F28.bmp","190","image-keyboard-response","115","189723","0.0-8.0-1.1","test",".","",".","",""
"null","<div style=""color:white; font-size:60px;"">+</div>","null","html-keyboard-response","116","190725","0.0-8.0-0.2","fixation","","","","",""
"1850.0849999982165","Stimuli/Hangul_M49.bmp","188","image-keyboard-response","117","192580","0.0-8.0-1.2","test",",","",",","",""
"null","<div style=""color:white; font-size:60px;"">+</div>","null","html-keyboard-response","118","193583","0.0-8.0-0.3","fixation","","","","",""
"1776.8900000010035","Stimuli/Hangul_M33.bmp","190","image-keyboard-response","119","195362","0.0-8.0-1.3","test",",","",".","",""
"null","<div style=""color:white; font-size:60px;"">+</div>","null","html-keyboard-response","120","196364","0.0-8.0-0.4","fixation","","","","",""
"1708.1050000015239","Stimuli/Hangul_F30.bmp","188","image-keyboard-response","121","198075","0.0-8.0-1.4","test",".","",",","",""
"null","<div style=""color:white; font-size:60px;"">+</div>","null","html-keyboard-response","122","199081","0.0-8.0-0.5","fixation","","","","",""
"1285.134999998263","Stimuli/Hangul_F38.bmp","190","image-keyboard-response","123","200371","0.0-8.0-1.5","test",".","",".","",""
"null","<div style=""color:white; font-size:60px;"">+</div>","null","html-keyboard-response","124","201374","0.0-8.0-0.6","fixation","","","","",""
"1646.4500000001863","Stimuli/Hangul_M41.bmp","188","image-keyboard-response","125","203022","0.0-8.0-1.6","test",",","",",","",""
"null","<div style=""color:white; font-size:60px;"">+</div>","null","html-keyboard-response","126","204025","0.0-8.0-0.7","fixation","","","","",""
"1759.0849999978673","Stimuli/Hangul_M31.bmp","190","image-keyboard-response","127","205787","0.0-8.0-1.7","test",",","",".","",""
"null","<div style=""color:white; font-size:60px;"">+</div>","null","html-keyboard-response","128","206789","0.0-8.0-0.8","fixation","","","","",""
"1897.625000001426","Stimuli/Hangul_M26.bmp","188","image-keyboard-response","129","208690","0.0-8.0-1.8","test",",","",",","",""
"null","<div style=""color:white; font-size:60px;"">+</div>","null","html-keyboard-response","130","209693","0.0-8.0-0.9","fixation","","","","",""
"1955.3799999994226","Stimuli/Hangul_F44.bmp","188","image-keyboard-response","131","211650","0.0-8.0-1.9","test",".","",",","",""
"null","<div style=""color:white; font-size:60px;"">+</div>","null","html-keyboard-response","132","212651","0.0-8.0-0.10","fixation","","","","",""
"1956.385000001319","Stimuli/Hangul_F25.bmp","190","image-keyboard-response","133","214611","0.0-8.0-1.10","test",".","",".","",""
"null","<div style=""color:white; font-size:60px;"">+</div>","null","html-keyboard-response","134","215613","0.0-8.0-0.11","fixation","","","","",""
"2424.590000002354","Stimuli/Hangul_F45.bmp","188","image-keyboard-response","135","218042","0.0-8.0-1.11","test",".","",",","",""
"null","<div style=""color:white; font-size:60px;"">+</div>","null","html-keyboard-response","136","219044","0.0-8.0-0.12","fixation","","","","",""
"1945.6850000024133","Stimuli/Hangul_M30.bmp","190","image-keyboard-response","137","220994","0.0-8.0-1.12","test",",","",".","",""
"null","<div style=""color:white; font-size:60px;"">+</div>","null","html-keyboard-response","138","221997","0.0-8.0-0.13","fixation","","","","",""
"2099.2650000007416","Stimuli/Hangul_M29.bmp","188","image-keyboard-response","139","224099","0.0-8.0-1.13","test",",","",",","",""
"null","<div style=""color:white; font-size:60px;"">+</div>","null","html-keyboard-response","140","225102","0.0-8.0-0.14","fixation","","","","",""
"1411.3150000011956","Stimuli/Hangul_F48.bmp","190","image-keyboard-response","141","226515","0.0-8.0-1.14","test",".","",".","",""
"null","<div style=""color:white; font-size:60px;"">+</div>","null","html-keyboard-response","142","227518","0.0-8.0-0.15","fixation","","","","",""
"1306.8199999979697","Stimuli/Hangul_M47.bmp","188","image-keyboard-response","143","228827","0.0-8.0-1.15","test",",","",",","",""
"null","<div style=""color:white; font-size:60px;"">+</div>","null","html-keyboard-response","144","229830","0.0-8.0-0.16","fixation","","","","",""
"1754.994999999326","Stimuli/Hangul_M48.bmp","190","image-keyboard-response","145","231588","0.0-8.0-1.16","test",",","",".","",""
"null","<div style=""color:white; font-size:60px;"">+</div>","null","html-keyboard-response","146","232590","0.0-8.0-0.17","fixation","","","","",""
"986.6750000001048","Stimuli/Hangul_M44.bmp","188","image-keyboard-response","147","233579","0.0-8.0-1.17","test",",","",",","",""
"null","<div style=""color:white; font-size:60px;"">+</div>","null","html-keyboard-response","148","234582","0.0-8.0-0.18","fixation","","","","",""
"2067.2149999991234","Stimuli/Hangul_M45.bmp","190","image-keyboard-response","149","236652","0.0-8.0-1.18","test",",","",".","",""
"null","<div style=""color:white; font-size:60px;"">+</div>","null","html-keyboard-response","150","237654","0.0-8.0-0.19","fixation","","","","",""
"2074.6300000027986","Stimuli/Hangul_F33.bmp","190","image-keyboard-response","151","239730","0.0-8.0-1.19","test",".","",".","",""
"null","<div style=""color:white; font-size:60px;"">+</div>","null","html-keyboard-response","152","240732","0.0-8.0-0.20","fixation","","","","",""
"1960.0849999987986","Stimuli/Hangul_F41.bmp","190","image-keyboard-response","153","242699","0.0-8.0-1.20","test",".","",".","",""
"null","<div style=""color:white; font-size:60px;"">+</div>","null","html-keyboard-response","154","243702","0.0-8.0-0.21","fixation","","","","",""
"994.7399999982736","Stimuli/Hangul_F43.bmp","188","image-keyboard-response","155","244699","0.0-8.0-1.21","test",".","",",","",""
"null","<div style=""color:white; font-size:60px;"">+</div>","null","html-keyboard-response","156","245702","0.0-8.0-0.22","fixation","","","","",""
"290.78999999910593","Stimuli/Hangul_M39.bmp","190","image-keyboard-response","157","245994","0.0-8.0-1.22","test",",","",".","",""
"null","<div style=""color:white; font-size:60px;"">+</div>","null","html-keyboard-response","158","246999","0.0-8.0-0.23","fixation","","","","",""
"624.9050000005809","Stimuli/Hangul_F46.bmp","188","image-keyboard-response","159","247625","0.0-8.0-1.23","test",".","",",","",""
"null","<div style=""color:white; font-size:60px;"">+</div>","null","html-keyboard-response","160","248628","0.0-8.0-0.24","fixation","","","","",""
"2132.704999999958","Stimuli/Hangul_F37.bmp","188","image-keyboard-response","161","250763","0.0-8.0-1.24","test",".","",",","",""
"null","<div style=""color:white; font-size:60px;"">+</div>","null","html-keyboard-response","162","251766","0.0-8.0-0.25","fixation","","","","",""
"2280.7599999977974","Stimuli/Hangul_M25.bmp","190","image-keyboard-response","163","254050","0.0-8.0-1.25","test",",","",".","",""
"null","<div style=""color:white; font-size:60px;"">+</div>","null","html-keyboard-response","164","255054","0.0-8.0-0.26","fixation","","","","",""
"2719.5949999986333","Stimuli/Hangul_M35.bmp","190","image-keyboard-response","165","257778","0.0-8.0-1.26","test",",","",".","",""
"null","<div style=""color:white; font-size:60px;"">+</div>","null","html-keyboard-response","166","258780","0.0-8.0-0.27","fixation","","","","",""
"2008.8800000011688","Stimuli/Hangul_M40.bmp","188","image-keyboard-response","167","260794","0.0-8.0-1.27","test",",","",",","",""
"null","<div style=""color:white; font-size:60px;"">+</div>","null","html-keyboard-response","168","261797","0.0-8.0-0.28","fixation","","","","",""
"2090.2700000006007","Stimuli/Hangul_M46.bmp","190","image-keyboard-response","169","263890","0.0-8.0-1.28","test",",","",".","",""
"null","<div style=""color:white; font-size:60px;"">+</div>","null","html-keyboard-response","170","264893","0.0-8.0-0.29","fixation","","","","",""
"2095.3499999996275","Stimuli/Hangul_M34.bmp","188","image-keyboard-response","171","266994","0.0-8.0-1.29","test",",","",",","",""
"null","<div style=""color:white; font-size:60px;"">+</div>","null","html-keyboard-response","172","267997","0.0-8.0-0.30","fixation","","","","",""
"2331.61000000115","Stimuli/Hangul_F31.bmp","190","image-keyboard-response","173","270331","0.0-8.0-1.30","test",".","",".","",""
"null","<div style=""color:white; font-size:60px;"">+</div>","null","html-keyboard-response","174","271333","0.0-8.0-0.31","fixation","","","","",""
"1985.7800000027055","Stimuli/Hangul_F40.bmp","188","image-keyboard-response","175","273321","0.0-8.0-1.31","test",".","",",","",""
"null","<div style=""color:white; font-size:60px;"">+</div>","null","html-keyboard-response","176","274324","0.0-8.0-0.32","fixation","","","","",""
"1915.8400000014808","Stimuli/Hangul_F36.bmp","190","image-keyboard-response","177","276242","0.0-8.0-1.32","test",".","",".","",""
"null","<div style=""color:white; font-size:60px;"">+</div>","null","html-keyboard-response","178","277250","0.0-8.0-0.33","fixation","","","","",""
"1632.1800000005169","Stimuli/Hangul_M36.bmp","188","image-keyboard-response","179","278890","0.0-8.0-1.33","test",",","",",","",""
"null","<div style=""color:white; font-size:60px;"">+</div>","null","html-keyboard-response","180","279893","0.0-8.0-0.34","fixation","","","","",""
"1465.9949999986566","Stimuli/Hangul_F42.bmp","188","image-keyboard-response","181","281361","0.0-8.0-1.34","test",".","",",","",""
"null","<div style=""color:white; font-size:60px;"">+</div>","null","html-keyboard-response","182","282364","0.0-8.0-0.35","fixation","","","","",""
"2131.164999998873","Stimuli/Hangul_F27.bmp","190","image-keyboard-response","183","284498","0.0-8.0-1.35","test",".","",".","",""
"null","<div style=""color:white; font-size:60px;"">+</div>","null","html-keyboard-response","184","285501","0.0-8.0-0.36","fixation","","","","",""
"1568.4999999975553","Stimuli/Hangul_F29.bmp","188","image-keyboard-response","185","287074","0.0-8.0-1.36","test",".","",",","",""
"null","<div style=""color:white; font-size:60px;"">+</div>","null","html-keyboard-response","186","288077","0.0-8.0-0.37","fixation","","","","",""
"1779.1699999980046","Stimuli/Hangul_F32.bmp","188","image-keyboard-response","187","289859","0.0-8.0-1.37","test",".","",",","",""
"null","<div style=""color:white; font-size:60px;"">+</div>","null","html-keyboard-response","188","290861","0.0-8.0-0.38","fixation","","","","",""
"1841.1149999992922","Stimuli/Hangul_M38.bmp","190","image-keyboard-response","189","292707","0.0-8.0-1.38","test",",","",".","",""
"null","<div style=""color:white; font-size:60px;"">+</div>","null","html-keyboard-response","190","293710","0.0-8.0-0.39","fixation","","","","",""
"601.6250000029686","Stimuli/Hangul_F47.bmp","188","image-keyboard-response","191","294314","0.0-8.0-1.39","test",".","",",","",""
"null","<div style=""color:white; font-size:60px;"">+</div>","null","html-keyboard-response","192","295317","0.0-8.0-0.40","fixation","","","","",""
"1075.8249999998952","Stimuli/Hangul_M27.bmp","188","image-keyboard-response","193","296394","0.0-8.0-1.40","test",",","",",","",""
"null","<div style=""color:white; font-size:60px;"">+</div>","null","html-keyboard-response","194","297397","0.0-8.0-0.41","fixation","","","","",""
"571.5700000000652","Stimuli/Hangul_F26.bmp","188","image-keyboard-response","195","297969","0.0-8.0-1.41","test",".","",",","",""
"null","<div style=""color:white; font-size:60px;"">+</div>","null","html-keyboard-response","196","298972","0.0-8.0-0.42","fixation","","","","",""
"1948.4150000025984","Stimuli/Hangul_F34.bmp","188","image-keyboard-response","197","300923","0.0-8.0-1.42","test",".","",",","",""
"null","<div style=""color:white; font-size:60px;"">+</div>","null","html-keyboard-response","198","301928","0.0-8.0-0.43","fixation","","","","",""
"1168.5949999991572","Stimuli/Hangul_F49.bmp","190","image-keyboard-response","199","303099","0.0-8.0-1.43","test",".","",".","",""
"null","<div style=""color:white; font-size:60px;"">+</div>","null","html-keyboard-response","200","304103","0.0-8.0-0.44","fixation","","","","",""
"705.359999999986","Stimuli/Hangul_F39.bmp","188","image-keyboard-response","201","304812","0.0-8.0-1.44","test",".","",",","",""
"null","<div style=""color:white; font-size:60px;"">+</div>","null","html-keyboard-response","202","305815","0.0-8.0-0.45","fixation","","","","",""
"753.0100000003586","Stimuli/Hangul_M37.bmp","188","image-keyboard-response","203","306570","0.0-8.0-1.45","test",",","",",","",""
"null","<div style=""color:white; font-size:60px;"">+</div>","null","html-keyboard-response","204","307573","0.0-8.0-0.46","fixation","","","","",""
"1682.714999999036","Stimuli/Hangul_M32.bmp","188","image-keyboard-response","205","309258","0.0-8.0-1.46","test",",","",",","",""
"null","<div style=""color:white; font-size:60px;"">+</div>","null","html-keyboard-response","206","310261","0.0-8.0-0.47","fixation","","","","",""
"1177.7249999977648","Stimuli/Hangul_M43.bmp","188","image-keyboard-response","207","311440","0.0-8.0-1.47","test",",","",",","",""
"null","<div style=""color:white; font-size:60px;"">+</div>","null","html-keyboard-response","208","312442","0.0-8.0-0.48","fixation","","","","",""
"1419.819999999192","Stimuli/Hangul_F35.bmp","188","image-keyboard-response","209","313865","0.0-8.0-1.48","test",".","",",","",""
"null","<div style=""color:white; font-size:60px;"">+</div>","null","html-keyboard-response","210","314867","0.0-8.0-0.49","fixation","","","","",""
"584.8899999982677","Stimuli/Hangul_M42.bmp","190","image-keyboard-response","211","315456","0.0-8.0-1.49","test",",","",".","",""
"1910.90500000061","<p style=""color:white;"">Half way there! Please take a moment to rest.</p> <p style=""color:white;"">When you are ready to continue with block 3 of 4, press the space bar.</p> ","32","html-keyboard-response","212","317369","0.0-9.0","","","","","",""
"null","<div style=""color:white; font-size:60px;"">+</div>","null","html-keyboard-response","213","320372","0.0-10.0-0.0","fixation","","","","",""
"2498.2299999974202","Stimuli/Hangul_F64.bmp","188","image-keyboard-response","214","322874","0.0-10.0-1.0","test",".","",",","",""
"null","<div style=""color:white; font-size:60px;"">+</div>","null","html-keyboard-response","215","323877","0.0-10.0-0.1","fixation","","","","",""
"1960.6350000030943","Stimuli/Hangul_M69.bmp","190","image-keyboard-response","216","325842","0.0-10.0-1.1","test",",","",".","",""
"null","<div style=""color:white; font-size:60px;"">+</div>","null","html-keyboard-response","217","326845","0.0-10.0-0.2","fixation","","","","",""
"896.1600000002072","Stimuli/Hangul_F54.bmp","188","image-keyboard-response","218","327745","0.0-10.0-1.2","test",".","",",","",""
"null","<div style=""color:white; font-size:60px;"">+</div>","null","html-keyboard-response","219","328760","0.0-10.0-0.3","fixation","","","","",""
"1226.9100000011967","Stimuli/Hangul_M68.bmp","188","image-keyboard-response","220","329992","0.0-10.0-1.3","test",",","",",","",""
"null","<div style=""color:white; font-size:60px;"">+</div>","null","html-keyboard-response","221","330994","0.0-10.0-0.4","fixation","","","","",""
"988.0250000023516","Stimuli/Hangul_F55.bmp","190","image-keyboard-response","222","331985","0.0-10.0-1.4","test",".","",".","",""
"null","<div style=""color:white; font-size:60px;"">+</div>","null","html-keyboard-response","223","332988","0.0-10.0-0.5","fixation","","","","",""
"819.9049999966519","Stimuli/Hangul_M70.bmp","188","image-keyboard-response","224","333810","0.0-10.0-1.5","test",",","",",","",""
"null","<div style=""color:white; font-size:60px;"">+</div>","null","html-keyboard-response","225","334813","0.0-10.0-0.6","fixation","","","","",""
"1498.3549999997485","Stimuli/Hangul_M73.bmp","188","image-keyboard-response","226","336314","0.0-10.0-1.6","test",",","",",","",""
"null","<div style=""color:white; font-size:60px;"">+</div>","null","html-keyboard-response","227","337318","0.0-10.0-0.7","fixation","","","","",""
"223.3399999968242","Stimuli/Hangul_M72.bmp","188","image-keyboard-response","228","337545","0.0-10.0-1.7","test",",","",",","",""
"null","<div style=""color:white; font-size:60px;"">+</div>","null","html-keyboard-response","229","338548","0.0-10.0-0.8","fixation","","","","",""
"259.3699999997625","Stimuli/Hangul_F50.bmp","190","image-keyboard-response","230","338811","0.0-10.0-1.8","test",".","",".","",""
"null","<div style=""color:white; font-size:60px;"">+</div>","null","html-keyboard-response","231","339814","0.0-10.0-0.9","fixation","","","","",""
"392.6500000015949","Stimuli/Hangul_M61.bmp","188","image-keyboard-response","232","340209","0.0-10.0-1.9","test",",","",",","",""
"null","<div style=""color:white; font-size:60px;"">+</div>","null","html-keyboard-response","233","341212","0.0-10.0-0.10","fixation","","","","",""
"337.20499999978347","Stimuli/Hangul_F63.bmp","188","image-keyboard-response","234","341553","0.0-10.0-1.10","test",".","",",","",""
"null","<div style=""color:white; font-size:60px;"">+</div>","null","html-keyboard-response","235","342559","0.0-10.0-0.11","fixation","","","","",""
"1512.3900000035064","Stimuli/Hangul_M52.bmp","190","image-keyboard-response","236","344074","0.0-10.0-1.11","test",",","",".","",""
"null","<div style=""color:white; font-size:60px;"">+</div>","null","html-keyboard-response","237","345077","0.0-10.0-0.12","fixation","","","","",""
"39.87000000051921","Stimuli/Hangul_F69.bmp","188","image-keyboard-response","238","345122","0.0-10.0-1.12","test",".","",",","",""
"null","<div style=""color:white; font-size:60px;"">+</div>","null","html-keyboard-response","239","346124","0.0-10.0-0.13","fixation","","","","",""
"563.9700000028824","Stimuli/Hangul_F59.bmp","188","image-keyboard-response","240","346691","0.0-10.0-1.13","test",".","",",","",""
"null","<div style=""color:white; font-size:60px;"">+</div>","null","html-keyboard-response","241","347693","0.0-10.0-0.14","fixation","","","","",""
"762.0200000018813","Stimuli/Hangul_F71.bmp","188","image-keyboard-response","242","348458","0.0-10.0-1.14","test",".","",",","",""
"null","<div style=""color:white; font-size:60px;"">+</div>","null","html-keyboard-response","243","349460","0.0-10.0-0.15","fixation","","","","",""
"795.0700000001816","Stimuli/Hangul_M60.bmp","188","image-keyboard-response","244","350258","0.0-10.0-1.15","test",",","",",","",""
"null","<div style=""color:white; font-size:60px;"">+</div>","null","html-keyboard-response","245","351260","0.0-10.0-0.16","fixation","","","","",""
"344.745000002149","Stimuli/Hangul_F51.bmp","190","image-keyboard-response","246","351610","0.0-10.0-1.16","test",".","",".","",""
"null","<div style=""color:white; font-size:60px;"">+</div>","null","html-keyboard-response","247","352613","0.0-10.0-0.17","fixation","","","","",""
"610.465000001539","Stimuli/Hangul_M53.bmp","188","image-keyboard-response","248","353227","0.0-10.0-1.17","test",",","",",","",""
"null","<div style=""color:white; font-size:60px;"">+</div>","null","html-keyboard-response","249","354231","0.0-10.0-0.18","fixation","","","","",""
"527.7299999979441","Stimuli/Hangul_M54.bmp","190","image-keyboard-response","250","354761","0.0-10.0-1.18","test",",","",".","",""
"null","<div style=""color:white; font-size:60px;"">+</div>","null","html-keyboard-response","251","355764","0.0-10.0-0.19","fixation","","","","",""
"522.3350000014761","Stimuli/Hangul_F68.bmp","190","image-keyboard-response","252","356290","0.0-10.0-1.19","test",".","",".","",""
"null","<div style=""color:white; font-size:60px;"">+</div>","null","html-keyboard-response","253","357292","0.0-10.0-0.20","fixation","","","","",""
"212.25500000221655","Stimuli/Hangul_M55.bmp","190","image-keyboard-response","254","357506","0.0-10.0-1.20","test",",","",".","",""
"null","<div style=""color:white; font-size:60px;"">+</div>","null","html-keyboard-response","255","358514","0.0-10.0-0.21","fixation","","","","",""
"181.44000000029337","Stimuli/Hangul_F56.bmp","190","image-keyboard-response","256","358698","0.0-10.0-1.21","test",".","",".","",""
"null","<div style=""color:white; font-size:60px;"">+</div>","null","html-keyboard-response","257","359699","0.0-10.0-0.22","fixation","","","","",""
"156.16500000027008","Stimuli/Hangul_M57.bmp","188","image-keyboard-response","258","359856","0.0-10.0-1.22","test",",","",",","",""
"null","<div style=""color:white; font-size:60px;"">+</div>","null","html-keyboard-response","259","360858","0.0-10.0-0.23","fixation","","","","",""
"150.20999999972992","Stimuli/Hangul_F66.bmp","188","image-keyboard-response","260","361009","0.0-10.0-1.23","test",".","",",","",""
"null","<div style=""color:white; font-size:60px;"">+</div>","null","html-keyboard-response","261","362012","0.0-10.0-0.24","fixation","","","","",""
"2306.915000001027","Stimuli/Hangul_F67.bmp","188","image-keyboard-response","262","364322","0.0-10.0-1.24","test",".","",",","",""
"null","<div style=""color:white; font-size:60px;"">+</div>","null","html-keyboard-response","263","365325","0.0-10.0-0.25","fixation","","","","",""
"2586.9800000000396","Stimuli/Hangul_F62.bmp","188","image-keyboard-response","264","367914","0.0-10.0-1.25","test",".","",",","",""
"null","<div style=""color:white; font-size:60px;"">+</div>","null","html-keyboard-response","265","368917","0.0-10.0-0.26","fixation","","","","",""
"1807.5400000016089","Stimuli/Hangul_F70.bmp","188","image-keyboard-response","266","370729","0.0-10.0-1.26","test",".","",",","",""
"null","<div style=""color:white; font-size:60px;"">+</div>","null","html-keyboard-response","267","371734","0.0-10.0-0.27","fixation","","","","",""
"1951.3450000013108","Stimuli/Hangul_M64.bmp","188","image-keyboard-response","268","373688","0.0-10.0-1.27","test",",","",",","",""
"null","<div style=""color:white; font-size:60px;"">+</div>","null","html-keyboard-response","269","374692","0.0-10.0-0.28","fixation","","","","",""
"1866.7649999988498","Stimuli/Hangul_M67.bmp","188","image-keyboard-response","270","376561","0.0-10.0-1.28","test",",","",",","",""
"null","<div style=""color:white; font-size:60px;"">+</div>","null","html-keyboard-response","271","377563","0.0-10.0-0.29","fixation","","","","",""
"1793.1549999993294","Stimuli/Hangul_F74.bmp","188","image-keyboard-response","272","379360","0.0-10.0-1.29","test",".","",",","",""
"null","<div style=""color:white; font-size:60px;"">+</div>","null","html-keyboard-response","273","380362","0.0-10.0-0.30","fixation","","","","",""
"1707.4399999983143","Stimuli/Hangul_M66.bmp","188","image-keyboard-response","274","382073","0.0-10.0-1.30","test",",","",",","",""
"null","<div style=""color:white; font-size:60px;"">+</div>","null","html-keyboard-response","275","383078","0.0-10.0-0.31","fixation","","","","",""
"1831.3600000001024","Stimuli/Hangul_F53.bmp","188","image-keyboard-response","276","384913","0.0-10.0-1.31","test",".","",",","",""
"null","<div style=""color:white; font-size:60px;"">+</div>","null","html-keyboard-response","277","385916","0.0-10.0-0.32","fixation","","","","",""
"1778.4400000019232","Stimuli/Hangul_M51.bmp","188","image-keyboard-response","278","387697","0.0-10.0-1.32","test",",","",",","",""
"null","<div style=""color:white; font-size:60px;"">+</div>","null","html-keyboard-response","279","388700","0.0-10.0-0.33","fixation","","","","",""
"1955.32000000088","Stimuli/Hangul_F52.bmp","188","image-keyboard-response","280","390658","0.0-10.0-1.33","test",".","",",","",""
"null","<div style=""color:white; font-size:60px;"">+</div>","null","html-keyboard-response","281","391660","0.0-10.0-0.34","fixation","","","","",""
"1791.4600000004284","Stimuli/Hangul_M62.bmp","188","image-keyboard-response","282","393457","0.0-10.0-1.34","test",",","",",","",""
"null","<div style=""color:white; font-size:60px;"">+</div>","null","html-keyboard-response","283","394459","0.0-10.0-0.35","fixation","","","","",""
"1867.1599999979371","Stimuli/Hangul_F73.bmp","188","image-keyboard-response","284","396329","0.0-10.0-1.35","test",".","",",","",""
"null","<div style=""color:white; font-size:60px;"">+</div>","null","html-keyboard-response","285","397331","0.0-10.0-0.36","fixation","","","","",""
"1706.5500000026077","Stimuli/Hangul_M56.bmp","190","image-keyboard-response","286","399040","0.0-10.0-1.36","test",",","",".","",""
"null","<div style=""color:white; font-size:60px;"">+</div>","null","html-keyboard-response","287","400042","0.0-10.0-0.37","fixation","","","","",""
"1708.0050000004703","Stimuli/Hangul_M71.bmp","190","image-keyboard-response","288","401753","0.0-10.0-1.37","test",",","",".","",""
"null","<div style=""color:white; font-size:60px;"">+</div>","null","html-keyboard-response","289","402758","0.0-10.0-0.38","fixation","","","","",""
"799.9950000012177","Stimuli/Hangul_F61.bmp","188","image-keyboard-response","290","403561","0.0-10.0-1.38","test",".","",",","",""
"null","<div style=""color:white; font-size:60px;"">+</div>","null","html-keyboard-response","291","404564","0.0-10.0-0.39","fixation","","","","",""
"499.3700000013341","Stimuli/Hangul_F72.bmp","190","image-keyboard-response","292","405065","0.0-10.0-1.39","test",".","",".","",""
"null","<div style=""color:white; font-size:60px;"">+</div>","null","html-keyboard-response","293","406068","0.0-10.0-0.40","fixation","","","","",""
"1186.7500000007567","Stimuli/Hangul_M65.bmp","188","image-keyboard-response","294","407256","0.0-10.0-1.40","test",",","",",","",""
"null","<div style=""color:white; font-size:60px;"">+</div>","null","html-keyboard-response","295","408258","0.0-10.0-0.41","fixation","","","","",""
"398.1900000034948","Stimuli/Hangul_F60.bmp","188","image-keyboard-response","296","408658","0.0-10.0-1.41","test",".","",",","",""
"null","<div style=""color:white; font-size:60px;"">+</div>","null","html-keyboard-response","297","409662","0.0-10.0-0.42","fixation","","","","",""
"2113.979999998235","Stimuli/Hangul_M74.bmp","190","image-keyboard-response","298","411778","0.0-10.0-1.42","test",",","",".","",""
"null","<div style=""color:white; font-size:60px;"">+</div>","null","html-keyboard-response","299","412781","0.0-10.0-0.43","fixation","","","","",""
"1695.175000000745","Stimuli/Hangul_F65.bmp","188","image-keyboard-response","300","414481","0.0-10.0-1.43","test",".","",",","",""
"null","<div style=""color:white; font-size:60px;"">+</div>","null","html-keyboard-response","301","415484","0.0-10.0-0.44","fixation","","","","",""
"994.8399999993853","Stimuli/Hangul_F58.bmp","190","image-keyboard-response","302","416481","0.0-10.0-1.44","test",".","",".","",""
"null","<div style=""color:white; font-size:60px;"">+</div>","null","html-keyboard-response","303","417484","0.0-10.0-0.45","fixation","","","","",""
"2098.0100000015227","Stimuli/Hangul_M63.bmp","188","image-keyboard-response","304","419584","0.0-10.0-1.45","test",",","",",","",""
"null","<div style=""color:white; font-size:60px;"">+</div>","null","html-keyboard-response","305","420586","0.0-10.0-0.46","fixation","","","","",""
"2125.45499999763","Stimuli/Hangul_M50.bmp","190","image-keyboard-response","306","422714","0.0-10.0-1.46","test",",","",".","",""
"null","<div style=""color:white; font-size:60px;"">+</div>","null","html-keyboard-response","307","423717","0.0-10.0-0.47","fixation","","","","",""
"12887.330000001355","Stimuli/Hangul_M58.bmp","190","image-keyboard-response","308","436609","0.0-10.0-1.47","test",",","",".","",""
"null","<div style=""color:white; font-size:60px;"">+</div>","null","html-keyboard-response","309","437612","0.0-10.0-0.48","fixation","","","","",""
"2083.1949999992503","Stimuli/Hangul_F57.bmp","188","image-keyboard-response","310","439696","0.0-10.0-1.48","test",".","",",","",""
"null","<div style=""color:white; font-size:60px;"">+</div>","null","html-keyboard-response","311","440699","0.0-10.0-0.49","fixation","","","","",""
"2122.750000002212","Stimuli/Hangul_M59.bmp","188","image-keyboard-response","312","442826","0.0-10.0-1.49","test",",","",",","",""
"1313.9550000014715","<p style=""color:white;"">One more block to go! Please take a moment to rest.</p> <p style=""color:white;"">When you are ready to continue with block 4 of 4, press the space bar.</p> ","32","html-keyboard-response","313","444145","0.0-11.0","","","","","",""
"null","<div style=""color:white; font-size:60px;"">+</div>","null","html-keyboard-response","314","447148","0.0-12.0-0.0","fixation","","","","",""
"2239.4700000004377","Stimuli/Hangul_M83.bmp","188","image-keyboard-response","315","449391","0.0-12.0-1.0","test",",","",",","",""
"null","<div style=""color:white; font-size:60px;"">+</div>","null","html-keyboard-response","316","450392","0.0-12.0-0.1","fixation","","","","",""
"1965.4950000004028","Stimuli/Hangul_F93.bmp","188","image-keyboard-response","317","452360","0.0-12.0-1.1","test",".","",",","",""
"null","<div style=""color:white; font-size:60px;"">+</div>","null","html-keyboard-response","318","453363","0.0-12.0-0.2","fixation","","","","",""
"1107.8850000012317","Stimuli/Hangul_M97.bmp","188","image-keyboard-response","319","454473","0.0-12.0-1.2","test",",","",",","",""
"null","<div style=""color:white; font-size:60px;"">+</div>","null","html-keyboard-response","320","455476","0.0-12.0-0.3","fixation","","","","",""
"754.1149999996996","Stimuli/Hangul_M90.bmp","188","image-keyboard-response","321","456232","0.0-12.0-1.3","test",",","",",","",""
"null","<div style=""color:white; font-size:60px;"">+</div>","null","html-keyboard-response","322","457235","0.0-12.0-0.4","fixation","","","","",""
"2146.310000000114","Stimuli/Hangul_M79.bmp","188","image-keyboard-response","323","459383","0.0-12.0-1.4","test",",","",",","",""
"null","<div style=""color:white; font-size:60px;"">+</div>","null","html-keyboard-response","324","460386","0.0-12.0-0.5","fixation","","","","",""
"1825.730000000447","Stimuli/Hangul_F97.bmp","188","image-keyboard-response","325","462216","0.0-12.0-1.5","test",".","",",","",""
"null","<div style=""color:white; font-size:60px;"">+</div>","null","html-keyboard-response","326","463222","0.0-12.0-0.6","fixation","","","","",""
"2263.215000002703","Stimuli/Hangul_F85.bmp","188","image-keyboard-response","327","465490","0.0-12.0-1.6","test",".","",",","",""
"null","<div style=""color:white; font-size:60px;"">+</div>","null","html-keyboard-response","328","466494","0.0-12.0-0.7","fixation","","","","",""
"2128.9399999986636","Stimuli/Hangul_M89.bmp","188","image-keyboard-response","329","468626","0.0-12.0-1.7","test",",","",",","",""
"null","<div style=""color:white; font-size:60px;"">+</div>","null","html-keyboard-response","330","469628","0.0-12.0-0.8","fixation","","","","",""
"2042.4249999996973","Stimuli/Hangul_M78.bmp","188","image-keyboard-response","331","471672","0.0-12.0-1.8","test",",","",",","",""
"null","<div style=""color:white; font-size:60px;"">+</div>","null","html-keyboard-response","332","472674","0.0-12.0-0.9","fixation","","","","",""
"1644.1949999970966","Stimuli/Hangul_M81.bmp","188","image-keyboard-response","333","474337","0.0-12.0-1.9","test",",","",",","",""
"null","<div style=""color:white; font-size:60px;"">+</div>","null","html-keyboard-response","334","475340","0.0-12.0-0.10","fixation","","","","",""
"1995.1000000000931","Stimuli/Hangul_F94.bmp","188","image-keyboard-response","335","477336","0.0-12.0-1.10","test",".","",",","",""
"null","<div style=""color:white; font-size:60px;"">+</div>","null","html-keyboard-response","336","478338","0.0-12.0-0.11","fixation","","","","",""
"1051.8600000032457","Stimuli/Hangul_F99.bmp","188","image-keyboard-response","337","479392","0.0-12.0-1.11","test",".","",",","",""
"null","<div style=""color:white; font-size:60px;"">+</div>","null","html-keyboard-response","338","480394","0.0-12.0-0.12","fixation","","","","",""
"2571.3099999993574","Stimuli/Hangul_F82.bmp","188","image-keyboard-response","339","482969","0.0-12.0-1.12","test",".","",",","",""
"null","<div style=""color:white; font-size:60px;"">+</div>","null","html-keyboard-response","340","483972","0.0-12.0-0.13","fixation","","","","",""
"2287.5249999997322","Stimuli/Hangul_M80.bmp","188","image-keyboard-response","341","486265","0.0-12.0-1.13","test",",","",",","",""
"null","<div style=""color:white; font-size:60px;"">+</div>","null","html-keyboard-response","342","487267","0.0-12.0-0.14","fixation","","","","",""
"1916.1049999966053","Stimuli/Hangul_M75.bmp","190","image-keyboard-response","343","489186","0.0-12.0-1.14","test",",","",".","",""
"null","<div style=""color:white; font-size:60px;"">+</div>","null","html-keyboard-response","344","490189","0.0-12.0-0.15","fixation","","","","",""
"1849.2149999983376","Stimuli/Hangul_M88.bmp","188","image-keyboard-response","345","492041","0.0-12.0-1.15","test",",","",",","",""
"null","<div style=""color:white; font-size:60px;"">+</div>","null","html-keyboard-response","346","493044","0.0-12.0-0.16","fixation","","","","",""
"2066.7050000011222","Stimuli/Hangul_F75.bmp","190","image-keyboard-response","347","495113","0.0-12.0-1.16","test",".","",".","",""
"null","<div style=""color:white; font-size:60px;"">+</div>","null","html-keyboard-response","348","496116","0.0-12.0-0.17","fixation","","","","",""
"1783.8699999992969","Stimuli/Hangul_F86.bmp","188","image-keyboard-response","349","497905","0.0-12.0-1.17","test",".","",",","",""
"null","<div style=""color:white; font-size:60px;"">+</div>","null","html-keyboard-response","350","498907","0.0-12.0-0.18","fixation","","","","",""
"1923.9349999988917","Stimuli/Hangul_F76.bmp","188","image-keyboard-response","351","500834","0.0-12.0-1.18","test",".","",",","",""
"null","<div style=""color:white; font-size:60px;"">+</div>","null","html-keyboard-response","352","501836","0.0-12.0-0.19","fixation","","","","",""
"2135.6550000018324","Stimuli/Hangul_F79.bmp","188","image-keyboard-response","353","503977","0.0-12.0-1.19","test",".","",",","",""
"null","<div style=""color:white; font-size:60px;"">+</div>","null","html-keyboard-response","354","504979","0.0-12.0-0.20","fixation","","","","",""
"1858.8149999995949","Stimuli/Hangul_M98.bmp","188","image-keyboard-response","355","506841","0.0-12.0-1.20","test",",","",",","",""
"null","<div style=""color:white; font-size:60px;"">+</div>","null","html-keyboard-response","356","507843","0.0-12.0-0.21","fixation","","","","",""
"1840.4599999994389","Stimuli/Hangul_M82.bmp","188","image-keyboard-response","357","509688","0.0-12.0-1.21","test",",","",",","",""
"null","<div style=""color:white; font-size:60px;"">+</div>","null","html-keyboard-response","358","510691","0.0-12.0-0.22","fixation","","","","",""
"1843.2900000007357","Stimuli/Hangul_F81.bmp","188","image-keyboard-response","359","512537","0.0-12.0-1.22","test",".","",",","",""
"null","<div style=""color:white; font-size:60px;"">+</div>","null","html-keyboard-response","360","513541","0.0-12.0-0.23","fixation","","","","",""
"1983.0650000004098","Stimuli/Hangul_F98.bmp","188","image-keyboard-response","361","515528","0.0-12.0-1.23","test",".","",",","",""
"null","<div style=""color:white; font-size:60px;"">+</div>","null","html-keyboard-response","362","516532","0.0-12.0-0.24","fixation","","","","",""
"2594.085000000545","Stimuli/Hangul_F89.bmp","188","image-keyboard-response","363","519128","0.0-12.0-1.24","test",".","",",","",""
"null","<div style=""color:white; font-size:60px;"">+</div>","null","html-keyboard-response","364","520131","0.0-12.0-0.25","fixation","","","","",""
"2465.0849999998463","Stimuli/Hangul_M86.bmp","188","image-keyboard-response","365","522601","0.0-12.0-1.25","test",",","",",","",""
"null","<div style=""color:white; font-size:60px;"">+</div>","null","html-keyboard-response","366","523604","0.0-12.0-0.26","fixation","","","","",""
"1802.1349999981467","Stimuli/Hangul_M96.bmp","188","image-keyboard-response","367","525408","0.0-12.0-1.26","test",",","",",","",""
"null","<div style=""color:white; font-size:60px;"">+</div>","null","html-keyboard-response","368","526411","0.0-12.0-0.27","fixation","","","","",""
"1930.9949999988312","Stimuli/Hangul_F96.bmp","188","image-keyboard-response","369","528345","0.0-12.0-1.27","test",".","",",","",""
"null","<div style=""color:white; font-size:60px;"">+</div>","null","html-keyboard-response","370","529348","0.0-12.0-0.28","fixation","","","","",""
"1899.92500000156","Stimuli/Hangul_F95.bmp","188","image-keyboard-response","371","531253","0.0-12.0-1.28","test",".","",",","",""
"null","<div style=""color:white; font-size:60px;"">+</div>","null","html-keyboard-response","372","532256","0.0-12.0-0.29","fixation","","","","",""
"2183.324999998091","Stimuli/Hangul_M95.bmp","188","image-keyboard-response","373","534442","0.0-12.0-1.29","test",",","",",","",""
"null","<div style=""color:white; font-size:60px;"">+</div>","null","html-keyboard-response","374","535445","0.0-12.0-0.30","fixation","","","","",""
"2615.5500000022585","Stimuli/Hangul_F92.bmp","188","image-keyboard-response","375","538065","0.0-12.0-1.30","test",".","",",","",""
"null","<div style=""color:white; font-size:60px;"">+</div>","null","html-keyboard-response","376","539068","0.0-12.0-0.31","fixation","","","","",""
"2106.6500000015367","Stimuli/Hangul_M76.bmp","188","image-keyboard-response","377","541177","0.0-12.0-1.31","test",",","",",","",""
"null","<div style=""color:white; font-size:60px;"">+</div>","null","html-keyboard-response","378","542180","0.0-12.0-0.32","fixation","","","","",""
"3032.8100000005215","Stimuli/Hangul_M87.bmp","188","image-keyboard-response","379","545217","0.0-12.0-1.32","test",",","",",","",""
"null","<div style=""color:white; font-size:60px;"">+</div>","null","html-keyboard-response","380","546220","0.0-12.0-0.33","fixation","","","","",""
"4479.529999996885","Stimuli/Hangul_M94.bmp","190","image-keyboard-response","381","550704","0.0-12.0-1.33","test",",","",".","",""
"null","<div style=""color:white; font-size:60px;"">+</div>","null","html-keyboard-response","382","551707","0.0-12.0-0.34","fixation","","","","",""
"1993.2900000021327","Stimuli/Hangul_M99.bmp","188","image-keyboard-response","383","553704","0.0-12.0-1.34","test",",","",",","",""
"null","<div style=""color:white; font-size:60px;"">+</div>","null","html-keyboard-response","384","554707","0.0-12.0-0.35","fixation","","","","",""
"1875.3899999974528","Stimuli/Hangul_F80.bmp","188","image-keyboard-response","385","556585","0.0-12.0-1.35","test",".","",",","",""
"null","<div style=""color:white; font-size:60px;"">+</div>","null","html-keyboard-response","386","557588","0.0-12.0-0.36","fixation","","","","",""
"1841.6849999994738","Stimuli/Hangul_F91.bmp","188","image-keyboard-response","387","559431","0.0-12.0-1.36","test",".","",",","",""
"null","<div style=""color:white; font-size:60px;"">+</div>","null","html-keyboard-response","388","560432","0.0-12.0-0.37","fixation","","","","",""
"1938.7400000013877","Stimuli/Hangul_M93.bmp","188","image-keyboard-response","389","562376","0.0-12.0-1.37","test",",","",",","",""
"null","<div style=""color:white; font-size:60px;"">+</div>","null","html-keyboard-response","390","563379","0.0-12.0-0.38","fixation","","","","",""
"1883.5499999986496","Stimuli/Hangul_M91.bmp","188","image-keyboard-response","391","565264","0.0-12.0-1.38","test",",","",",","",""
"null","<div style=""color:white; font-size:60px;"">+</div>","null","html-keyboard-response","392","566267","0.0-12.0-0.39","fixation","","","","",""
"1737.5750000027474","Stimuli/Hangul_F87.bmp","188","image-keyboard-response","393","568009","0.0-12.0-1.39","test",".","",",","",""
"null","<div style=""color:white; font-size:60px;"">+</div>","null","html-keyboard-response","394","569012","0.0-12.0-0.40","fixation","","","","",""
"1905.1800000015646","Stimuli/Hangul_F90.bmp","188","image-keyboard-response","395","570919","0.0-12.0-1.40","test",".","",",","",""
"null","<div style=""color:white; font-size:60px;"">+</div>","null","html-keyboard-response","396","571921","0.0-12.0-0.41","fixation","","","","",""
"1977.8100000004051","Stimuli/Hangul_F83.bmp","188","image-keyboard-response","397","573904","0.0-12.0-1.41","test",".","",",","",""
"null","<div style=""color:white; font-size:60px;"">+</div>","null","html-keyboard-response","398","574907","0.0-12.0-0.42","fixation","","","","",""
"1866.4500000013504","Stimuli/Hangul_F88.bmp","188","image-keyboard-response","399","576776","0.0-12.0-1.42","test",".","",",","",""
"null","<div style=""color:white; font-size:60px;"">+</div>","null","html-keyboard-response","400","577779","0.0-12.0-0.43","fixation","","","","",""
"2202.980000001844","Stimuli/Hangul_M84.bmp","188","image-keyboard-response","401","579985","0.0-12.0-1.43","test",",","",",","",""
"null","<div style=""color:white; font-size:60px;"">+</div>","null","html-keyboard-response","402","580988","0.0-12.0-0.44","fixation","","","","",""
"1664.3199999998324","Stimuli/Hangul_M85.bmp","188","image-keyboard-response","403","582656","0.0-12.0-1.44","test",",","",",","",""
"null","<div style=""color:white; font-size:60px;"">+</div>","null","html-keyboard-response","404","583660","0.0-12.0-0.45","fixation","","","","",""
"1626.6150000010384","Stimuli/Hangul_M92.bmp","190","image-keyboard-response","405","585288","0.0-12.0-1.45","test",",","",".","",""
"null","<div style=""color:white; font-size:60px;"">+</div>","null","html-keyboard-response","406","586290","0.0-12.0-0.46","fixation","","","","",""
"2348.744999999297","Stimuli/Hangul_F78.bmp","188","image-keyboard-response","407","588649","0.0-12.0-1.46","test",".","",",","",""
"null","<div style=""color:white; font-size:60px;"">+</div>","null","html-keyboard-response","408","589651","0.0-12.0-0.47","fixation","","","","",""
"2468.5649999992456","Stimuli/Hangul_F84.bmp","190","image-keyboard-response","409","592121","0.0-12.0-1.47","test",".","",".","",""
"null","<div style=""color:white; font-size:60px;"">+</div>","null","html-keyboard-response","410","593124","0.0-12.0-0.48","fixation","","","","",""
"2751.4999999984866","Stimuli/Hangul_F77.bmp","188","image-keyboard-response","411","595880","0.0-12.0-1.48","test",".","",",","",""
"null","<div style=""color:white; font-size:60px;"">+</div>","null","html-keyboard-response","412","596883","0.0-12.0-0.49","fixation","","","","",""
"2160.0599999983096","Stimuli/Hangul_M77.bmp","190","image-keyboard-response","413","599047","0.0-12.0-1.49","test",",","",".","",""
"4237.675000000279","<p style=""color:white;"">Phase I of the experiment is complete.</p> <p style=""color:white;"">Press the space bar to proceed to Phase II of the experiment.</p> ","32","html-keyboard-response","414","603288","0.0-13.0","","","","","",""
"4212.294999997597","<p style=""color:white;"">Now we are interested in how well you can predict patterns in the series of figures. You will be asked to predict whether the next figure in the series is more male-like or female-like. When you see the <q>Next Figure</q> prompt, press the corresponding response keys to indicate your prediction: </p><p style=""color:white;""> Male &#8594 <q>,</q> (comma)</p><p style=""color:white;""> Female &#8594 <q>.</q> (period)</p><p style=""color:white;"">The actual figure will then appear on the screen. After you see the figure, please guess the assigned gender with response keys. </p><p style=""color:white;"">As before, you will receive 2 cents for correctly classifying each figure.</p><p style=""color:white;"">Press either response keys to continue.</p>","188","html-keyboard-response","415","609504","0.0-14.0","","","","","",""
"9892.61500000069","<p style=""color:white;"">PREDICTION BONUS</p> <p style=""color:white;"">Your prediction accuracy is the total number of correct predictions you make over the 200 trials.</p> <p style=""color:white;"">In addition to the 2 cents per correct figure classification, you have the chance to receive a bonus of 40 dollars IF your accuracy is above average relative to previous participants.</p><p style=""color:white;"">If your accuracy is below average relative to previous participants, then you will not receive the 40 dollar bonus.</p><p style=""color:white;"">Press the space bar to continue.</p>","32","html-keyboard-response","416","619399","0.0-15.0","","","","","",""
"2110.870000000461","<p style=""color:white;"">Here are some examples.</p> <p style=""color:white;"">For each, predict whether the next figure looks more male-like or female-like. Then, when the figure appears, guess whether it looks more male-like or female-like and indicate your choice.</p> <p style=""color:white;"">Press the space bar to continue.</p>","32","html-keyboard-response","417","621512","0.0-16.0","","","","","",""
"11764.299999998882","<p style=""color:white;""> Next Figure: Male or Female? </p>","188","html-keyboard-response","418","635280","0.0-17.0-0.0","prediction_train","","","",",",""
"null","<div style=""color:white; font-size:60px;"">+</div>","null","html-keyboard-response","419","636286","0.0-17.0-1.0","fixation","","","","",""
"2222.0149999993155","Stimuli/Hangul_E2.bmp","190","image-keyboard-response","420","638511","0.0-17.0-2.0","c2_train",".","","","","."
"1445.2499999969732","<p style=""color:white;""> Next Figure: Male or Female? </p>","188","html-keyboard-response","421","639959","0.0-17.0-0.1","prediction_train","","","",",",""
"null","<div style=""color:white; font-size:60px;"">+</div>","null","html-keyboard-response","422","640963","0.0-17.0-1.1","fixation","","","","",""
"1440.3550000025425","Stimuli/Hangul_E0.bmp","188","image-keyboard-response","423","642407","0.0-17.0-2.1","c2_train",",","","","",","
"805.4449999980861","<p style=""color:white;""> Next Figure: Male or Female? </p>","188","html-keyboard-response","424","643215","0.0-17.0-0.2","prediction_train","","","",",",""
"null","<div style=""color:white; font-size:60px;"">+</div>","null","html-keyboard-response","425","644218","0.0-17.0-1.2","fixation","","","","",""
"64.71000000240747","Stimuli/Hangul_E1.bmp","188","image-keyboard-response","426","644287","0.0-17.0-2.2","c2_train",",","","","",","
"1718.8999999997905","<p style=""color:white;"">Let us begin! Press the space bar when you are ready to start block 1 of 4.</p> ","32","html-keyboard-response","427","646008","0.0-18.0","","","","","",""
"627.6050000014948","<p style=""color:white;""> Next Figure: Male or Female? </p>","188","html-keyboard-response","428","648640","0.0-19.0-0.0","prediction","","","",",",""
"null","<div style=""color:white; font-size:60px;"">+</div>","null","html-keyboard-response","429","649642","0.0-19.0-1.0","fixation","","","","",""
"563.2249999979977","Stimuli/Hangul_F20.bmp","188","image-keyboard-response","430","650208","0.0-19.0-2.0","c2_test",".","","","",","
"373.2349999991711","<p style=""color:white;""> Next Figure: Male or Female? </p>","190","html-keyboard-response","431","650584","0.0-19.0-0.1","prediction","","","",".",""
"null","<div style=""color:white; font-size:60px;"">+</div>","null","html-keyboard-response","432","651587","0.0-19.0-1.1","fixation","","","","",""
"242.08999999973457","Stimuli/Hangul_M11.bmp","190","image-keyboard-response","433","651832","0.0-19.0-2.1","c2_test",",","","","","."
"189.37999999977183","<p style=""color:white;""> Next Figure: Male or Female? </p>","188","html-keyboard-response","434","652023","0.0-19.0-0.2","prediction","","","",",",""
"null","<div style=""color:white; font-size:60px;"">+</div>","null","html-keyboard-response","435","653027","0.0-19.0-1.2","fixation","","","","",""
"289.8349999996135","Stimuli/Hangul_F9.bmp","190","image-keyboard-response","436","653318","0.0-19.0-2.2","c2_test",".","","","","."
"159.6849999986589","<p style=""color:white;""> Next Figure: Male or Female? </p>","188","html-keyboard-response","437","653479","0.0-19.0-0.3","prediction","","","",",",""
"null","<div style=""color:white; font-size:60px;"">+</div>","null","html-keyboard-response","438","654482","0.0-19.0-1.3","fixation","","","","",""
"203.24999999860302","Stimuli/Hangul_F8.bmp","190","image-keyboard-response","439","654687","0.0-19.0-2.3","c2_test",".","","","","."
"157.67000000050757","<p style=""color:white;""> Next Figure: Male or Female? </p>","188","html-keyboard-response","440","654848","0.0-19.0-0.4","prediction","","","",",",""
"null","<div style=""color:white; font-size:60px;"">+</div>","null","html-keyboard-response","441","655851","0.0-19.0-1.4","fixation","","","","",""
"170.1500000017695","Stimuli/Hangul_F21.bmp","190","image-keyboard-response","442","656023","0.0-19.0-2.4","c2_test",".","","","","."
"173.52000000025146","<p style=""color:white;""> Next Figure: Male or Female? </p>","188","html-keyboard-response","443","656199","0.0-19.0-0.5","prediction","","","",",",""
"null","<div style=""color:white; font-size:60px;"">+</div>","null","html-keyboard-response","444","657202","0.0-19.0-1.5","fixation","","","","",""
"35.954999999376014","Stimuli/Hangul_M23.bmp","190","image-keyboard-response","445","657240","0.0-19.0-2.5","c2_test",",","","","","."
"148.0650000012247","<p style=""color:white;""> Next Figure: Male or Female? </p>","188","html-keyboard-response","446","657390","0.0-19.0-0.6","prediction","","","",",",""
"null","<div style=""color:white; font-size:60px;"">+</div>","null","html-keyboard-response","447","658392","0.0-19.0-1.6","fixation","","","","",""
"132.47499999857973","Stimuli/Hangul_F3.bmp","188","image-keyboard-response","448","658527","0.0-19.0-2.6","c2_test",".","","","",","
"240.29000000155065","<p style=""color:white;""> Next Figure: Male or Female? </p>","190","html-keyboard-response","449","658772","0.0-19.0-0.7","prediction","","","",".",""
"null","<div style=""color:white; font-size:60px;"">+</div>","null","html-keyboard-response","450","659775","0.0-19.0-1.7","fixation","","","","",""
"109.44000000017695","Stimuli/Hangul_F15.bmp","190","image-keyboard-response","451","659887","0.0-19.0-2.7","c2_test",".","","","","."
"92.49500000081025","<p style=""color:white;""> Next Figure: Male or Female? </p>","188","html-keyboard-response","452","659983","0.0-19.0-0.8","prediction","","","",",",""
"null","<div style=""color:white; font-size:60px;"">+</div>","null","html-keyboard-response","453","660986","0.0-19.0-1.8","fixation","","","","",""
"98.40500000061002","Stimuli/Hangul_M21.bmp","190","image-keyboard-response","454","661086","0.0-19.0-2.8","c2_test",",","","","","."
"143.70000000065193","<p style=""color:white;""> Next Figure: Male or Female? </p>","188","html-keyboard-response","455","661232","0.0-19.0-0.9","prediction","","","",",",""
"null","<div style=""color:white; font-size:60px;"">+</div>","null","html-keyboard-response","456","662234","0.0-19.0-1.9","fixation","","","","",""
"194.724999997532","Stimuli/Hangul_M16.bmp","188","image-keyboard-response","457","662431","0.0-19.0-2.9","c2_test",",","","","",","
"173.00999999861233","<p style=""color:white;""> Next Figure: Male or Female? </p>","190","html-keyboard-response","458","662606","0.0-19.0-0.10","prediction","","","",".",""
"null","<div style=""color:white; font-size:60px;"">+</div>","null","html-keyboard-response","459","663608","0.0-19.0-1.10","fixation","","","","",""
"61.299999997601844","Stimuli/Hangul_M2.bmp","188","image-keyboard-response","460","663670","0.0-19.0-2.10","c2_test",",","","","",","
"26390.879999998957","<p style=""color:white;""> Next Figure: Male or Female? </p>","188","html-keyboard-response","461","690063","0.0-19.0-0.11","prediction","","","",",",""
"null","<div style=""color:white; font-size:60px;"">+</div>","null","html-keyboard-response","462","691076","0.0-19.0-1.11","fixation","","","","",""
"313.1700000013225","Stimuli/Hangul_M19.bmp","188","image-keyboard-response","463","691392","0.0-19.0-2.11","c2_test",",","","","",","
"379.2350000003353","<p style=""color:white;""> Next Figure: Male or Female? </p>","190","html-keyboard-response","464","691774","0.0-19.0-0.12","prediction","","","",".",""
"null","<div style=""color:white; font-size:60px;"">+</div>","null","html-keyboard-response","465","692776","0.0-19.0-1.12","fixation","","","","",""
"2532.4149999978254","Stimuli/Hangul_F22.bmp","190","image-keyboard-response","466","695310","0.0-19.0-2.12","c2_test",".","","","","."
"159.38000000093598","<p style=""color:white;""> Next Figure: Male or Female? </p>","188","html-keyboard-response","467","695470","0.0-19.0-0.13","prediction","","","",",",""
"null","<div style=""color:white; font-size:60px;"">+</div>","null","html-keyboard-response","468","696473","0.0-19.0-1.13","fixation","","","","",""
"105.38499999896158","Stimuli/Hangul_M0.bmp","190","image-keyboard-response","469","696583","0.0-19.0-2.13","c2_test",",","","","","."
"50.07499999913853","<p style=""color:white;""> Next Figure: Male or Female? </p>","188","html-keyboard-response","470","696639","0.0-19.0-0.14","prediction","","","",",",""
"null","<div style=""color:white; font-size:60px;"">+</div>","null","html-keyboard-response","471","697642","0.0-19.0-1.14","fixation","","","","",""
"82.14500000025146","Stimuli/Hangul_F13.bmp","188","image-keyboard-response","472","697726","0.0-19.0-2.14","c2_test",".","","","",","
"166.24999999837019","<p style=""color:white;""> Next Figure: Male or Female? </p>","190","html-keyboard-response","473","697894","0.0-19.0-0.15","prediction","","","",".",""
"null","<div style=""color:white; font-size:60px;"">+</div>","null","html-keyboard-response","474","698897","0.0-19.0-1.15","fixation","","","","",""
"66.92000000120606","Stimuli/Hangul_M9.bmp","190","image-keyboard-response","475","698966","0.0-19.0-2.15","c2_test",",","","","","."
"53.09000000124797","<p style=""color:white;""> Next Figure: Male or Female? </p>","188","html-keyboard-response","476","699022","0.0-19.0-0.16","prediction","","","",",",""
"null","<div style=""color:white; font-size:60px;"">+</div>","null","html-keyboard-response","477","700025","0.0-19.0-1.16","fixation","","","","",""
"27.769999996991828","Stimuli/Hangul_M20.bmp","190","image-keyboard-response","478","700055","0.0-19.0-2.16","c2_test",",","","","","."
"76.04499999794643","<p style=""color:white;""> Next Figure: Male or Female? </p>","188","html-keyboard-response","479","700133","0.0-19.0-0.17","prediction","","","",",",""
"null","<div style=""color:white; font-size:60px;"">+</div>","null","html-keyboard-response","480","701140","0.0-19.0-1.17","fixation","","","","",""
"11.259999999310821","Stimuli/Hangul_F2.bmp","190","image-keyboard-response","481","701155","0.0-19.0-2.17","c2_test",".","","","","."
"87.77499999990687","<p style=""color:white;""> Next Figure: Male or Female? </p>","188","html-keyboard-response","482","701246","0.0-19.0-0.18","prediction","","","",",",""
"null","<div style=""color:white; font-size:60px;"">+</div>","null","html-keyboard-response","483","702249","0.0-19.0-1.18","fixation","","","","",""
"114.69500000018161","Stimuli/Hangul_M10.bmp","188","image-keyboard-response","484","702366","0.0-19.0-2.18","c2_test",",","","","",","
"157.46000000217464","<p style=""color:white;""> Next Figure: Male or Female? </p>","190","html-keyboard-response","485","702526","0.0-19.0-0.19","prediction","","","",".",""
"null","<div style=""color:white; font-size:60px;"">+</div>","null","html-keyboard-response","486","703529","0.0-19.0-1.19","fixation","","","","",""
"106.01999999920372","Stimuli/Hangul_F16.bmp","190","image-keyboard-response","487","703637","0.0-19.0-2.19","c2_test",".","","","","."
"113.45000000076834","<p style=""color:white;""> Next Figure: Male or Female? </p>","188","html-keyboard-response","488","703752","0.0-19.0-0.20","prediction","","","",",",""
"null","<div style=""color:white; font-size:60px;"">+</div>","null","html-keyboard-response","489","704757","0.0-19.0-1.20","fixation","","","","",""
"39.60499999811873","Stimuli/Hangul_M3.bmp","190","image-keyboard-response","490","704799","0.0-19.0-2.20","c2_test",",","","","","."
"79.71000000182539","<p style=""color:white;""> Next Figure: Male or Female? </p>","188","html-keyboard-response","491","704880","0.0-19.0-0.21","prediction","","","",",",""
"null","<div style=""color:white; font-size:60px;"">+</div>","null","html-keyboard-response","492","705883","0.0-19.0-1.21","fixation","","","","",""
"59.150000000954606","Stimuli/Hangul_F7.bmp","190","image-keyboard-response","493","705943","0.0-19.0-2.21","c2_test",".","","","","."
"175.58500000077765","<p style=""color:white;""> Next Figure: Male or Female? </p>","188","html-keyboard-response","494","706120","0.0-19.0-0.22","prediction","","","",",",""
"null","<div style=""color:white; font-size:60px;"">+</div>","null","html-keyboard-response","495","707123","0.0-19.0-1.22","fixation","","","","",""
"130.30499999877065","Stimuli/Hangul_M6.bmp","188","image-keyboard-response","496","707255","0.0-19.0-2.22","c2_test",",","","","",","
"158.67500000237487","<p style=""color:white;""> Next Figure: Male or Female? </p>","190","html-keyboard-response","497","707416","0.0-19.0-0.23","prediction","","","",".",""
"null","<div style=""color:white; font-size:60px;"">+</div>","null","html-keyboard-response","498","708419","0.0-19.0-1.23","fixation","","","","",""
"72.54499999911059","Stimuli/Hangul_F17.bmp","188","image-keyboard-response","499","708495","0.0-19.0-2.23","c2_test",".","","","",","
"119.26500000117812","<p style=""color:white;""> Next Figure: Male or Female? </p>","190","html-keyboard-response","500","708616","0.0-19.0-0.24","prediction","","","",".",""
"null","<div style=""color:white; font-size:60px;"">+</div>","null","html-keyboard-response","501","709618","0.0-19.0-1.24","fixation","","","","",""
"170.92000000039116","Stimuli/Hangul_M24.bmp","188","image-keyboard-response","502","709792","0.0-19.0-2.24","c2_test",",","","","",","
"133.1350000000093","<p style=""color:white;""> Next Figure: Male or Female? </p>","190","html-keyboard-response","503","709927","0.0-19.0-0.25","prediction","","","",".",""
"null","<div style=""color:white; font-size:60px;"">+</div>","null","html-keyboard-response","504","710930","0.0-19.0-1.25","fixation","","","","",""
"42.98499999998603","Stimuli/Hangul_M4.bmp","188","image-keyboard-response","505","710975","0.0-19.0-2.25","c2_test",",","","","",","
"174.75500000000466","<p style=""color:white;""> Next Figure: Male or Female? </p>","190","html-keyboard-response","506","711152","0.0-19.0-0.26","prediction","","","",".",""
"null","<div style=""color:white; font-size:60px;"">+</div>","null","html-keyboard-response","507","712154","0.0-19.0-1.26","fixation","","","","",""
"98.50999999977648","Stimuli/Hangul_M17.bmp","188","image-keyboard-response","508","712254","0.0-19.0-2.26","c2_test",",","","","",","
"151.42000000190455","<p style=""color:white;""> Next Figure: Male or Female? </p>","190","html-keyboard-response","509","712407","0.0-19.0-0.27","prediction","","","",".",""
"null","<div style=""color:white; font-size:60px;"">+</div>","null","html-keyboard-response","510","713410","0.0-19.0-1.27","fixation","","","","",""
"35.94999999762513","Stimuli/Hangul_F12.bmp","188","image-keyboard-response","511","713447","0.0-19.0-2.27","c2_test",".","","","",","
"193.99999999953434","<p style=""color:white;""> Next Figure: Male or Female? </p>","190","html-keyboard-response","512","713642","0.0-19.0-0.28","prediction","","","",".",""
"null","<div style=""color:white; font-size:60px;"">+</div>","null","html-keyboard-response","513","714644","0.0-19.0-1.28","fixation","","","","",""
"161.15999999968335","Stimuli/Hangul_F6.bmp","190","image-keyboard-response","514","714808","0.0-19.0-2.28","c2_test",".","","","","."
"260.4200000022538","<p style=""color:white;""> Next Figure: Male or Female? </p>","188","html-keyboard-response","515","715071","0.0-19.0-0.29","prediction","","","",",",""
"null","<div style=""color:white; font-size:60px;"">+</div>","null","html-keyboard-response","516","716074","0.0-19.0-1.29","fixation","","","","",""
"128.72000000055414","Stimuli/Hangul_M14.bmp","190","image-keyboard-response","517","716208","0.0-19.0-2.29","c2_test",",","","","","."
"245.09000000031665","<p style=""color:white;""> Next Figure: Male or Female? </p>","188","html-keyboard-response","518","716455","0.0-19.0-0.30","prediction","","","",",",""
"null","<div style=""color:white; font-size:60px;"">+</div>","null","html-keyboard-response","519","717458","0.0-19.0-1.30","fixation","","","","",""
"18.710000000311993","Stimuli/Hangul_F10.bmp","188","image-keyboard-response","520","717479","0.0-19.0-2.30","c2_test",".","","","",","
"285.8699999997625","<p style=""color:white;""> Next Figure: Male or Female? </p>","190","html-keyboard-response","521","717768","0.0-19.0-0.31","prediction","","","",".",""
"null","<div style=""color:white; font-size:60px;"">+</div>","null","html-keyboard-response","522","718772","0.0-19.0-1.31","fixation","","","","",""
"56.87000000034459","Stimuli/Hangul_F4.bmp","190","image-keyboard-response","523","718830","0.0-19.0-2.31","c2_test",".","","","","."
"143.82500000286382","<p style=""color:white;""> Next Figure: Male or Female? </p>","188","html-keyboard-response","524","718975","0.0-19.0-0.32","prediction","","","",",",""
"null","<div style=""color:white; font-size:60px;"">+</div>","null","html-keyboard-response","525","719978","0.0-19.0-1.32","fixation","","","","",""
"34.605000000679865","Stimuli/Hangul_M5.bmp","188","image-keyboard-response","526","720015","0.0-19.0-2.32","c2_test",",","","","",","
"197.45500000135507","<p style=""color:white;""> Next Figure: Male or Female? </p>","190","html-keyboard-response","527","720215","0.0-19.0-0.33","prediction","","","",".",""
"null","<div style=""color:white; font-size:60px;"">+</div>","null","html-keyboard-response","528","721218","0.0-19.0-1.33","fixation","","","","",""
"18.47499999718275","Stimuli/Hangul_F18.bmp","188","image-keyboard-response","529","721240","0.0-19.0-2.33","c2_test",".","","","",","
"186.45499999902677","<p style=""color:white;""> Next Figure: Male or Female? </p>","190","html-keyboard-response","530","721431","0.0-19.0-0.34","prediction","","","",".",""
"null","<div style=""color:white; font-size:60px;"">+</div>","null","html-keyboard-response","531","722435","0.0-19.0-1.34","fixation","","","","",""
"112.92500000121072","Stimuli/Hangul_F19.bmp","190","image-keyboard-response","532","722552","0.0-19.0-2.34","c2_test",".","","","","."
"172.24500000162516","<p style=""color:white;""> Next Figure: Male or Female? </p>","188","html-keyboard-response","533","722727","0.0-19.0-0.35","prediction","","","",",",""
"null","<div style=""color:white; font-size:60px;"">+</div>","null","html-keyboard-response","534","723736","0.0-19.0-1.35","fixation","","","","",""
"23.600000000442378","Stimuli/Hangul_F14.bmp","190","image-keyboard-response","535","723762","0.0-19.0-2.35","c2_test",".","","","","."
"131.1150000001071","<p style=""color:white;""> Next Figure: Male or Female? </p>","188","html-keyboard-response","536","723895","0.0-19.0-0.36","prediction","","","",",",""
"null","<div style=""color:white; font-size:60px;"">+</div>","null","html-keyboard-response","537","724898","0.0-19.0-1.36","fixation","","","","",""
"51.50499999942258","Stimuli/Hangul_M18.bmp","190","image-keyboard-response","538","724951","0.0-19.0-2.36","c2_test",",","","","","."
"134.17000000120606","<p style=""color:white;""> Next Figure: Male or Female? </p>","188","html-keyboard-response","539","725087","0.0-19.0-0.37","prediction","","","",",",""
"null","<div style=""color:white; font-size:60px;"">+</div>","null","html-keyboard-response","540","726090","0.0-19.0-1.37","fixation","","","","",""
"58.70499999949243","Stimuli/Hangul_F1.bmp","190","image-keyboard-response","541","726150","0.0-19.0-2.37","c2_test",".","","","","."
"119.47499999951106","<p style=""color:white;""> Next Figure: Male or Female? </p>","188","html-keyboard-response","542","726271","0.0-19.0-0.38","prediction","","","",",",""
"null","<div style=""color:white; font-size:60px;"">+</div>","null","html-keyboard-response","543","727274","0.0-19.0-1.38","fixation","","","","",""
"91.33500000089407","Stimuli/Hangul_M1.bmp","190","image-keyboard-response","544","727366","0.0-19.0-2.38","c2_test",",","","","","."
"159.64000000164378","<p style=""color:white;""> Next Figure: Male or Female? </p>","188","html-keyboard-response","545","727527","0.0-19.0-0.39","prediction","","","",",",""
"null","<div style=""color:white; font-size:60px;"">+</div>","null","html-keyboard-response","546","728530","0.0-19.0-1.39","fixation","","","","",""
"58.095000000321306","Stimuli/Hangul_F23.bmp","190","image-keyboard-response","547","728590","0.0-19.0-2.39","c2_test",".","","","","."
"127.58500000194181","<p style=""color:white;""> Next Figure: Male or Female? </p>","188","html-keyboard-response","548","728719","0.0-19.0-0.40","prediction","","","",",",""
"null","<div style=""color:white; font-size:60px;"">+</div>","null","html-keyboard-response","549","729722","0.0-19.0-1.40","fixation","","","","",""
"131.65500000107568","Stimuli/Hangul_M8.bmp","190","image-keyboard-response","550","729855","0.0-19.0-2.40","c2_test",",","","","","."
"133.50499999790918","<p style=""color:white;""> Next Figure: Male or Female? </p>","188","html-keyboard-response","551","729991","0.0-19.0-0.41","prediction","","","",",",""
"null","<div style=""color:white; font-size:60px;"">+</div>","null","html-keyboard-response","552","730995","0.0-19.0-1.41","fixation","","","","",""
"10.425000000395812","Stimuli/Hangul_M13.bmp","188","image-keyboard-response","553","731008","0.0-19.0-2.41","c2_test",",","","","",","
"141.1550000011921","<p style=""color:white;""> Next Figure: Male or Female? </p>","190","html-keyboard-response","554","731151","0.0-19.0-0.42","prediction","","","",".",""
"null","<div style=""color:white; font-size:60px;"">+</div>","null","html-keyboard-response","555","732155","0.0-19.0-1.42","fixation","","","","",""
"1120.6949999978533","Stimuli/Hangul_F5.bmp","188","image-keyboard-response","556","733280","0.0-19.0-2.42","c2_test",".","","","",","
"956.0300000011921","<p style=""color:white;""> Next Figure: Male or Female? </p>","188","html-keyboard-response","557","734239","0.0-19.0-0.43","prediction","","","",",",""
"null","<div style=""color:white; font-size:60px;"">+</div>","null","html-keyboard-response","558","735242","0.0-19.0-1.43","fixation","","","","",""
"178.72999999974854","Stimuli/Hangul_F11.bmp","188","image-keyboard-response","559","735423","0.0-19.0-2.43","c2_test",".","","","",","
"558.1449999990873","<p style=""color:white;""> Next Figure: Male or Female? </p>","190","html-keyboard-response","560","735983","0.0-19.0-0.44","prediction","","","",".",""
"null","<div style=""color:white; font-size:60px;"">+</div>","null","html-keyboard-response","561","736986","0.0-19.0-1.44","fixation","","","","",""
"259.75000000104774","Stimuli/Hangul_F0.bmp","190","image-keyboard-response","562","737249","0.0-19.0-2.44","c2_test",".","","","","."
"154.67999999958556","<p style=""color:white;""> Next Figure: Male or Female? </p>","188","html-keyboard-response","563","737406","0.0-19.0-0.45","prediction","","","",",",""
"null","<div style=""color:white; font-size:60px;"">+</div>","null","html-keyboard-response","564","738408","0.0-19.0-1.45","fixation","","","","",""
"4.590000000433065","Stimuli/Hangul_M12.bmp","188","image-keyboard-response","565","738417","0.0-19.0-2.45","c2_test",",","","","",","
"388.49499999918044","<p style=""color:white;""> Next Figure: Male or Female? </p>","190","html-keyboard-response","566","738808","0.0-19.0-0.46","prediction","","","",".",""
"null","<div style=""color:white; font-size:60px;"">+</div>","null","html-keyboard-response","567","739811","0.0-19.0-1.46","fixation","","","","",""
"72.16500000143424","Stimuli/Hangul_M7.bmp","188","image-keyboard-response","568","739886","0.0-19.0-2.46","c2_test",",","","","",","
"247.78000000142492","<p style=""color:white;""> Next Figure: Male or Female? </p>","190","html-keyboard-response","569","740135","0.0-19.0-0.47","prediction","","","",".",""
"null","<div style=""color:white; font-size:60px;"">+</div>","null","html-keyboard-response","570","741139","0.0-19.0-1.47","fixation","","","","",""
"89.15499999781605","Stimuli/Hangul_M22.bmp","188","image-keyboard-response","571","741231","0.0-19.0-2.47","c2_test",",","","","",","
"285.71999999985565","<p style=""color:white;""> Next Figure: Male or Female? </p>","190","html-keyboard-response","572","741519","0.0-19.0-0.48","prediction","","","",".",""
"null","<div style=""color:white; font-size:60px;"">+</div>","null","html-keyboard-response","573","742521","0.0-19.0-1.48","fixation","","","","",""
"51.25499999849126","Stimuli/Hangul_M15.bmp","188","image-keyboard-response","574","742575","0.0-19.0-2.48","c2_test",",","","","",","
"190.1499999986263","<p style=""color:white;""> Next Figure: Male or Female? </p>","190","html-keyboard-response","575","742766","0.0-19.0-0.49","prediction","","","",".",""
"null","<div style=""color:white; font-size:60px;"">+</div>","null","html-keyboard-response","576","743768","0.0-19.0-1.49","fixation","","","","",""
"227.96500000183005","Stimuli/Hangul_F24.bmp","190","image-keyboard-response","577","743999","0.0-19.0-2.49","c2_test",".","","","","."
"2493.9050000029383","<p style=""color:white;"">Good job, block 1 complete! Please take a moment to rest.</p> <p style=""color:white;"">When you are ready to continue with block 2 of 4, press the space bar.</p> ","32","html-keyboard-response","578","746496","0.0-20.0","","","","","",""
"498.7650000003632","<p style=""color:white;""> Next Figure: Male or Female? </p>","190","html-keyboard-response","579","748999","0.0-21.0-0.0","prediction","","","",".",""
"null","<div style=""color:white; font-size:60px;"">+</div>","null","html-keyboard-response","580","750002","0.0-21.0-1.0","fixation","","","","",""
"337.51500000292435","Stimuli/Hangul_F32.bmp","190","image-keyboard-response","581","750343","0.0-21.0-2.0","c2_test",".","","","","."
"261.1749999995809","<p style=""color:white;""> Next Figure: Male or Female? </p>","188","html-keyboard-response","582","750606","0.0-21.0-0.1","prediction","","","",",",""
"null","<div style=""color:white; font-size:60px;"">+</div>","null","html-keyboard-response","583","751609","0.0-21.0-1.1","fixation","","","","",""
"59.11499999999069","Stimuli/Hangul_F34.bmp","188","image-keyboard-response","584","751670","0.0-21.0-2.1","c2_test",".","","","",","
"215.6250000006985","<p style=""color:white;""> Next Figure: Male or Female? </p>","190","html-keyboard-response","585","751887","0.0-21.0-0.2","prediction","","","",".",""
"null","<div style=""color:white; font-size:60px;"">+</div>","null","html-keyboard-response","586","752890","0.0-21.0-1.2","fixation","","","","",""
"258.82999999891035","Stimuli/Hangul_F31.bmp","190","image-keyboard-response","587","753151","0.0-21.0-2.2","c2_test",".","","","","."
"117.65500000189058","<p style=""color:white;""> Next Figure: Male or Female? </p>","188","html-keyboard-response","588","753271","0.0-21.0-0.3","prediction","","","",",",""
"null","<div style=""color:white; font-size:60px;"">+</div>","null","html-keyboard-response","589","754273","0.0-21.0-1.3","fixation","","","","",""
"306.88999999989755","Stimuli/Hangul_M43.bmp","190","image-keyboard-response","590","754583","0.0-21.0-2.3","c2_test",",","","","","."
"246.23000000056345","<p style=""color:white;""> Next Figure: Male or Female? </p>","188","html-keyboard-response","591","754831","0.0-21.0-0.4","prediction","","","",",",""
"null","<div style=""color:white; font-size:60px;"">+</div>","null","html-keyboard-response","592","755834","0.0-21.0-1.4","fixation","","","","",""
"66.33499999949709","Stimuli/Hangul_F43.bmp","190","image-keyboard-response","593","755902","0.0-21.0-2.4","c2_test",".","","","","."
"399.22500000102445","<p style=""color:white;""> Next Figure: Male or Female? </p>","188","html-keyboard-response","594","756303","0.0-21.0-0.5","prediction","","","",",",""
"null","<div style=""color:white; font-size:60px;"">+</div>","null","html-keyboard-response","595","757306","0.0-21.0-1.5","fixation","","","","",""
"250.49500000022817","Stimuli/Hangul_F33.bmp","190","image-keyboard-response","596","757558","0.0-21.0-2.5","c2_test",".","","","","."
"206.25999999896158","<p style=""color:white;""> Next Figure: Male or Female? </p>","188","html-keyboard-response","597","757767","0.0-21.0-0.6","prediction","","","",",",""
"null","<div style=""color:white; font-size:60px;"">+</div>","null","html-keyboard-response","598","758770","0.0-21.0-1.6","fixation","","","","",""
"18.69499999890104","Stimuli/Hangul_M45.bmp","188","image-keyboard-response","599","758790","0.0-21.0-2.6","c2_test",",","","","",","
"358.8950000011828","<p style=""color:white;""> Next Figure: Male or Female? </p>","190","html-keyboard-response","600","759150","0.0-21.0-0.7","prediction","","","",".",""
"null","<div style=""color:white; font-size:60px;"">+</div>","null","html-keyboard-response","601","760152","0.0-21.0-1.7","fixation","","","","",""
"59.48999999964144","Stimuli/Hangul_M28.bmp","190","image-keyboard-response","602","760214","0.0-21.0-2.7","c2_test",",","","","","."
"247.09500000241678","<p style=""color:white;""> Next Figure: Male or Female? </p>","188","html-keyboard-response","603","760462","0.0-21.0-0.8","prediction","","","",",",""
"null","<div style=""color:white; font-size:60px;"">+</div>","null","html-keyboard-response","604","761465","0.0-21.0-1.8","fixation","","","","",""
"84.2400000001071","Stimuli/Hangul_M41.bmp","190","image-keyboard-response","605","761550","0.0-21.0-2.8","c2_test",",","","","","."
"157.18500000005588","<p style=""color:white;""> Next Figure: Male or Female? </p>","188","html-keyboard-response","606","761710","0.0-21.0-0.9","prediction","","","",",",""
"null","<div style=""color:white; font-size:60px;"">+</div>","null","html-keyboard-response","607","762713","0.0-21.0-1.9","fixation","","","","",""
"42.249999998603016","Stimuli/Hangul_F36.bmp","190","image-keyboard-response","608","762757","0.0-21.0-2.9","c2_test",".","","","","."
"278.88499999966007","<p style=""color:white;""> Next Figure: Male or Female? </p>","188","html-keyboard-response","609","763038","0.0-21.0-0.10","prediction","","","",",",""
"null","<div style=""color:white; font-size:60px;"">+</div>","null","html-keyboard-response","610","764040","0.0-21.0-1.10","fixation","","","","",""
"59.09999999857973","Stimuli/Hangul_M39.bmp","188","image-keyboard-response","611","764101","0.0-21.0-2.10","c2_test",",","","","",","
"206.98999999882653","<p style=""color:white;""> Next Figure: Male or Female? </p>","190","html-keyboard-response","612","764310","0.0-21.0-0.11","prediction","","","",".",""
"null","<div style=""color:white; font-size:60px;"">+</div>","null","html-keyboard-response","613","765314","0.0-21.0-1.11","fixation","","","","",""
"59.264999999897555","Stimuli/Hangul_M36.bmp","190","image-keyboard-response","614","765374","0.0-21.0-2.11","c2_test",",","","","","."
"295.7350000033621","<p style=""color:white;""> Next Figure: Male or Female? </p>","190","html-keyboard-response","615","765672","0.0-21.0-0.12","prediction","","","",".",""
"null","<div style=""color:white; font-size:60px;"">+</div>","null","html-keyboard-response","616","766674","0.0-21.0-1.12","fixation","","","","",""
"41.010000000940636","Stimuli/Hangul_F49.bmp","190","image-keyboard-response","617","766720","0.0-21.0-2.12","c2_test",".","","","","."
"413.97499999951106","<p style=""color:white;""> Next Figure: Male or Female? </p>","190","html-keyboard-response","618","767136","0.0-21.0-0.13","prediction","","","",".",""
"null","<div style=""color:white; font-size:60px;"">+</div>","null","html-keyboard-response","619","768139","0.0-21.0-1.13","fixation","","","","",""
"272.6299999994226","Stimuli/Hangul_F26.bmp","188","image-keyboard-response","620","768415","0.0-21.0-2.13","c2_test",".","","","",","
"333.4800000011455","<p style=""color:white;""> Next Figure: Male or Female? </p>","190","html-keyboard-response","621","768751","0.0-21.0-0.14","prediction","","","",".",""
"null","<div style=""color:white; font-size:60px;"">+</div>","null","html-keyboard-response","622","769754","0.0-21.0-1.14","fixation","","","","",""
"131.3399999999674","Stimuli/Hangul_M49.bmp","188","image-keyboard-response","623","769887","0.0-21.0-2.14","c2_test",",","","","",","
"293.3549999980023","<p style=""color:white;""> Next Figure: Male or Female? </p>","190","html-keyboard-response","624","770183","0.0-21.0-0.15","prediction","","","",".",""
"null","<div style=""color:white; font-size:60px;"">+</div>","null","html-keyboard-response","625","771187","0.0-21.0-1.15","fixation","","","","",""
"33.91000000189524","Stimuli/Hangul_F27.bmp","190","image-keyboard-response","626","771223","0.0-21.0-2.15","c2_test",".","","","","."
"343.089999998454","<p style=""color:white;""> Next Figure: Male or Female? </p>","188","html-keyboard-response","627","771568","0.0-21.0-0.16","prediction","","","",",",""
"null","<div style=""color:white; font-size:60px;"">+</div>","null","html-keyboard-response","628","772571","0.0-21.0-1.16","fixation","","","","",""
"146.32999999960884","Stimuli/Hangul_M46.bmp","188","image-keyboard-response","629","772719","0.0-21.0-2.16","c2_test",",","","","",","
"261.2699999989709","<p style=""color:white;""> Next Figure: Male or Female? </p>","190","html-keyboard-response","630","772983","0.0-21.0-0.17","prediction","","","",".",""
"null","<div style=""color:white; font-size:60px;"">+</div>","null","html-keyboard-response","631","773986","0.0-21.0-1.17","fixation","","","","",""
"131.09500000067055","Stimuli/Hangul_F48.bmp","188","image-keyboard-response","632","774119","0.0-21.0-2.17","c2_test",".","","","",","
"285.13500000187196","<p style=""color:white;""> Next Figure: Male or Female? </p>","190","html-keyboard-response","633","774407","0.0-21.0-0.18","prediction","","","",".",""
"null","<div style=""color:white; font-size:60px;"">+</div>","null","html-keyboard-response","634","775409","0.0-21.0-1.18","fixation","","","","",""
"211.99999999953434","Stimuli/Hangul_M38.bmp","188","image-keyboard-response","635","775622","0.0-21.0-2.18","c2_test",",","","","",","
"271.229999998468","<p style=""color:white;""> Next Figure: Male or Female? </p>","190","html-keyboard-response","636","775895","0.0-21.0-0.19","prediction","","","",".",""
"null","<div style=""color:white; font-size:60px;"">+</div>","null","html-keyboard-response","637","776898","0.0-21.0-1.19","fixation","","","","",""
"107.7099999965867","Stimuli/Hangul_F39.bmp","188","image-keyboard-response","638","777008","0.0-21.0-2.19","c2_test",".","","","",","
"234.88500000163913","<p style=""color:white;""> Next Figure: Male or Female? </p>","190","html-keyboard-response","639","777246","0.0-21.0-0.20","prediction","","","",".",""
"null","<div style=""color:white; font-size:60px;"">+</div>","null","html-keyboard-response","640","778249","0.0-21.0-1.20","fixation","","","","",""
"139.6999999997206","Stimuli/Hangul_F35.bmp","188","image-keyboard-response","641","778391","0.0-21.0-2.20","c2_test",".","","","",","
"205.48499999870546","<p style=""color:white;""> Next Figure: Male or Female? </p>","190","html-keyboard-response","642","778599","0.0-21.0-0.21","prediction","","","",".",""
"null","<div style=""color:white; font-size:60px;"">+</div>","null","html-keyboard-response","643","779602","0.0-21.0-1.21","fixation","","","","",""
"330.03500000271015","Stimuli/Hangul_M47.bmp","190","image-keyboard-response","644","779934","0.0-21.0-2.21","c2_test",",","","","","."
"231.83500000240747","<p style=""color:white;""> Next Figure: Male or Female? </p>","188","html-keyboard-response","645","780168","0.0-21.0-0.22","prediction","","","",",",""
"null","<div style=""color:white; font-size:60px;"">+</div>","null","html-keyboard-response","646","781170","0.0-21.0-1.22","fixation","","","","",""
"66.47999999776948","Stimuli/Hangul_M27.bmp","190","image-keyboard-response","647","781238","0.0-21.0-2.22","c2_test",",","","","","."
"143.41500000224914","<p style=""color:white;""> Next Figure: Male or Female? </p>","188","html-keyboard-response","648","781383","0.0-21.0-0.23","prediction","","","",",",""
"null","<div style=""color:white; font-size:60px;"">+</div>","null","html-keyboard-response","649","782386","0.0-21.0-1.23","fixation","","","","",""
"82.24999999953434","Stimuli/Hangul_M40.bmp","188","image-keyboard-response","650","782470","0.0-21.0-2.23","c2_test",",","","","",","
"286.8850000012899","<p style=""color:white;""> Next Figure: Male or Female? </p>","190","html-keyboard-response","651","782760","0.0-21.0-0.24","prediction","","","",".",""
"null","<div style=""color:white; font-size:60px;"">+</div>","null","html-keyboard-response","652","783762","0.0-21.0-1.24","fixation","","","","",""
"122.53500000224449","Stimuli/Hangul_M32.bmp","188","image-keyboard-response","653","783887","0.0-21.0-2.24","c2_test",",","","","",","
"364.2650000001304","<p style=""color:white;""> Next Figure: Male or Female? </p>","190","html-keyboard-response","654","784255","0.0-21.0-0.25","prediction","","","",".",""
"null","<div style=""color:white; font-size:60px;"">+</div>","null","html-keyboard-response","655","785263","0.0-21.0-1.25","fixation","","","","",""
"135.2950000000419","Stimuli/Hangul_M33.bmp","188","image-keyboard-response","656","785406","0.0-21.0-2.25","c2_test",",","","","",","
