"rt","stimulus","key_press","trial_type","trial_index","time_elapsed","internal_node_id","test_part","correct_response","C1_train","C1","A","C2"
"1907.3749999515712","<p style=""color:white;"">Welcome to the experiment! Press any key to begin.</p>","32","html-keyboard-response","0","1938","0.0-0.0","","","","","",""
"20306.100000161678","<p style=""color:white;"">You will see a series of abstract figures. They are adaptations of signs in the Korean alphabet, but that is not important for this study. </p><p style=""color:white;"">Abstract figures sometimes have a more masculine or feminine shape. Here, each figure has already been assigned a gender as <q>Male</q> or <q>Female</q> by a panel of respondents in a pilot study. The respondents were not given specific instructions on how to do this, but were only told to use their intuition and to take into account the entire configuration of the stimulus. </p><p style=""color:white;"">Your task now is to guess the assigned gender of each figure. Please press the corresponding response keys to indicate your choice: </p><p style=""color:white;""> Male &#8594 <q>,</q> (comma)</p><p style=""color:white;""> Female &#8594 <q>.</q> (period)</p><p style=""color:white;"">Press either response keys to continue.</p>","188","html-keyboard-response","1","22250","0.0-1.0","","","","","",""
"16087.280000094324","<p style=""color:white;"">Your choice is correct if it matches the gender assigned by the majority of respondents in the pilot study.</p> <p style=""color:white;"">For each correct choice you will receive 2 cents. There will be 200 trials divided into 4 blocks of 50 trials. You will be able to take a break after every 50 trials.</p> <p style=""color:white;"">Press the space bar to continue.</p>","32","html-keyboard-response","2","38340","0.0-2.0","","","","","",""
"4074.33500001207","<p style=""color:white;"">Here are some examples.</p> <p style=""color:white;"">For each, guess whether the assigned figure is male-like or female-like and indicate your choice by pressing either response keys.</p> <p style=""color:white;"">Press the space bar to continue.</p>","32","html-keyboard-response","3","42417","0.0-3.0","","","","","",""
"null","<div style=""color:white; font-size:60px;"">+</div>","null","html-keyboard-response","4","45423","0.0-4.0-0.0","fixation","","","","",""
"3946.2150000035763","Stimuli/Hangul_E1.bmp","188","image-keyboard-response","5","49375","0.0-4.0-1.0","c1_train",",",",","","",""
"null","<div style=""color:white; font-size:60px;"">+</div>","null","html-keyboard-response","6","50386","0.0-4.0-0.1","fixation","","","","",""
"2211.2900000065565","Stimuli/Hangul_E0.bmp","188","image-keyboard-response","7","52600","0.0-4.0-1.1","c1_train",",",",","","",""
"null","<div style=""color:white; font-size:60px;"">+</div>","null","html-keyboard-response","8","53605","0.0-4.0-0.2","fixation","","","","",""
"1740.4000000096858","Stimuli/Hangul_E2.bmp","190","image-keyboard-response","9","55348","0.0-4.0-1.2","c1_train",".",".","","",""
"2425.15500029549","<p style=""color:white;"">Let us begin! Press the space bar when you are ready to start block 1 of 4.</p> ","32","html-keyboard-response","10","57777","0.0-5.0","","","","","",""
"null","<div style=""color:white; font-size:60px;"">+</div>","null","html-keyboard-response","11","60788","0.0-6.0-0.0","fixation","","","","",""
"2012.1349999681115","Stimuli/Hangul_M14.bmp","188","image-keyboard-response","12","62802","0.0-6.0-1.0","test",",","",",","",""
"null","<div style=""color:white; font-size:60px;"">+</div>","null","html-keyboard-response","13","63808","0.0-6.0-0.1","fixation","","","","",""
"1601.9999999552965","Stimuli/Hangul_F10.bmp","190","image-keyboard-response","14","65412","0.0-6.0-1.1","test",".","",".","",""
"null","<div style=""color:white; font-size:60px;"">+</div>","null","html-keyboard-response","15","66415","0.0-6.0-0.2","fixation","","","","",""
"1629.165000282228","Stimuli/Hangul_M18.bmp","188","image-keyboard-response","16","68048","0.0-6.0-1.2","test",",","",",","",""
"null","<div style=""color:white; font-size:60px;"">+</div>","null","html-keyboard-response","17","69054","0.0-6.0-0.3","fixation","","","","",""
"1823.9600001834333","Stimuli/Hangul_M7.bmp","188","image-keyboard-response","18","70880","0.0-6.0-1.3","test",",","",",","",""
"null","<div style=""color:white; font-size:60px;"">+</div>","null","html-keyboard-response","19","71883","0.0-6.0-0.4","fixation","","","","",""
"1574.4150001555681","Stimuli/Hangul_M10.bmp","188","image-keyboard-response","20","73460","0.0-6.0-1.4","test",",","",",","",""
"null","<div style=""color:white; font-size:60px;"">+</div>","null","html-keyboard-response","21","74465","0.0-6.0-0.5","fixation","","","","",""
"1652.6100002229214","Stimuli/Hangul_F4.bmp","190","image-keyboard-response","22","76121","0.0-6.0-1.5","test",".","",".","",""
"null","<div style=""color:white; font-size:60px;"">+</div>","null","html-keyboard-response","23","77124","0.0-6.0-0.6","fixation","","","","",""
"1509.2799998819828","Stimuli/Hangul_M22.bmp","190","image-keyboard-response","24","78694","0.0-6.0-1.6","test",",","",".","",""
"null","<div style=""color:white; font-size:60px;"">+</div>","null","html-keyboard-response","25","79697","0.0-6.0-0.7","fixation","","","","",""
"1606.524999719113","Stimuli/Hangul_F23.bmp","188","image-keyboard-response","26","81306","0.0-6.0-1.7","test",".","",",","",""
"null","<div style=""color:white; font-size:60px;"">+</div>","null","html-keyboard-response","27","82311","0.0-6.0-0.8","fixation","","","","",""
"1660.37999978289","Stimuli/Hangul_F3.bmp","190","image-keyboard-response","28","83975","0.0-6.0-1.8","test",".","",".","",""
"null","<div style=""color:white; font-size:60px;"">+</div>","null","html-keyboard-response","29","84977","0.0-6.0-0.9","fixation","","","","",""
"1714.2300000414252","Stimuli/Hangul_F0.bmp","188","image-keyboard-response","30","86694","0.0-6.0-1.9","test",".","",",","",""
"null","<div style=""color:white; font-size:60px;"">+</div>","null","html-keyboard-response","31","87711","0.0-6.0-0.10","fixation","","","","",""
"1823.99500021711","Stimuli/Hangul_M16.bmp","188","image-keyboard-response","32","89536","0.0-6.0-1.10","test",",","",",","",""
"null","<div style=""color:white; font-size:60px;"">+</div>","null","html-keyboard-response","33","90541","0.0-6.0-0.11","fixation","","","","",""
"1409.880000166595","Stimuli/Hangul_F5.bmp","188","image-keyboard-response","34","91954","0.0-6.0-1.11","test",".","",",","",""
"null","<div style=""color:white; font-size:60px;"">+</div>","null","html-keyboard-response","35","92958","0.0-6.0-0.12","fixation","","","","",""
"1407.7750002034009","Stimuli/Hangul_M9.bmp","190","image-keyboard-response","36","94368","0.0-6.0-1.12","test",",","",".","",""
"null","<div style=""color:white; font-size:60px;"">+</div>","null","html-keyboard-response","37","95373","0.0-6.0-0.13","fixation","","","","",""
"1614.070000126958","Stimuli/Hangul_F20.bmp","190","image-keyboard-response","38","96990","0.0-6.0-1.13","test",".","",".","",""
"null","<div style=""color:white; font-size:60px;"">+</div>","null","html-keyboard-response","39","97993","0.0-6.0-0.14","fixation","","","","",""
"1526.5200003050268","Stimuli/Hangul_M24.bmp","188","image-keyboard-response","40","99520","0.0-6.0-1.14","test",",","",",","",""
"null","<div style=""color:white; font-size:60px;"">+</div>","null","html-keyboard-response","41","100524","0.0-6.0-0.15","fixation","","","","",""
"1612.4299997463822","Stimuli/Hangul_F8.bmp","190","image-keyboard-response","42","102140","0.0-6.0-1.15","test",".","",".","",""
"null","<div style=""color:white; font-size:60px;"">+</div>","null","html-keyboard-response","43","103145","0.0-6.0-0.16","fixation","","","","",""
"1573.460000101477","Stimuli/Hangul_F1.bmp","190","image-keyboard-response","44","104721","0.0-6.0-1.16","test",".","",".","",""
"null","<div style=""color:white; font-size:60px;"">+</div>","null","html-keyboard-response","45","105723","0.0-6.0-0.17","fixation","","","","",""
"1793.1099999696016","Stimuli/Hangul_M20.bmp","190","image-keyboard-response","46","107518","0.0-6.0-1.17","test",",","",".","",""
"null","<div style=""color:white; font-size:60px;"">+</div>","null","html-keyboard-response","47","108522","0.0-6.0-0.18","fixation","","","","",""
"1595.9350001066923","Stimuli/Hangul_M13.bmp","188","image-keyboard-response","48","110123","0.0-6.0-1.18","test",",","",",","",""
"null","<div style=""color:white; font-size:60px;"">+</div>","null","html-keyboard-response","49","111142","0.0-6.0-0.19","fixation","","","","",""
"2029.225000180304","Stimuli/Hangul_F16.bmp","188","image-keyboard-response","50","113173","0.0-6.0-1.19","test",".","",",","",""
"null","<div style=""color:white; font-size:60px;"">+</div>","null","html-keyboard-response","51","114178","0.0-6.0-0.20","fixation","","","","",""
"1646.5499997138977","Stimuli/Hangul_F13.bmp","190","image-keyboard-response","52","115828","0.0-6.0-1.20","test",".","",".","",""
"null","<div style=""color:white; font-size:60px;"">+</div>","null","html-keyboard-response","53","116857","0.0-6.0-0.21","fixation","","","","",""
"1472.210000269115","Stimuli/Hangul_F18.bmp","190","image-keyboard-response","54","118331","0.0-6.0-1.21","test",".","",".","",""
"null","<div style=""color:white; font-size:60px;"">+</div>","null","html-keyboard-response","55","119337","0.0-6.0-0.22","fixation","","","","",""
"1743.5900000855327","Stimuli/Hangul_F9.bmp","190","image-keyboard-response","56","121083","0.0-6.0-1.22","test",".","",".","",""
"null","<div style=""color:white; font-size:60px;"">+</div>","null","html-keyboard-response","57","122087","0.0-6.0-0.23","fixation","","","","",""
"1508.02499987185","Stimuli/Hangul_M23.bmp","190","image-keyboard-response","58","123598","0.0-6.0-1.23","test",",","",".","",""
"null","<div style=""color:white; font-size:60px;"">+</div>","null","html-keyboard-response","59","124601","0.0-6.0-0.24","fixation","","","","",""
"1673.390000127256","Stimuli/Hangul_M21.bmp","188","image-keyboard-response","60","126278","0.0-6.0-1.24","test",",","",",","",""
"null","<div style=""color:white; font-size:60px;"">+</div>","null","html-keyboard-response","61","127284","0.0-6.0-0.25","fixation","","","","",""
"1505.6099998764694","Stimuli/Hangul_M19.bmp","188","image-keyboard-response","62","128791","0.0-6.0-1.25","test",",","",",","",""
"null","<div style=""color:white; font-size:60px;"">+</div>","null","html-keyboard-response","63","129801","0.0-6.0-0.26","fixation","","","","",""
"1731.0550003312528","Stimuli/Hangul_M2.bmp","190","image-keyboard-response","64","131534","0.0-6.0-1.26","test",",","",".","",""
"null","<div style=""color:white; font-size:60px;"">+</div>","null","html-keyboard-response","65","132538","0.0-6.0-0.27","fixation","","","","",""
"2621.1500000208616","Stimuli/Hangul_F2.bmp","190","image-keyboard-response","66","135163","0.0-6.0-1.27","test",".","",".","",""
"null","<div style=""color:white; font-size:60px;"">+</div>","null","html-keyboard-response","67","136169","0.0-6.0-0.28","fixation","","","","",""
"1604.594999924302","Stimuli/Hangul_M3.bmp","190","image-keyboard-response","68","137776","0.0-6.0-1.28","test",",","",".","",""
"null","<div style=""color:white; font-size:60px;"">+</div>","null","html-keyboard-response","69","138787","0.0-6.0-0.29","fixation","","","","",""
"1631.8500000052154","Stimuli/Hangul_M4.bmp","188","image-keyboard-response","70","140422","0.0-6.0-1.29","test",",","",",","",""
"null","<div style=""color:white; font-size:60px;"">+</div>","null","html-keyboard-response","71","141423","0.0-6.0-0.30","fixation","","","","",""
"1597.0750004053116","Stimuli/Hangul_M5.bmp","188","image-keyboard-response","72","143022","0.0-6.0-1.30","test",",","",",","",""
"null","<div style=""color:white; font-size:60px;"">+</div>","null","html-keyboard-response","73","144028","0.0-6.0-0.31","fixation","","","","",""
"1751.510000322014","Stimuli/Hangul_F15.bmp","188","image-keyboard-response","74","145781","0.0-6.0-1.31","test",".","",",","",""
"null","<div style=""color:white; font-size:60px;"">+</div>","null","html-keyboard-response","75","146784","0.0-6.0-0.32","fixation","","","","",""
"1480.3499998524785","Stimuli/Hangul_M11.bmp","188","image-keyboard-response","76","148267","0.0-6.0-1.32","test",",","",",","",""
"null","<div style=""color:white; font-size:60px;"">+</div>","null","html-keyboard-response","77","149273","0.0-6.0-0.33","fixation","","","","",""
"1688.395000062883","Stimuli/Hangul_M17.bmp","188","image-keyboard-response","78","150963","0.0-6.0-1.33","test",",","",",","",""
"null","<div style=""color:white; font-size:60px;"">+</div>","null","html-keyboard-response","79","151970","0.0-6.0-0.34","fixation","","","","",""
"1674.1249999031425","Stimuli/Hangul_F12.bmp","190","image-keyboard-response","80","153646","0.0-6.0-1.34","test",".","",".","",""
"null","<div style=""color:white; font-size:60px;"">+</div>","null","html-keyboard-response","81","154649","0.0-6.0-0.35","fixation","","","","",""
"1674.7599998489022","Stimuli/Hangul_M1.bmp","190","image-keyboard-response","82","156327","0.0-6.0-1.35","test",",","",".","",""
"null","<div style=""color:white; font-size:60px;"">+</div>","null","html-keyboard-response","83","157330","0.0-6.0-0.36","fixation","","","","",""
"2203.8150001317263","Stimuli/Hangul_M15.bmp","188","image-keyboard-response","84","159536","0.0-6.0-1.36","test",",","",",","",""
"null","<div style=""color:white; font-size:60px;"">+</div>","null","html-keyboard-response","85","160548","0.0-6.0-0.37","fixation","","","","",""
"1535.500000230968","Stimuli/Hangul_F14.bmp","190","image-keyboard-response","86","162087","0.0-6.0-1.37","test",".","",".","",""
"null","<div style=""color:white; font-size:60px;"">+</div>","null","html-keyboard-response","87","163089","0.0-6.0-0.38","fixation","","","","",""
"1606.5000002272427","Stimuli/Hangul_F22.bmp","188","image-keyboard-response","88","164698","0.0-6.0-1.38","test",".","",",","",""
"null","<div style=""color:white; font-size:60px;"">+</div>","null","html-keyboard-response","89","165700","0.0-6.0-0.39","fixation","","","","",""
"1832.2349996306002","Stimuli/Hangul_F6.bmp","190","image-keyboard-response","90","167534","0.0-6.0-1.39","test",".","",".","",""
"null","<div style=""color:white; font-size:60px;"">+</div>","null","html-keyboard-response","91","168539","0.0-6.0-0.40","fixation","","","","",""
"1500.4900000058115","Stimuli/Hangul_F21.bmp","190","image-keyboard-response","92","170043","0.0-6.0-1.40","test",".","",".","",""
"null","<div style=""color:white; font-size:60px;"">+</div>","null","html-keyboard-response","93","171047","0.0-6.0-0.41","fixation","","","","",""
"1567.8500002250075","Stimuli/Hangul_M6.bmp","188","image-keyboard-response","94","172617","0.0-6.0-1.41","test",",","",",","",""
"null","<div style=""color:white; font-size:60px;"">+</div>","null","html-keyboard-response","95","173627","0.0-6.0-0.42","fixation","","","","",""
"1608.9049996808171","Stimuli/Hangul_M8.bmp","190","image-keyboard-response","96","175237","0.0-6.0-1.42","test",",","",".","",""
"null","<div style=""color:white; font-size:60px;"">+</div>","null","html-keyboard-response","97","176241","0.0-6.0-0.43","fixation","","","","",""
"1552.1499998867512","Stimuli/Hangul_M12.bmp","188","image-keyboard-response","98","177798","0.0-6.0-1.43","test",",","",",","",""
"null","<div style=""color:white; font-size:60px;"">+</div>","null","html-keyboard-response","99","178803","0.0-6.0-0.44","fixation","","","","",""
"1746.7849999666214","Stimuli/Hangul_F7.bmp","188","image-keyboard-response","100","180552","0.0-6.0-1.44","test",".","",",","",""
"null","<div style=""color:white; font-size:60px;"">+</div>","null","html-keyboard-response","101","181554","0.0-6.0-0.45","fixation","","","","",""
"1649.9350001104176","Stimuli/Hangul_F17.bmp","190","image-keyboard-response","102","183206","0.0-6.0-1.45","test",".","",".","",""
"null","<div style=""color:white; font-size:60px;"">+</div>","null","html-keyboard-response","103","184212","0.0-6.0-0.46","fixation","","","","",""
"1921.1050001904368","Stimuli/Hangul_F19.bmp","190","image-keyboard-response","104","186135","0.0-6.0-1.46","test",".","",".","",""
"null","<div style=""color:white; font-size:60px;"">+</div>","null","html-keyboard-response","105","187141","0.0-6.0-0.47","fixation","","","","",""
"1675.9250001050532","Stimuli/Hangul_F24.bmp","188","image-keyboard-response","106","188821","0.0-6.0-1.47","test",".","",",","",""
"null","<div style=""color:white; font-size:60px;"">+</div>","null","html-keyboard-response","107","189828","0.0-6.0-0.48","fixation","","","","",""
"2000.079999677837","Stimuli/Hangul_F11.bmp","188","image-keyboard-response","108","191830","0.0-6.0-1.48","test",".","",",","",""
"null","<div style=""color:white; font-size:60px;"">+</div>","null","html-keyboard-response","109","192835","0.0-6.0-0.49","fixation","","","","",""
"1829.8650002107024","Stimuli/Hangul_M0.bmp","190","image-keyboard-response","110","194668","0.0-6.0-1.49","test",",","",".","",""
"1802.265000063926","<p style=""color:white;"">Good job, block 1 complete! Please take a moment to rest.</p> <p style=""color:white;"">When you are ready to continue with block 2 of 4, press the space bar.</p> ","32","html-keyboard-response","111","196473","0.0-7.0","","","","","",""
"null","<div style=""color:white; font-size:60px;"">+</div>","null","html-keyboard-response","112","199481","0.0-8.0-0.0","fixation","","","","",""
"1784.2149999924004","Stimuli/Hangul_F35.bmp","190","image-keyboard-response","113","201269","0.0-8.0-1.0","test",".","",".","",""
"null","<div style=""color:white; font-size:60px;"">+</div>","null","html-keyboard-response","114","202271","0.0-8.0-0.1","fixation","","","","",""
"1573.9349997602403","Stimuli/Hangul_F48.bmp","188","image-keyboard-response","115","203847","0.0-8.0-1.1","test",".","",",","",""
"null","<div style=""color:white; font-size:60px;"">+</div>","null","html-keyboard-response","116","204852","0.0-8.0-0.2","fixation","","","","",""
"1928.6799998953938","Stimuli/Hangul_M42.bmp","188","image-keyboard-response","117","206783","0.0-8.0-1.2","test",",","",",","",""
"null","<div style=""color:white; font-size:60px;"">+</div>","null","html-keyboard-response","118","207798","0.0-8.0-0.3","fixation","","","","",""
"2057.0499999448657","Stimuli/Hangul_F36.bmp","190","image-keyboard-response","119","209859","0.0-8.0-1.3","test",".","",".","",""
"null","<div style=""color:white; font-size:60px;"">+</div>","null","html-keyboard-response","120","210864","0.0-8.0-0.4","fixation","","","","",""
"1954.0049997158349","Stimuli/Hangul_M48.bmp","188","image-keyboard-response","121","212822","0.0-8.0-1.4","test",",","",",","",""
"null","<div style=""color:white; font-size:60px;"">+</div>","null","html-keyboard-response","122","213825","0.0-8.0-0.5","fixation","","","","",""
"1741.5050002746284","Stimuli/Hangul_M30.bmp","188","image-keyboard-response","123","215616","0.0-8.0-1.5","test",",","",",","",""
"null","<div style=""color:white; font-size:60px;"">+</div>","null","html-keyboard-response","124","216623","0.0-8.0-0.6","fixation","","","","",""
"1915.9249998629093","Stimuli/Hangul_F41.bmp","190","image-keyboard-response","125","218541","0.0-8.0-1.6","test",".","",".","",""
"null","<div style=""color:white; font-size:60px;"">+</div>","null","html-keyboard-response","126","219544","0.0-8.0-0.7","fixation","","","","",""
"1869.5200001820922","Stimuli/Hangul_M41.bmp","190","image-keyboard-response","127","221416","0.0-8.0-1.7","test",",","",".","",""
"null","<div style=""color:white; font-size:60px;"">+</div>","null","html-keyboard-response","128","222419","0.0-8.0-0.8","fixation","","","","",""
"1772.3350003361702","Stimuli/Hangul_F45.bmp","190","image-keyboard-response","129","224194","0.0-8.0-1.8","test",".","",".","",""
"null","<div style=""color:white; font-size:60px;"">+</div>","null","html-keyboard-response","130","225197","0.0-8.0-0.9","fixation","","","","",""
"1847.994999960065","Stimuli/Hangul_F26.bmp","188","image-keyboard-response","131","227047","0.0-8.0-1.9","test",".","",",","",""
"null","<div style=""color:white; font-size:60px;"">+</div>","null","html-keyboard-response","132","228058","0.0-8.0-0.10","fixation","","","","",""
"1749.64000005275","Stimuli/Hangul_F27.bmp","190","image-keyboard-response","133","229811","0.0-8.0-1.10","test",".","",".","",""
"null","<div style=""color:white; font-size:60px;"">+</div>","null","html-keyboard-response","134","230813","0.0-8.0-0.11","fixation","","","","",""
"1710.115000139922","Stimuli/Hangul_F43.bmp","188","image-keyboard-response","135","232525","0.0-8.0-1.11","test",".","",",","",""
"null","<div style=""color:white; font-size:60px;"">+</div>","null","html-keyboard-response","136","233529","0.0-8.0-0.12","fixation","","","","",""
"1734.6050003543496","Stimuli/Hangul_M34.bmp","190","image-keyboard-response","137","235266","0.0-8.0-1.12","test",",","",".","",""
"null","<div style=""color:white; font-size:60px;"">+</div>","null","html-keyboard-response","138","236269","0.0-8.0-0.13","fixation","","","","",""
"1671.0999999195337","Stimuli/Hangul_F47.bmp","188","image-keyboard-response","139","237943","0.0-8.0-1.13","test",".","",",","",""
"null","<div style=""color:white; font-size:60px;"">+</div>","null","html-keyboard-response","140","238945","0.0-8.0-0.14","fixation","","","","",""
"1696.0200001485646","Stimuli/Hangul_M45.bmp","188","image-keyboard-response","141","240643","0.0-8.0-1.14","test",",","",",","",""
"null","<div style=""color:white; font-size:60px;"">+</div>","null","html-keyboard-response","142","241648","0.0-8.0-0.15","fixation","","","","",""
"1738.5950000025332","Stimuli/Hangul_M47.bmp","188","image-keyboard-response","143","243390","0.0-8.0-1.15","test",",","",",","",""
"null","<div style=""color:white; font-size:60px;"">+</div>","null","html-keyboard-response","144","244399","0.0-8.0-0.16","fixation","","","","",""
"1710.3650001809","Stimuli/Hangul_M36.bmp","188","image-keyboard-response","145","246111","0.0-8.0-1.16","test",",","",",","",""
"null","<div style=""color:white; font-size:60px;"">+</div>","null","html-keyboard-response","146","247114","0.0-8.0-0.17","fixation","","","","",""
"1742.3749999143183","Stimuli/Hangul_M29.bmp","188","image-keyboard-response","147","248858","0.0-8.0-1.17","test",",","",",","",""
"null","<div style=""color:white; font-size:60px;"">+</div>","null","html-keyboard-response","148","249864","0.0-8.0-0.18","fixation","","","","",""
"1656.1799999326468","Stimuli/Hangul_M39.bmp","190","image-keyboard-response","149","251523","0.0-8.0-1.18","test",",","",".","",""
"null","<div style=""color:white; font-size:60px;"">+</div>","null","html-keyboard-response","150","252530","0.0-8.0-0.19","fixation","","","","",""
"1944.5099998265505","Stimuli/Hangul_M27.bmp","188","image-keyboard-response","151","254477","0.0-8.0-1.19","test",",","",",","",""
"null","<div style=""color:white; font-size:60px;"">+</div>","null","html-keyboard-response","152","255482","0.0-8.0-0.20","fixation","","","","",""
"1869.7500000707805","Stimuli/Hangul_F34.bmp","190","image-keyboard-response","153","257354","0.0-8.0-1.20","test",".","",".","",""
"null","<div style=""color:white; font-size:60px;"">+</div>","null","html-keyboard-response","154","258359","0.0-8.0-0.21","fixation","","","","",""
"1725.5750000476837","Stimuli/Hangul_F42.bmp","190","image-keyboard-response","155","260088","0.0-8.0-1.21","test",".","",".","",""
"null","<div style=""color:white; font-size:60px;"">+</div>","null","html-keyboard-response","156","261099","0.0-8.0-0.22","fixation","","","","",""
"1748.749999795109","Stimuli/Hangul_F30.bmp","188","image-keyboard-response","157","262850","0.0-8.0-1.22","test",".","",",","",""
"null","<div style=""color:white; font-size:60px;"">+</div>","null","html-keyboard-response","158","263857","0.0-8.0-0.23","fixation","","","","",""
"1672.5150002166629","Stimuli/Hangul_M43.bmp","188","image-keyboard-response","159","265533","0.0-8.0-1.23","test",",","",",","",""
"null","<div style=""color:white; font-size:60px;"">+</div>","null","html-keyboard-response","160","266536","0.0-8.0-0.24","fixation","","","","",""
"1877.5349999777973","Stimuli/Hangul_F40.bmp","188","image-keyboard-response","161","268416","0.0-8.0-1.24","test",".","",",","",""
"null","<div style=""color:white; font-size:60px;"">+</div>","null","html-keyboard-response","162","269419","0.0-8.0-0.25","fixation","","","","",""
"1588.174999691546","Stimuli/Hangul_M25.bmp","188","image-keyboard-response","163","271009","0.0-8.0-1.25","test",",","",",","",""
"null","<div style=""color:white; font-size:60px;"">+</div>","null","html-keyboard-response","164","272012","0.0-8.0-0.26","fixation","","","","",""
"1690.659999847412","Stimuli/Hangul_M31.bmp","188","image-keyboard-response","165","273705","0.0-8.0-1.26","test",",","",",","",""
"null","<div style=""color:white; font-size:60px;"">+</div>","null","html-keyboard-response","166","274707","0.0-8.0-0.27","fixation","","","","",""
"1789.8599999025464","Stimuli/Hangul_M26.bmp","188","image-keyboard-response","167","276499","0.0-8.0-1.27","test",",","",",","",""
"null","<div style=""color:white; font-size:60px;"">+</div>","null","html-keyboard-response","168","277505","0.0-8.0-0.28","fixation","","","","",""
"1710.0299997255206","Stimuli/Hangul_F33.bmp","190","image-keyboard-response","169","279217","0.0-8.0-1.28","test",".","",".","",""
"null","<div style=""color:white; font-size:60px;"">+</div>","null","html-keyboard-response","170","280220","0.0-8.0-0.29","fixation","","","","",""
"1696.0350000299513","Stimuli/Hangul_M28.bmp","188","image-keyboard-response","171","281918","0.0-8.0-1.29","test",",","",",","",""
"null","<div style=""color:white; font-size:60px;"">+</div>","null","html-keyboard-response","172","282923","0.0-8.0-0.30","fixation","","","","",""
"1728.9200001396239","Stimuli/Hangul_F46.bmp","188","image-keyboard-response","173","284654","0.0-8.0-1.30","test",".","",",","",""
"null","<div style=""color:white; font-size:60px;"">+</div>","null","html-keyboard-response","174","285658","0.0-8.0-0.31","fixation","","","","",""
"1799.9150003306568","Stimuli/Hangul_M35.bmp","190","image-keyboard-response","175","287462","0.0-8.0-1.31","test",",","",".","",""
"null","<div style=""color:white; font-size:60px;"">+</div>","null","html-keyboard-response","176","288467","0.0-8.0-0.32","fixation","","","","",""
"1859.5850002020597","Stimuli/Hangul_M46.bmp","188","image-keyboard-response","177","290329","0.0-8.0-1.32","test",",","",",","",""
"null","<div style=""color:white; font-size:60px;"">+</div>","null","html-keyboard-response","178","291333","0.0-8.0-0.33","fixation","","","","",""
"1786.650000140071","Stimuli/Hangul_M44.bmp","188","image-keyboard-response","179","293122","0.0-8.0-1.33","test",",","",",","",""
"null","<div style=""color:white; font-size:60px;"">+</div>","null","html-keyboard-response","180","294128","0.0-8.0-0.34","fixation","","","","",""
"1749.4600000791252","Stimuli/Hangul_M37.bmp","188","image-keyboard-response","181","295880","0.0-8.0-1.34","test",",","",",","",""
"null","<div style=""color:white; font-size:60px;"">+</div>","null","html-keyboard-response","182","296885","0.0-8.0-0.35","fixation","","","","",""
"1679.6849998645484","Stimuli/Hangul_F38.bmp","188","image-keyboard-response","183","298567","0.0-8.0-1.35","test",".","",",","",""
"null","<div style=""color:white; font-size:60px;"">+</div>","null","html-keyboard-response","184","299574","0.0-8.0-0.36","fixation","","","","",""
"1668.8849995844066","Stimuli/Hangul_F44.bmp","188","image-keyboard-response","185","301245","0.0-8.0-1.36","test",".","",",","",""
"null","<div style=""color:white; font-size:60px;"">+</div>","null","html-keyboard-response","186","302249","0.0-8.0-0.37","fixation","","","","",""
"1808.2400001585484","Stimuli/Hangul_M38.bmp","190","image-keyboard-response","187","304061","0.0-8.0-1.37","test",",","",".","",""
"null","<div style=""color:white; font-size:60px;"">+</div>","null","html-keyboard-response","188","305063","0.0-8.0-0.38","fixation","","","","",""
"1855.1650000736117","Stimuli/Hangul_M33.bmp","188","image-keyboard-response","189","306921","0.0-8.0-1.38","test",",","",",","",""
"null","<div style=""color:white; font-size:60px;"">+</div>","null","html-keyboard-response","190","307923","0.0-8.0-0.39","fixation","","","","",""
"1692.9449997842312","Stimuli/Hangul_F39.bmp","190","image-keyboard-response","191","309620","0.0-8.0-1.39","test",".","",".","",""
"null","<div style=""color:white; font-size:60px;"">+</div>","null","html-keyboard-response","192","310623","0.0-8.0-0.40","fixation","","","","",""
"2171.8349996954203","Stimuli/Hangul_F25.bmp","188","image-keyboard-response","193","312797","0.0-8.0-1.40","test",".","",",","",""
"null","<div style=""color:white; font-size:60px;"">+</div>","null","html-keyboard-response","194","313805","0.0-8.0-0.41","fixation","","","","",""
"1753.8499999791384","Stimuli/Hangul_F37.bmp","188","image-keyboard-response","195","315561","0.0-8.0-1.41","test",".","",",","",""
"null","<div style=""color:white; font-size:60px;"">+</div>","null","html-keyboard-response","196","316565","0.0-8.0-0.42","fixation","","","","",""
"1865.2800000272691","Stimuli/Hangul_F29.bmp","190","image-keyboard-response","197","318432","0.0-8.0-1.42","test",".","",".","",""
"null","<div style=""color:white; font-size:60px;"">+</div>","null","html-keyboard-response","198","319438","0.0-8.0-0.43","fixation","","","","",""
"2069.7099999524653","Stimuli/Hangul_F49.bmp","188","image-keyboard-response","199","321510","0.0-8.0-1.43","test",".","",",","",""
"null","<div style=""color:white; font-size:60px;"">+</div>","null","html-keyboard-response","200","322514","0.0-8.0-0.44","fixation","","","","",""
"2338.2149999961257","Stimuli/Hangul_M49.bmp","188","image-keyboard-response","201","324856","0.0-8.0-1.44","test",",","",",","",""
"null","<div style=""color:white; font-size:60px;"">+</div>","null","html-keyboard-response","202","325859","0.0-8.0-0.45","fixation","","","","",""
"2116.939999628812","Stimuli/Hangul_M40.bmp","188","image-keyboard-response","203","327978","0.0-8.0-1.45","test",",","",",","",""
"null","<div style=""color:white; font-size:60px;"">+</div>","null","html-keyboard-response","204","328984","0.0-8.0-0.46","fixation","","","","",""
"1770.0299997814","Stimuli/Hangul_F31.bmp","190","image-keyboard-response","205","330756","0.0-8.0-1.46","test",".","",".","",""
"null","<div style=""color:white; font-size:60px;"">+</div>","null","html-keyboard-response","206","331760","0.0-8.0-0.47","fixation","","","","",""
"2031.0349999926984","Stimuli/Hangul_F28.bmp","190","image-keyboard-response","207","333794","0.0-8.0-1.47","test",".","",".","",""
"null","<div style=""color:white; font-size:60px;"">+</div>","null","html-keyboard-response","208","334797","0.0-8.0-0.48","fixation","","","","",""
"2167.2600000165403","Stimuli/Hangul_M32.bmp","188","image-keyboard-response","209","336966","0.0-8.0-1.48","test",",","",",","",""
"null","<div style=""color:white; font-size:60px;"">+</div>","null","html-keyboard-response","210","337970","0.0-8.0-0.49","fixation","","","","",""
"2050.91999983415","Stimuli/Hangul_F32.bmp","190","image-keyboard-response","211","340025","0.0-8.0-1.49","test",".","",".","",""
"2186.465000268072","<p style=""color:white;"">Half way there! Please take a moment to rest.</p> <p style=""color:white;"">When you are ready to continue with block 3 of 4, press the space bar.</p> ","32","html-keyboard-response","212","342212","0.0-9.0","","","","","",""
"null","<div style=""color:white; font-size:60px;"">+</div>","null","html-keyboard-response","213","345273","0.0-10.0-0.0","fixation","","","","",""
"1813.9349999837577","Stimuli/Hangul_F55.bmp","188","image-keyboard-response","214","347090","0.0-10.0-1.0","test",".","",",","",""
"null","<div style=""color:white; font-size:60px;"">+</div>","null","html-keyboard-response","215","348094","0.0-10.0-0.1","fixation","","","","",""
"1844.020000193268","Stimuli/Hangul_M59.bmp","190","image-keyboard-response","216","349940","0.0-10.0-1.1","test",",","",".","",""
"null","<div style=""color:white; font-size:60px;"">+</div>","null","html-keyboard-response","217","350947","0.0-10.0-0.2","fixation","","","","",""
"1626.0250001214445","Stimuli/Hangul_M54.bmp","190","image-keyboard-response","218","352575","0.0-10.0-1.2","test",",","",".","",""
"null","<div style=""color:white; font-size:60px;"">+</div>","null","html-keyboard-response","219","353580","0.0-10.0-0.3","fixation","","","","",""
"2059.9949997849762","Stimuli/Hangul_M72.bmp","188","image-keyboard-response","220","355643","0.0-10.0-1.3","test",",","",",","",""
"null","<div style=""color:white; font-size:60px;"">+</div>","null","html-keyboard-response","221","356649","0.0-10.0-0.4","fixation","","","","",""
"2328.1849999912083","Stimuli/Hangul_M74.bmp","188","image-keyboard-response","222","358979","0.0-10.0-1.4","test",",","",",","",""
"null","<div style=""color:white; font-size:60px;"">+</div>","null","html-keyboard-response","223","359981","0.0-10.0-0.5","fixation","","","","",""
"2597.910000011325","Stimuli/Hangul_M58.bmp","188","image-keyboard-response","224","362581","0.0-10.0-1.5","test",",","",",","",""
"null","<div style=""color:white; font-size:60px;"">+</div>","null","html-keyboard-response","225","363584","0.0-10.0-0.6","fixation","","","","",""
"2212.1349996887147","Stimuli/Hangul_F61.bmp","188","image-keyboard-response","226","365800","0.0-10.0-1.6","test",".","",",","",""
"null","<div style=""color:white; font-size:60px;"">+</div>","null","html-keyboard-response","227","366806","0.0-10.0-0.7","fixation","","","","",""
"1975.2400000579655","Stimuli/Hangul_F59.bmp","190","image-keyboard-response","228","368783","0.0-10.0-1.7","test",".","",".","",""
"null","<div style=""color:white; font-size:60px;"">+</div>","null","html-keyboard-response","229","369787","0.0-10.0-0.8","fixation","","","","",""
"1470.065000001341","Stimuli/Hangul_F73.bmp","190","image-keyboard-response","230","371261","0.0-10.0-1.8","test",".","",".","",""
"null","<div style=""color:white; font-size:60px;"">+</div>","null","html-keyboard-response","231","372266","0.0-10.0-0.9","fixation","","","","",""
"2470.954999793321","Stimuli/Hangul_F52.bmp","188","image-keyboard-response","232","374739","0.0-10.0-1.9","test",".","",",","",""
"null","<div style=""color:white; font-size:60px;"">+</div>","null","html-keyboard-response","233","375742","0.0-10.0-0.10","fixation","","","","",""
"1778.8749998435378","Stimuli/Hangul_F70.bmp","190","image-keyboard-response","234","377524","0.0-10.0-1.10","test",".","",".","",""
"null","<div style=""color:white; font-size:60px;"">+</div>","null","html-keyboard-response","235","378530","0.0-10.0-0.11","fixation","","","","",""
"2216.6699999943376","Stimuli/Hangul_F58.bmp","190","image-keyboard-response","236","380749","0.0-10.0-1.11","test",".","",".","",""
"null","<div style=""color:white; font-size:60px;"">+</div>","null","html-keyboard-response","237","381761","0.0-10.0-0.12","fixation","","","","",""
"2455.6750003248453","Stimuli/Hangul_F62.bmp","188","image-keyboard-response","238","384220","0.0-10.0-1.12","test",".","",",","",""
"null","<div style=""color:white; font-size:60px;"">+</div>","null","html-keyboard-response","239","385224","0.0-10.0-0.13","fixation","","","","",""
"2107.259999960661","Stimuli/Hangul_M64.bmp","190","image-keyboard-response","240","387334","0.0-10.0-1.13","test",",","",".","",""
"null","<div style=""color:white; font-size:60px;"">+</div>","null","html-keyboard-response","241","388340","0.0-10.0-0.14","fixation","","","","",""
"2791.0150000825524","Stimuli/Hangul_F72.bmp","188","image-keyboard-response","242","391134","0.0-10.0-1.14","test",".","",",","",""
"null","<div style=""color:white; font-size:60px;"">+</div>","null","html-keyboard-response","243","392139","0.0-10.0-0.15","fixation","","","","",""
"2236.564999911934","Stimuli/Hangul_F50.bmp","190","image-keyboard-response","244","394381","0.0-10.0-1.15","test",".","",".","",""
"null","<div style=""color:white; font-size:60px;"">+</div>","null","html-keyboard-response","245","395384","0.0-10.0-0.16","fixation","","","","",""
"1866.0500003024936","Stimuli/Hangul_F64.bmp","190","image-keyboard-response","246","397253","0.0-10.0-1.16","test",".","",".","",""
"null","<div style=""color:white; font-size:60px;"">+</div>","null","html-keyboard-response","247","398266","0.0-10.0-0.17","fixation","","","","",""
"2712.3149996623397","Stimuli/Hangul_F68.bmp","188","image-keyboard-response","248","400980","0.0-10.0-1.17","test",".","",",","",""
"null","<div style=""color:white; font-size:60px;"">+</div>","null","html-keyboard-response","249","401985","0.0-10.0-0.18","fixation","","","","",""
"3114.0200002118945","Stimuli/Hangul_M62.bmp","188","image-keyboard-response","250","405104","0.0-10.0-1.18","test",",","",",","",""
"null","<div style=""color:white; font-size:60px;"">+</div>","null","html-keyboard-response","251","406107","0.0-10.0-0.19","fixation","","","","",""
"2936.8450003676116","Stimuli/Hangul_F54.bmp","188","image-keyboard-response","252","409048","0.0-10.0-1.19","test",".","",",","",""
"null","<div style=""color:white; font-size:60px;"">+</div>","null","html-keyboard-response","253","410050","0.0-10.0-0.20","fixation","","","","",""
"2786.9600001722574","Stimuli/Hangul_F51.bmp","190","image-keyboard-response","254","412841","0.0-10.0-1.20","test",".","",".","",""
"null","<div style=""color:white; font-size:60px;"">+</div>","null","html-keyboard-response","255","413845","0.0-10.0-0.21","fixation","","","","",""
"1861.6650002077222","Stimuli/Hangul_F60.bmp","190","image-keyboard-response","256","415709","0.0-10.0-1.21","test",".","",".","",""
"null","<div style=""color:white; font-size:60px;"">+</div>","null","html-keyboard-response","257","416713","0.0-10.0-0.22","fixation","","","","",""
"3055.980000179261","Stimuli/Hangul_M66.bmp","188","image-keyboard-response","258","419771","0.0-10.0-1.22","test",",","",",","",""
"null","<div style=""color:white; font-size:60px;"">+</div>","null","html-keyboard-response","259","420776","0.0-10.0-0.23","fixation","","","","",""
"2564.5800000056624","Stimuli/Hangul_F63.bmp","188","image-keyboard-response","260","423344","0.0-10.0-1.23","test",".","",",","",""
"null","<div style=""color:white; font-size:60px;"">+</div>","null","html-keyboard-response","261","424350","0.0-10.0-0.24","fixation","","","","",""
"2355.0249999389052","Stimuli/Hangul_M51.bmp","188","image-keyboard-response","262","426708","0.0-10.0-1.24","test",",","",",","",""
"null","<div style=""color:white; font-size:60px;"">+</div>","null","html-keyboard-response","263","427712","0.0-10.0-0.25","fixation","","","","",""
"2498.9049998112023","Stimuli/Hangul_F56.bmp","190","image-keyboard-response","264","430215","0.0-10.0-1.25","test",".","",".","",""
"null","<div style=""color:white; font-size:60px;"">+</div>","null","html-keyboard-response","265","431219","0.0-10.0-0.26","fixation","","","","",""
"2582.1350002661347","Stimuli/Hangul_M71.bmp","188","image-keyboard-response","266","433803","0.0-10.0-1.26","test",",","",",","",""
"null","<div style=""color:white; font-size:60px;"">+</div>","null","html-keyboard-response","267","434815","0.0-10.0-0.27","fixation","","","","",""
"1481.3399999402463","Stimuli/Hangul_M61.bmp","188","image-keyboard-response","268","436300","0.0-10.0-1.27","test",",","",",","",""
"null","<div style=""color:white; font-size:60px;"">+</div>","null","html-keyboard-response","269","437305","0.0-10.0-0.28","fixation","","","","",""
"2828.664999920875","Stimuli/Hangul_M63.bmp","188","image-keyboard-response","270","440136","0.0-10.0-1.28","test",",","",",","",""
"null","<div style=""color:white; font-size:60px;"">+</div>","null","html-keyboard-response","271","441138","0.0-10.0-0.29","fixation","","","","",""
"3210.969999898225","Stimuli/Hangul_M55.bmp","188","image-keyboard-response","272","444353","0.0-10.0-1.29","test",",","",",","",""
"null","<div style=""color:white; font-size:60px;"">+</div>","null","html-keyboard-response","273","445358","0.0-10.0-0.30","fixation","","","","",""
"2067.2999997623265","Stimuli/Hangul_M67.bmp","190","image-keyboard-response","274","447431","0.0-10.0-1.30","test",",","",".","",""
"null","<div style=""color:white; font-size:60px;"">+</div>","null","html-keyboard-response","275","448445","0.0-10.0-0.31","fixation","","","","",""
"1782.1800000965595","Stimuli/Hangul_F69.bmp","190","image-keyboard-response","276","450231","0.0-10.0-1.31","test",".","",".","",""
"null","<div style=""color:white; font-size:60px;"">+</div>","null","html-keyboard-response","277","451237","0.0-10.0-0.32","fixation","","","","",""
"1528.0149998143315","Stimuli/Hangul_M52.bmp","188","image-keyboard-response","278","452767","0.0-10.0-1.32","test",",","",",","",""
"null","<div style=""color:white; font-size:60px;"">+</div>","null","html-keyboard-response","279","453770","0.0-10.0-0.33","fixation","","","","",""
"2621.0749996826053","Stimuli/Hangul_M73.bmp","188","image-keyboard-response","280","456395","0.0-10.0-1.33","test",",","",",","",""
"null","<div style=""color:white; font-size:60px;"">+</div>","null","html-keyboard-response","281","457399","0.0-10.0-0.34","fixation","","","","",""
"2868.2550000958145","Stimuli/Hangul_F66.bmp","190","image-keyboard-response","282","460269","0.0-10.0-1.34","test",".","",".","",""
"null","<div style=""color:white; font-size:60px;"">+</div>","null","html-keyboard-response","283","461272","0.0-10.0-0.35","fixation","","","","",""
"2516.3050000555813","Stimuli/Hangul_F71.bmp","190","image-keyboard-response","284","463790","0.0-10.0-1.35","test",".","",".","",""
"null","<div style=""color:white; font-size:60px;"">+</div>","null","html-keyboard-response","285","464796","0.0-10.0-0.36","fixation","","","","",""
"1920.2700001187623","Stimuli/Hangul_M70.bmp","190","image-keyboard-response","286","466720","0.0-10.0-1.36","test",",","",".","",""
"null","<div style=""color:white; font-size:60px;"">+</div>","null","html-keyboard-response","287","467721","0.0-10.0-0.37","fixation","","","","",""
"2542.034999933094","Stimuli/Hangul_M69.bmp","188","image-keyboard-response","288","470267","0.0-10.0-1.37","test",",","",",","",""
"null","<div style=""color:white; font-size:60px;"">+</div>","null","html-keyboard-response","289","471269","0.0-10.0-0.38","fixation","","","","",""
"2132.07000028342","Stimuli/Hangul_F57.bmp","188","image-keyboard-response","290","473403","0.0-10.0-1.38","test",".","",",","",""
"null","<div style=""color:white; font-size:60px;"">+</div>","null","html-keyboard-response","291","474407","0.0-10.0-0.39","fixation","","","","",""
"2612.8700003027916","Stimuli/Hangul_F67.bmp","188","image-keyboard-response","292","477023","0.0-10.0-1.39","test",".","",",","",""
"null","<div style=""color:white; font-size:60px;"">+</div>","null","html-keyboard-response","293","478028","0.0-10.0-0.40","fixation","","","","",""
"1905.0050000660121","Stimuli/Hangul_F65.bmp","190","image-keyboard-response","294","479936","0.0-10.0-1.40","test",".","",".","",""
"null","<div style=""color:white; font-size:60px;"">+</div>","null","html-keyboard-response","295","480941","0.0-10.0-0.41","fixation","","","","",""
"2147.9250001721084","Stimuli/Hangul_M50.bmp","190","image-keyboard-response","296","483091","0.0-10.0-1.41","test",",","",".","",""
"null","<div style=""color:white; font-size:60px;"">+</div>","null","html-keyboard-response","297","484096","0.0-10.0-0.42","fixation","","","","",""
"1897.445000242442","Stimuli/Hangul_M65.bmp","188","image-keyboard-response","298","485997","0.0-10.0-1.42","test",",","",",","",""
"null","<div style=""color:white; font-size:60px;"">+</div>","null","html-keyboard-response","299","487000","0.0-10.0-0.43","fixation","","","","",""
"2037.2350001707673","Stimuli/Hangul_M57.bmp","188","image-keyboard-response","300","489040","0.0-10.0-1.43","test",",","",",","",""
"null","<div style=""color:white; font-size:60px;"">+</div>","null","html-keyboard-response","301","490043","0.0-10.0-0.44","fixation","","","","",""
"1969.2400000058115","Stimuli/Hangul_M53.bmp","188","image-keyboard-response","302","492016","0.0-10.0-1.44","test",",","",",","",""
"null","<div style=""color:white; font-size:60px;"">+</div>","null","html-keyboard-response","303","493018","0.0-10.0-0.45","fixation","","","","",""
"3545.195000246167","Stimuli/Hangul_F53.bmp","190","image-keyboard-response","304","496566","0.0-10.0-1.45","test",".","",".","",""
"null","<div style=""color:white; font-size:60px;"">+</div>","null","html-keyboard-response","305","497568","0.0-10.0-0.46","fixation","","","","",""
"2633.8650002144277","Stimuli/Hangul_M60.bmp","190","image-keyboard-response","306","500204","0.0-10.0-1.46","test",",","",".","",""
"null","<div style=""color:white; font-size:60px;"">+</div>","null","html-keyboard-response","307","501208","0.0-10.0-0.47","fixation","","","","",""
"2181.4649999141693","Stimuli/Hangul_M56.bmp","188","image-keyboard-response","308","503391","0.0-10.0-1.47","test",",","",",","",""
"null","<div style=""color:white; font-size:60px;"">+</div>","null","html-keyboard-response","309","504396","0.0-10.0-0.48","fixation","","","","",""
"2029.3050003238022","Stimuli/Hangul_F74.bmp","190","image-keyboard-response","310","506428","0.0-10.0-1.48","test",".","",".","",""
"null","<div style=""color:white; font-size:60px;"">+</div>","null","html-keyboard-response","311","507435","0.0-10.0-0.49","fixation","","","","",""
"4777.920000255108","Stimuli/Hangul_M68.bmp","188","image-keyboard-response","312","512215","0.0-10.0-1.49","test",",","",",","",""
"1586.780000012368","<p style=""color:white;"">One more block to go! Please take a moment to rest.</p> <p style=""color:white;"">When you are ready to continue with block 4 of 4, press the space bar.</p> ","32","html-keyboard-response","313","513804","0.0-11.0","","","","","",""
"null","<div style=""color:white; font-size:60px;"">+</div>","null","html-keyboard-response","314","516812","0.0-12.0-0.0","fixation","","","","",""
"3646.025000140071","Stimuli/Hangul_F75.bmp","190","image-keyboard-response","315","520462","0.0-12.0-1.0","test",".","",".","",""
"null","<div style=""color:white; font-size:60px;"">+</div>","null","html-keyboard-response","316","521465","0.0-12.0-0.1","fixation","","","","",""
"2207.524999976158","Stimuli/Hangul_F76.bmp","190","image-keyboard-response","317","523676","0.0-12.0-1.1","test",".","",".","",""
"null","<div style=""color:white; font-size:60px;"">+</div>","null","html-keyboard-response","318","524679","0.0-12.0-0.2","fixation","","","","",""
"2767.669999971986","Stimuli/Hangul_F88.bmp","190","image-keyboard-response","319","527449","0.0-12.0-1.2","test",".","",".","",""
"null","<div style=""color:white; font-size:60px;"">+</div>","null","html-keyboard-response","320","528455","0.0-12.0-0.3","fixation","","","","",""
"1546.9150003045797","Stimuli/Hangul_F89.bmp","190","image-keyboard-response","321","530005","0.0-12.0-1.3","test",".","",".","",""
"null","<div style=""color:white; font-size:60px;"">+</div>","null","html-keyboard-response","322","531009","0.0-12.0-0.4","fixation","","","","",""
"1733.1599998287857","Stimuli/Hangul_M98.bmp","188","image-keyboard-response","323","532745","0.0-12.0-1.4","test",",","",",","",""
"null","<div style=""color:white; font-size:60px;"">+</div>","null","html-keyboard-response","324","533749","0.0-12.0-0.5","fixation","","","","",""
"2511.2499999813735","Stimuli/Hangul_M93.bmp","188","image-keyboard-response","325","536262","0.0-12.0-1.5","test",",","",",","",""
"null","<div style=""color:white; font-size:60px;"">+</div>","null","html-keyboard-response","326","537267","0.0-12.0-0.6","fixation","","","","",""
"2182.9750002361834","Stimuli/Hangul_M92.bmp","188","image-keyboard-response","327","539455","0.0-12.0-1.6","test",",","",",","",""
"null","<div style=""color:white; font-size:60px;"">+</div>","null","html-keyboard-response","328","540461","0.0-12.0-0.7","fixation","","","","",""
"2246.910000219941","Stimuli/Hangul_M87.bmp","190","image-keyboard-response","329","542709","0.0-12.0-1.7","test",",","",".","",""
"null","<div style=""color:white; font-size:60px;"">+</div>","null","html-keyboard-response","330","543713","0.0-12.0-0.8","fixation","","","","",""
"2261.2800002098083","Stimuli/Hangul_M95.bmp","188","image-keyboard-response","331","545978","0.0-12.0-1.8","test",",","",",","",""
"null","<div style=""color:white; font-size:60px;"">+</div>","null","html-keyboard-response","332","546980","0.0-12.0-0.9","fixation","","","","",""
"2124.299999792129","Stimuli/Hangul_M75.bmp","188","image-keyboard-response","333","549110","0.0-12.0-1.9","test",",","",",","",""
"null","<div style=""color:white; font-size:60px;"">+</div>","null","html-keyboard-response","334","550125","0.0-12.0-0.10","fixation","","","","",""
"4105.154999997467","Stimuli/Hangul_M84.bmp","190","image-keyboard-response","335","554231","0.0-12.0-1.10","test",",","",".","",""
"null","<div style=""color:white; font-size:60px;"">+</div>","null","html-keyboard-response","336","555299","0.0-12.0-0.11","fixation","","","","",""
"2101.059999782592","Stimuli/Hangul_F77.bmp","190","image-keyboard-response","337","557403","0.0-12.0-1.11","test",".","",".","",""
"null","<div style=""color:white; font-size:60px;"">+</div>","null","html-keyboard-response","338","558406","0.0-12.0-0.12","fixation","","","","",""
"1762.5950002111495","Stimuli/Hangul_F80.bmp","190","image-keyboard-response","339","560171","0.0-12.0-1.12","test",".","",".","",""
"null","<div style=""color:white; font-size:60px;"">+</div>","null","html-keyboard-response","340","561201","0.0-12.0-0.13","fixation","","","","",""
"2426.6150002367795","Stimuli/Hangul_M81.bmp","188","image-keyboard-response","341","563629","0.0-12.0-1.13","test",",","",",","",""
"null","<div style=""color:white; font-size:60px;"">+</div>","null","html-keyboard-response","342","564639","0.0-12.0-0.14","fixation","","","","",""
"1950.01499960199","Stimuli/Hangul_M85.bmp","188","image-keyboard-response","343","566592","0.0-12.0-1.14","test",",","",",","",""
"null","<div style=""color:white; font-size:60px;"">+</div>","null","html-keyboard-response","344","567616","0.0-12.0-0.15","fixation","","","","",""
"2893.255000002682","Stimuli/Hangul_M88.bmp","188","image-keyboard-response","345","570511","0.0-12.0-1.15","test",",","",",","",""
"null","<div style=""color:white; font-size:60px;"">+</div>","null","html-keyboard-response","346","571516","0.0-12.0-0.16","fixation","","","","",""
"1930.9450001455843","Stimuli/Hangul_F93.bmp","190","image-keyboard-response","347","573450","0.0-12.0-1.16","test",".","",".","",""
"null","<div style=""color:white; font-size:60px;"">+</div>","null","html-keyboard-response","348","574455","0.0-12.0-0.17","fixation","","","","",""
"1772.0349999144673","Stimuli/Hangul_F92.bmp","188","image-keyboard-response","349","576229","0.0-12.0-1.17","test",".","",",","",""
"null","<div style=""color:white; font-size:60px;"">+</div>","null","html-keyboard-response","350","577232","0.0-12.0-0.18","fixation","","","","",""
"2325.4200001247227","Stimuli/Hangul_F81.bmp","190","image-keyboard-response","351","579559","0.0-12.0-1.18","test",".","",".","",""
"null","<div style=""color:white; font-size:60px;"">+</div>","null","html-keyboard-response","352","580565","0.0-12.0-0.19","fixation","","","","",""
"2116.4750000461936","Stimuli/Hangul_M83.bmp","188","image-keyboard-response","353","582685","0.0-12.0-1.19","test",",","",",","",""
"null","<div style=""color:white; font-size:60px;"">+</div>","null","html-keyboard-response","354","583690","0.0-12.0-0.20","fixation","","","","",""
"1749.7499999590218","Stimuli/Hangul_F82.bmp","190","image-keyboard-response","355","585443","0.0-12.0-1.20","test",".","",".","",""
"null","<div style=""color:white; font-size:60px;"">+</div>","null","html-keyboard-response","356","586447","0.0-12.0-0.21","fixation","","","","",""
"1869.0149998292327","Stimuli/Hangul_F86.bmp","190","image-keyboard-response","357","588318","0.0-12.0-1.21","test",".","",".","",""
"null","<div style=""color:white; font-size:60px;"">+</div>","null","html-keyboard-response","358","589322","0.0-12.0-0.22","fixation","","","","",""
"1901.4650001190603","Stimuli/Hangul_F90.bmp","188","image-keyboard-response","359","591225","0.0-12.0-1.22","test",".","",",","",""
"null","<div style=""color:white; font-size:60px;"">+</div>","null","html-keyboard-response","360","592231","0.0-12.0-0.23","fixation","","","","",""
"2515.2449999004602","Stimuli/Hangul_M86.bmp","188","image-keyboard-response","361","594750","0.0-12.0-1.23","test",",","",",","",""
"null","<div style=""color:white; font-size:60px;"">+</div>","null","html-keyboard-response","362","595756","0.0-12.0-0.24","fixation","","","","",""
"2205.6650002487004","Stimuli/Hangul_M97.bmp","188","image-keyboard-response","363","597965","0.0-12.0-1.24","test",",","",",","",""
"null","<div style=""color:white; font-size:60px;"">+</div>","null","html-keyboard-response","364","598969","0.0-12.0-0.25","fixation","","","","",""
"2591.249999590218","Stimuli/Hangul_F84.bmp","190","image-keyboard-response","365","601562","0.0-12.0-1.25","test",".","",".","",""
"null","<div style=""color:white; font-size:60px;"">+</div>","null","html-keyboard-response","366","602568","0.0-12.0-0.26","fixation","","","","",""
"1878.0300002545118","Stimuli/Hangul_F85.bmp","190","image-keyboard-response","367","604450","0.0-12.0-1.26","test",".","",".","",""
"null","<div style=""color:white; font-size:60px;"">+</div>","null","html-keyboard-response","368","605453","0.0-12.0-0.27","fixation","","","","",""
"1544.4449996575713","Stimuli/Hangul_F79.bmp","190","image-keyboard-response","369","607000","0.0-12.0-1.27","test",".","",".","",""
"null","<div style=""color:white; font-size:60px;"">+</div>","null","html-keyboard-response","370","608001","0.0-12.0-0.28","fixation","","","","",""
"2146.3150000199676","Stimuli/Hangul_M79.bmp","188","image-keyboard-response","371","610151","0.0-12.0-1.28","test",",","",",","",""
"null","<div style=""color:white; font-size:60px;"">+</div>","null","html-keyboard-response","372","611159","0.0-12.0-0.29","fixation","","","","",""
"1784.2649999074638","Stimuli/Hangul_F98.bmp","190","image-keyboard-response","373","612945","0.0-12.0-1.29","test",".","",".","",""
"null","<div style=""color:white; font-size:60px;"">+</div>","null","html-keyboard-response","374","613950","0.0-12.0-0.30","fixation","","","","",""
"1759.9149998277426","Stimuli/Hangul_F83.bmp","190","image-keyboard-response","375","615713","0.0-12.0-1.30","test",".","",".","",""
"null","<div style=""color:white; font-size:60px;"">+</div>","null","html-keyboard-response","376","616720","0.0-12.0-0.31","fixation","","","","",""
"1944.4849998690188","Stimuli/Hangul_M91.bmp","190","image-keyboard-response","377","618667","0.0-12.0-1.31","test",",","",".","",""
"null","<div style=""color:white; font-size:60px;"">+</div>","null","html-keyboard-response","378","619671","0.0-12.0-0.32","fixation","","","","",""
"2907.605000305921","Stimuli/Hangul_M78.bmp","188","image-keyboard-response","379","622581","0.0-12.0-1.32","test",",","",",","",""
"null","<div style=""color:white; font-size:60px;"">+</div>","null","html-keyboard-response","380","623587","0.0-12.0-0.33","fixation","","","","",""
"2735.465000383556","Stimuli/Hangul_M76.bmp","188","image-keyboard-response","381","626326","0.0-12.0-1.33","test",",","",",","",""
"null","<div style=""color:white; font-size:60px;"">+</div>","null","html-keyboard-response","382","627329","0.0-12.0-0.34","fixation","","","","",""
"2087.7849999815226","Stimuli/Hangul_M90.bmp","188","image-keyboard-response","383","629419","0.0-12.0-1.34","test",",","",",","",""
"null","<div style=""color:white; font-size:60px;"">+</div>","null","html-keyboard-response","384","630422","0.0-12.0-0.35","fixation","","","","",""
"1841.9200000353158","Stimuli/Hangul_M94.bmp","188","image-keyboard-response","385","632267","0.0-12.0-1.35","test",",","",",","",""
"null","<div style=""color:white; font-size:60px;"">+</div>","null","html-keyboard-response","386","633279","0.0-12.0-0.36","fixation","","","","",""
"1796.70500010252","Stimuli/Hangul_F94.bmp","190","image-keyboard-response","387","635077","0.0-12.0-1.36","test",".","",".","",""
"null","<div style=""color:white; font-size:60px;"">+</div>","null","html-keyboard-response","388","636080","0.0-12.0-0.37","fixation","","","","",""
"3170.820000115782","Stimuli/Hangul_F97.bmp","190","image-keyboard-response","389","639254","0.0-12.0-1.37","test",".","",".","",""
"null","<div style=""color:white; font-size:60px;"">+</div>","null","html-keyboard-response","390","640260","0.0-12.0-0.38","fixation","","","","",""
"1800.8699999190867","Stimuli/Hangul_M80.bmp","188","image-keyboard-response","391","642064","0.0-12.0-1.38","test",",","",",","",""
"null","<div style=""color:white; font-size:60px;"">+</div>","null","html-keyboard-response","392","643070","0.0-12.0-0.39","fixation","","","","",""
"2226.1849995702505","Stimuli/Hangul_F91.bmp","188","image-keyboard-response","393","645300","0.0-12.0-1.39","test",".","",",","",""
"null","<div style=""color:white; font-size:60px;"">+</div>","null","html-keyboard-response","394","646302","0.0-12.0-0.40","fixation","","","","",""
"2589.589999988675","Stimuli/Hangul_M77.bmp","188","image-keyboard-response","395","648894","0.0-12.0-1.40","test",",","",",","",""
"null","<div style=""color:white; font-size:60px;"">+</div>","null","html-keyboard-response","396","649897","0.0-12.0-0.41","fixation","","","","",""
"1932.475000154227","Stimuli/Hangul_M99.bmp","188","image-keyboard-response","397","651832","0.0-12.0-1.41","test",",","",",","",""
"null","<div style=""color:white; font-size:60px;"">+</div>","null","html-keyboard-response","398","652841","0.0-12.0-0.42","fixation","","","","",""
"1609.9800001829863","Stimuli/Hangul_F87.bmp","190","image-keyboard-response","399","654454","0.0-12.0-1.42","test",".","",".","",""
"null","<div style=""color:white; font-size:60px;"">+</div>","null","html-keyboard-response","400","655460","0.0-12.0-0.43","fixation","","","","",""
"1479.494999628514","Stimuli/Hangul_M89.bmp","188","image-keyboard-response","401","656941","0.0-12.0-1.43","test",",","",",","",""
"null","<div style=""color:white; font-size:60px;"">+</div>","null","html-keyboard-response","402","657945","0.0-12.0-0.44","fixation","","","","",""
"1788.5199999436736","Stimuli/Hangul_M82.bmp","188","image-keyboard-response","403","659737","0.0-12.0-1.44","test",",","",",","",""
"null","<div style=""color:white; font-size:60px;"">+</div>","null","html-keyboard-response","404","660745","0.0-12.0-0.45","fixation","","","","",""
"1840.2599999681115","Stimuli/Hangul_F99.bmp","188","image-keyboard-response","405","662587","0.0-12.0-1.45","test",".","",",","",""
"null","<div style=""color:white; font-size:60px;"">+</div>","null","html-keyboard-response","406","663592","0.0-12.0-0.46","fixation","","","","",""
"1679.5350001193583","Stimuli/Hangul_M96.bmp","188","image-keyboard-response","407","665274","0.0-12.0-1.46","test",",","",",","",""
"null","<div style=""color:white; font-size:60px;"">+</div>","null","html-keyboard-response","408","666278","0.0-12.0-0.47","fixation","","","","",""
"1832.0650001987815","Stimuli/Hangul_F96.bmp","188","image-keyboard-response","409","668113","0.0-12.0-1.47","test",".","",",","",""
"null","<div style=""color:white; font-size:60px;"">+</div>","null","html-keyboard-response","410","669117","0.0-12.0-0.48","fixation","","","","",""
"1828.5849997773767","Stimuli/Hangul_F78.bmp","190","image-keyboard-response","411","670949","0.0-12.0-1.48","test",".","",".","",""
"null","<div style=""color:white; font-size:60px;"">+</div>","null","html-keyboard-response","412","671953","0.0-12.0-0.49","fixation","","","","",""
"1815.7850001007318","Stimuli/Hangul_F95.bmp","190","image-keyboard-response","413","673772","0.0-12.0-1.49","test",".","",".","",""
"1757.479999680072","<p style=""color:white;"">Phase I of the experiment is complete.</p> <p style=""color:white;"">Press the space bar to proceed to Phase II of the experiment.</p> ","32","html-keyboard-response","414","675533","0.0-13.0","","","","","",""
"22698.239999823272","<p style=""color:white;"">Now we are interested in how well you can predict patterns in the series of figures. You will be asked to predict whether the next figure in the series is more male-like or female-like. When you see the <q>Next Figure</q> prompt, press the corresponding response keys to indicate your prediction: </p><p style=""color:white;""> Male &#8594 <q>,</q> (comma)</p><p style=""color:white;""> Female &#8594 <q>.</q> (period)</p><p style=""color:white;"">The actual figure will then appear on the screen. After you see the figure, please guess the assigned gender with response keys. </p><p style=""color:white;"">As before, you will receive 2 cents for correctly classifying each figure.</p><p style=""color:white;"">Press either response keys to continue.</p>","188","html-keyboard-response","415","700238","0.0-14.0","","","","","",""
"4317.640000022948","<p style=""color:white;"">PREDICTION BONUS</p> <p style=""color:white;"">Your prediction accuracy is the total number of correct predictions you make over the 200 trials.</p> <p style=""color:white;"">In addition to the 2 cents per correct figure classification, you have the chance to receive a bonus of 40 dollars IF your accuracy is above average relative to previous participants.</p><p style=""color:white;"">If your accuracy is below average relative to previous participants, then you will not receive the 40 dollar bonus.</p><p style=""color:white;"">Press the space bar to continue.</p>","32","html-keyboard-response","416","704559","0.0-15.0","","","","","",""
"3411.4300003275275","<p style=""color:white;"">Here are some examples.</p> <p style=""color:white;"">For each, predict whether the next figure looks more male-like or female-like. Then, when the figure appears, guess whether it looks more male-like or female-like and indicate your choice.</p> <p style=""color:white;"">Press the space bar to continue.</p>","32","html-keyboard-response","417","707973","0.0-16.0","","","","","",""
"1772.1850001253188","<p style=""color:white;""> Next Figure: Male or Female? </p>","190","html-keyboard-response","418","711755","0.0-17.0-0.0","prediction_train","","","",".",""
"null","<div style=""color:white; font-size:60px;"">+</div>","null","html-keyboard-response","419","712762","0.0-17.0-1.0","fixation","","","","",""
"3107.875000219792","Stimuli/Hangul_E0.bmp","188","image-keyboard-response","420","715873","0.0-17.0-2.0","c2_train",",","","","",","
"845.4350000247359","<p style=""color:white;""> Next Figure: Male or Female? </p>","188","html-keyboard-response","421","716722","0.0-17.0-0.1","prediction_train","","","",",",""
"null","<div style=""color:white; font-size:60px;"">+</div>","null","html-keyboard-response","422","717725","0.0-17.0-1.1","fixation","","","","",""
"647.8249998763204","Stimuli/Hangul_E2.bmp","190","image-keyboard-response","423","718376","0.0-17.0-2.1","c2_train",".","","","","."
"976.9000001251698","<p style=""color:white;""> Next Figure: Male or Female? </p>","188","html-keyboard-response","424","719355","0.0-17.0-0.2","prediction_train","","","",",",""
"null","<div style=""color:white; font-size:60px;"">+</div>","null","html-keyboard-response","425","720357","0.0-17.0-1.2","fixation","","","","",""
"557.1399996988475","Stimuli/Hangul_E1.bmp","188","image-keyboard-response","426","720917","0.0-17.0-2.2","c2_train",",","","","",","
"1346.4299999177456","<p style=""color:white;"">Let us begin! Press the space bar when you are ready to start block 1 of 4.</p> ","32","html-keyboard-response","427","722267","0.0-18.0","","","","","",""
"2578.9600000716746","<p style=""color:white;""> Next Figure: Male or Female? </p>","190","html-keyboard-response","428","726852","0.0-19.0-0.0","prediction","","","",".",""
"null","<div style=""color:white; font-size:60px;"">+</div>","null","html-keyboard-response","429","727859","0.0-19.0-1.0","fixation","","","","",""
"601.2149997986853","Stimuli/Hangul_M22.bmp","188","image-keyboard-response","430","728463","0.0-19.0-2.0","c2_test",",","","","",","
"849.9399996362627","<p style=""color:white;""> Next Figure: Male or Female? </p>","188","html-keyboard-response","431","729315","0.0-19.0-0.1","prediction","","","",",",""
"null","<div style=""color:white; font-size:60px;"">+</div>","null","html-keyboard-response","432","730319","0.0-19.0-1.1","fixation","","","","",""
"474.27500039339066","Stimuli/Hangul_M4.bmp","188","image-keyboard-response","433","730796","0.0-19.0-2.1","c2_test",",","","","",","
"787.625000346452","<p style=""color:white;""> Next Figure: Male or Female? </p>","188","html-keyboard-response","434","731585","0.0-19.0-0.2","prediction","","","",",",""
"null","<div style=""color:white; font-size:60px;"">+</div>","null","html-keyboard-response","435","732591","0.0-19.0-1.2","fixation","","","","",""
"496.80500011891127","Stimuli/Hangul_M16.bmp","188","image-keyboard-response","436","733090","0.0-19.0-2.2","c2_test",",","","","",","
"558.3799998275936","<p style=""color:white;""> Next Figure: Male or Female? </p>","188","html-keyboard-response","437","733650","0.0-19.0-0.3","prediction","","","",",",""
"null","<div style=""color:white; font-size:60px;"">+</div>","null","html-keyboard-response","438","734654","0.0-19.0-1.3","fixation","","","","",""
"720.085000153631","Stimuli/Hangul_M1.bmp","188","image-keyboard-response","439","735377","0.0-19.0-2.3","c2_test",",","","","",","
"518.455000128597","<p style=""color:white;""> Next Figure: Male or Female? </p>","188","html-keyboard-response","440","735898","0.0-19.0-0.4","prediction","","","",",",""
"null","<div style=""color:white; font-size:60px;"">+</div>","null","html-keyboard-response","441","736902","0.0-19.0-1.4","fixation","","","","",""
"676.9449999555945","Stimuli/Hangul_F15.bmp","188","image-keyboard-response","442","737583","0.0-19.0-2.4","c2_test",".","","","",","
"584.7350000403821","<p style=""color:white;""> Next Figure: Male or Female? </p>","190","html-keyboard-response","443","738170","0.0-19.0-0.5","prediction","","","",".",""
"null","<div style=""color:white; font-size:60px;"">+</div>","null","html-keyboard-response","444","739174","0.0-19.0-1.5","fixation","","","","",""
"566.2799999117851","Stimuli/Hangul_F20.bmp","190","image-keyboard-response","445","739743","0.0-19.0-2.5","c2_test",".","","","","."
"684.6250002272427","<p style=""color:white;""> Next Figure: Male or Female? </p>","190","html-keyboard-response","446","740430","0.0-19.0-0.6","prediction","","","",".",""
"null","<div style=""color:white; font-size:60px;"">+</div>","null","html-keyboard-response","447","741433","0.0-19.0-1.6","fixation","","","","",""
"559.4500000588596","Stimuli/Hangul_F19.bmp","190","image-keyboard-response","448","741995","0.0-19.0-2.6","c2_test",".","","","","."
"798.0200001038611","<p style=""color:white;""> Next Figure: Male or Female? </p>","190","html-keyboard-response","449","742795","0.0-19.0-0.7","prediction","","","",".",""
"null","<div style=""color:white; font-size:60px;"">+</div>","null","html-keyboard-response","450","743800","0.0-19.0-1.7","fixation","","","","",""
"558.1550002098083","Stimuli/Hangul_F1.bmp","190","image-keyboard-response","451","744360","0.0-19.0-2.7","c2_test",".","","","","."
"528.0249998904765","<p style=""color:white;""> Next Figure: Male or Female? </p>","190","html-keyboard-response","452","744892","0.0-19.0-0.8","prediction","","","",".",""
"null","<div style=""color:white; font-size:60px;"">+</div>","null","html-keyboard-response","453","745902","0.0-19.0-1.8","fixation","","","","",""
"640.360000077635","Stimuli/Hangul_F16.bmp","188","image-keyboard-response","454","746544","0.0-19.0-2.8","c2_test",".","","","",","
"645.4050000756979","<p style=""color:white;""> Next Figure: Male or Female? </p>","188","html-keyboard-response","455","747192","0.0-19.0-0.9","prediction","","","",",",""
"null","<div style=""color:white; font-size:60px;"">+</div>","null","html-keyboard-response","456","748195","0.0-19.0-1.9","fixation","","","","",""
"674.9350000172853","Stimuli/Hangul_F10.bmp","190","image-keyboard-response","457","748872","0.0-19.0-2.9","c2_test",".","","","","."
"737.1700000949204","<p style=""color:white;""> Next Figure: Male or Female? </p>","190","html-keyboard-response","458","749612","0.0-19.0-0.10","prediction","","","",".",""
"null","<div style=""color:white; font-size:60px;"">+</div>","null","html-keyboard-response","459","750617","0.0-19.0-1.10","fixation","","","","",""
"604.2949999682605","Stimuli/Hangul_F12.bmp","188","image-keyboard-response","460","751224","0.0-19.0-2.10","c2_test",".","","","",","
"689.7350000217557","<p style=""color:white;""> Next Figure: Male or Female? </p>","188","html-keyboard-response","461","751917","0.0-19.0-0.11","prediction","","","",",",""
"null","<div style=""color:white; font-size:60px;"">+</div>","null","html-keyboard-response","462","752919","0.0-19.0-1.11","fixation","","","","",""
"840.6699998304248","Stimuli/Hangul_F9.bmp","188","image-keyboard-response","463","753762","0.0-19.0-2.11","c2_test",".","","","",","
"673.0700000189245","<p style=""color:white;""> Next Figure: Male or Female? </p>","188","html-keyboard-response","464","754438","0.0-19.0-0.12","prediction","","","",",",""
"null","<div style=""color:white; font-size:60px;"">+</div>","null","html-keyboard-response","465","755441","0.0-19.0-1.12","fixation","","","","",""
"580.6149998679757","Stimuli/Hangul_F21.bmp","190","image-keyboard-response","466","756024","0.0-19.0-2.12","c2_test",".","","","","."
"830.6900002062321","<p style=""color:white;""> Next Figure: Male or Female? </p>","190","html-keyboard-response","467","756857","0.0-19.0-0.13","prediction","","","",".",""
"null","<div style=""color:white; font-size:60px;"">+</div>","null","html-keyboard-response","468","757863","0.0-19.0-1.13","fixation","","","","",""
"626.1450001038611","Stimuli/Hangul_F0.bmp","188","image-keyboard-response","469","758491","0.0-19.0-2.13","c2_test",".","","","",","
"839.5449998788536","<p style=""color:white;""> Next Figure: Male or Female? </p>","188","html-keyboard-response","470","759337","0.0-19.0-0.14","prediction","","","",",",""
"null","<div style=""color:white; font-size:60px;"">+</div>","null","html-keyboard-response","471","760342","0.0-19.0-1.14","fixation","","","","",""
"655.4350000806153","Stimuli/Hangul_F14.bmp","190","image-keyboard-response","472","761000","0.0-19.0-2.14","c2_test",".","","","","."
"702.335000038147","<p style=""color:white;""> Next Figure: Male or Female? </p>","188","html-keyboard-response","473","761705","0.0-19.0-0.15","prediction","","","",",",""
"null","<div style=""color:white; font-size:60px;"">+</div>","null","html-keyboard-response","474","762709","0.0-19.0-1.15","fixation","","","","",""
"605.9849997982383","Stimuli/Hangul_F8.bmp","190","image-keyboard-response","475","763318","0.0-19.0-2.15","c2_test",".","","","","."
"675.9649999439716","<p style=""color:white;""> Next Figure: Male or Female? </p>","190","html-keyboard-response","476","763996","0.0-19.0-0.16","prediction","","","",".",""
"null","<div style=""color:white; font-size:60px;"">+</div>","null","html-keyboard-response","477","765002","0.0-19.0-1.16","fixation","","","","",""
"702.6149998418987","Stimuli/Hangul_F17.bmp","188","image-keyboard-response","478","765707","0.0-19.0-2.16","c2_test",".","","","",","
"726.3899999670684","<p style=""color:white;""> Next Figure: Male or Female? </p>","188","html-keyboard-response","479","766436","0.0-19.0-0.17","prediction","","","",",",""
"null","<div style=""color:white; font-size:60px;"">+</div>","null","html-keyboard-response","480","767439","0.0-19.0-1.17","fixation","","","","",""
"549.0799997933209","Stimuli/Hangul_M8.bmp","188","image-keyboard-response","481","767990","0.0-19.0-2.17","c2_test",",","","","",","
"545.9799999371171","<p style=""color:white;""> Next Figure: Male or Female? </p>","188","html-keyboard-response","482","768538","0.0-19.0-0.18","prediction","","","",",",""
"null","<div style=""color:white; font-size:60px;"">+</div>","null","html-keyboard-response","483","769540","0.0-19.0-1.18","fixation","","","","",""
"594.9400002136827","Stimuli/Hangul_F4.bmp","190","image-keyboard-response","484","770137","0.0-19.0-2.18","c2_test",".","","","","."
"661.5599999204278","<p style=""color:white;""> Next Figure: Male or Female? </p>","188","html-keyboard-response","485","770801","0.0-19.0-0.19","prediction","","","",",",""
"null","<div style=""color:white; font-size:60px;"">+</div>","null","html-keyboard-response","486","771804","0.0-19.0-1.19","fixation","","","","",""
"615.4749998822808","Stimuli/Hangul_M7.bmp","188","image-keyboard-response","487","772421","0.0-19.0-2.19","c2_test",",","","","",","
"842.4799996428192","<p style=""color:white;""> Next Figure: Male or Female? </p>","190","html-keyboard-response","488","773266","0.0-19.0-0.20","prediction","","","",".",""
"null","<div style=""color:white; font-size:60px;"">+</div>","null","html-keyboard-response","489","774269","0.0-19.0-1.20","fixation","","","","",""
"768.5599997639656","Stimuli/Hangul_M2.bmp","190","image-keyboard-response","490","775040","0.0-19.0-2.20","c2_test",",","","","","."
"870.2449998818338","<p style=""color:white;""> Next Figure: Male or Female? </p>","188","html-keyboard-response","491","775914","0.0-19.0-0.21","prediction","","","",",",""
"null","<div style=""color:white; font-size:60px;"">+</div>","null","html-keyboard-response","492","776917","0.0-19.0-1.21","fixation","","","","",""
"474.04500003904104","Stimuli/Hangul_F7.bmp","188","image-keyboard-response","493","777393","0.0-19.0-2.21","c2_test",".","","","",","
"703.0549999326468","<p style=""color:white;""> Next Figure: Male or Female? </p>","188","html-keyboard-response","494","778098","0.0-19.0-0.22","prediction","","","",",",""
"null","<div style=""color:white; font-size:60px;"">+</div>","null","html-keyboard-response","495","779105","0.0-19.0-1.22","fixation","","","","",""
"617.6700000651181","Stimuli/Hangul_M14.bmp","188","image-keyboard-response","496","779726","0.0-19.0-2.22","c2_test",",","","","",","
"642.8600000217557","<p style=""color:white;""> Next Figure: Male or Female? </p>","190","html-keyboard-response","497","780372","0.0-19.0-0.23","prediction","","","",".",""
"null","<div style=""color:white; font-size:60px;"">+</div>","null","html-keyboard-response","498","781377","0.0-19.0-1.23","fixation","","","","",""
"687.5749998725951","Stimuli/Hangul_M21.bmp","190","image-keyboard-response","499","782068","0.0-19.0-2.23","c2_test",",","","","","."
"674.6700000949204","<p style=""color:white;""> Next Figure: Male or Female? </p>","190","html-keyboard-response","500","782751","0.0-19.0-0.24","prediction","","","",".",""
"null","<div style=""color:white; font-size:60px;"">+</div>","null","html-keyboard-response","501","783756","0.0-19.0-1.24","fixation","","","","",""
"562.3650001361966","Stimuli/Hangul_M23.bmp","188","image-keyboard-response","502","784321","0.0-19.0-2.24","c2_test",",","","","",","
"677.1450000815094","<p style=""color:white;""> Next Figure: Male or Female? </p>","188","html-keyboard-response","503","785001","0.0-19.0-0.25","prediction","","","",",",""
"null","<div style=""color:white; font-size:60px;"">+</div>","null","html-keyboard-response","504","786004","0.0-19.0-1.25","fixation","","","","",""
"548.3200000599027","Stimuli/Hangul_M13.bmp","188","image-keyboard-response","505","786555","0.0-19.0-2.25","c2_test",",","","","",","
"491.6500002145767","<p style=""color:white;""> Next Figure: Male or Female? </p>","188","html-keyboard-response","506","787048","0.0-19.0-0.26","prediction","","","",",",""
"null","<div style=""color:white; font-size:60px;"">+</div>","null","html-keyboard-response","507","788051","0.0-19.0-1.26","fixation","","","","",""
"619.5299997925758","Stimuli/Hangul_F6.bmp","188","image-keyboard-response","508","788672","0.0-19.0-2.26","c2_test",".","","","",","
"746.2399997748435","<p style=""color:white;""> Next Figure: Male or Female? </p>","188","html-keyboard-response","509","789421","0.0-19.0-0.27","prediction","","","",",",""
"null","<div style=""color:white; font-size:60px;"">+</div>","null","html-keyboard-response","510","790423","0.0-19.0-1.27","fixation","","","","",""
"531.275000423193","Stimuli/Hangul_M19.bmp","190","image-keyboard-response","511","790958","0.0-19.0-2.27","c2_test",",","","","","."
"672.4050003103912","<p style=""color:white;""> Next Figure: Male or Female? </p>","190","html-keyboard-response","512","791632","0.0-19.0-0.28","prediction","","","",".",""
"null","<div style=""color:white; font-size:60px;"">+</div>","null","html-keyboard-response","513","792634","0.0-19.0-1.28","fixation","","","","",""
"472.6700000464916","Stimuli/Hangul_F24.bmp","188","image-keyboard-response","514","793110","0.0-19.0-2.28","c2_test",".","","","",","
"477.78999991714954","<p style=""color:white;""> Next Figure: Male or Female? </p>","188","html-keyboard-response","515","793590","0.0-19.0-0.29","prediction","","","",",",""
"null","<div style=""color:white; font-size:60px;"">+</div>","null","html-keyboard-response","516","794592","0.0-19.0-1.29","fixation","","","","",""
"462.52499986439943","Stimuli/Hangul_M12.bmp","188","image-keyboard-response","517","795057","0.0-19.0-2.29","c2_test",",","","","",","
"433.34499979391694","<p style=""color:white;""> Next Figure: Male or Female? </p>","188","html-keyboard-response","518","795495","0.0-19.0-0.30","prediction","","","",",",""
"null","<div style=""color:white; font-size:60px;"">+</div>","null","html-keyboard-response","519","796498","0.0-19.0-1.30","fixation","","","","",""
"519.5800000801682","Stimuli/Hangul_M18.bmp","188","image-keyboard-response","520","797020","0.0-19.0-2.30","c2_test",",","","","",","
"406.23999992385507","<p style=""color:white;""> Next Figure: Male or Female? </p>","188","html-keyboard-response","521","797429","0.0-19.0-0.31","prediction","","","",",",""
"null","<div style=""color:white; font-size:60px;"">+</div>","null","html-keyboard-response","522","798432","0.0-19.0-1.31","fixation","","","","",""
"473.2000003568828","Stimuli/Hangul_F5.bmp","188","image-keyboard-response","523","798907","0.0-19.0-2.31","c2_test",".","","","",","
"390.6849999912083","<p style=""color:white;""> Next Figure: Male or Female? </p>","188","html-keyboard-response","524","799301","0.0-19.0-0.32","prediction","","","",",",""
"null","<div style=""color:white; font-size:60px;"">+</div>","null","html-keyboard-response","525","800303","0.0-19.0-1.32","fixation","","","","",""
"512.7449999563396","Stimuli/Hangul_M24.bmp","188","image-keyboard-response","526","800818","0.0-19.0-2.32","c2_test",",","","","",","
"325.04000002518296","<p style=""color:white;""> Next Figure: Male or Female? </p>","188","html-keyboard-response","527","801146","0.0-19.0-0.33","prediction","","","",",",""
"null","<div style=""color:white; font-size:60px;"">+</div>","null","html-keyboard-response","528","802150","0.0-19.0-1.33","fixation","","","","",""
"676.0100000537932","Stimuli/Hangul_M0.bmp","188","image-keyboard-response","529","802829","0.0-19.0-2.33","c2_test",",","","","",","
"317.65499990433455","<p style=""color:white;""> Next Figure: Male or Female? </p>","188","html-keyboard-response","530","803149","0.0-19.0-0.34","prediction","","","",",",""
"null","<div style=""color:white; font-size:60px;"">+</div>","null","html-keyboard-response","531","804179","0.0-19.0-1.34","fixation","","","","",""
"644.1199998371303","Stimuli/Hangul_M15.bmp","188","image-keyboard-response","532","804824","0.0-19.0-2.34","c2_test",",","","","",","
"666.4800001308322","<p style=""color:white;""> Next Figure: Male or Female? </p>","190","html-keyboard-response","533","805493","0.0-19.0-0.35","prediction","","","",".",""
"null","<div style=""color:white; font-size:60px;"">+</div>","null","html-keyboard-response","534","806497","0.0-19.0-1.35","fixation","","","","",""
"544.6850000880659","Stimuli/Hangul_M6.bmp","188","image-keyboard-response","535","807044","0.0-19.0-2.35","c2_test",",","","","",","
"543.4449999593198","<p style=""color:white;""> Next Figure: Male or Female? </p>","188","html-keyboard-response","536","807589","0.0-19.0-0.36","prediction","","","",",",""
"null","<div style=""color:white; font-size:60px;"">+</div>","null","html-keyboard-response","537","808591","0.0-19.0-1.36","fixation","","","","",""
"493.28000005334616","Stimuli/Hangul_F3.bmp","188","image-keyboard-response","538","809087","0.0-19.0-2.36","c2_test",".","","","",","
"903.445000294596","<p style=""color:white;""> Next Figure: Male or Female? </p>","190","html-keyboard-response","539","809993","0.0-19.0-0.37","prediction","","","",".",""
"null","<div style=""color:white; font-size:60px;"">+</div>","null","html-keyboard-response","540","810998","0.0-19.0-1.37","fixation","","","","",""
"570.5949999392033","Stimuli/Hangul_M20.bmp","190","image-keyboard-response","541","811571","0.0-19.0-2.37","c2_test",",","","","","."
"1217.7849998697639","<p style=""color:white;""> Next Figure: Male or Female? </p>","190","html-keyboard-response","542","812791","0.0-19.0-0.38","prediction","","","",".",""
"null","<div style=""color:white; font-size:60px;"">+</div>","null","html-keyboard-response","543","813798","0.0-19.0-1.38","fixation","","","","",""
"519.5599999278784","Stimuli/Hangul_F18.bmp","190","image-keyboard-response","544","814320","0.0-19.0-2.38","c2_test",".","","","","."
"530.6899999268353","<p style=""color:white;""> Next Figure: Male or Female? </p>","190","html-keyboard-response","545","814853","0.0-19.0-0.39","prediction","","","",".",""
"null","<div style=""color:white; font-size:60px;"">+</div>","null","html-keyboard-response","546","815857","0.0-19.0-1.39","fixation","","","","",""
"779.9100000411272","Stimuli/Hangul_F11.bmp","188","image-keyboard-response","547","816640","0.0-19.0-2.39","c2_test",".","","","",","
"755.0699999555945","<p style=""color:white;""> Next Figure: Male or Female? </p>","188","html-keyboard-response","548","817397","0.0-19.0-0.40","prediction","","","",",",""
"null","<div style=""color:white; font-size:60px;"">+</div>","null","html-keyboard-response","549","818401","0.0-19.0-1.40","fixation","","","","",""
"725.6249999627471","Stimuli/Hangul_M3.bmp","190","image-keyboard-response","550","819130","0.0-19.0-2.40","c2_test",",","","","","."
"615.4100000858307","<p style=""color:white;""> Next Figure: Male or Female? </p>","190","html-keyboard-response","551","819748","0.0-19.0-0.41","prediction","","","",".",""
"null","<div style=""color:white; font-size:60px;"">+</div>","null","html-keyboard-response","552","820751","0.0-19.0-1.41","fixation","","","","",""
"645.7799999043345","Stimuli/Hangul_F22.bmp","190","image-keyboard-response","553","821399","0.0-19.0-2.41","c2_test",".","","","","."
"1570.9199998527765","<p style=""color:white;""> Next Figure: Male or Female? </p>","190","html-keyboard-response","554","822972","0.0-19.0-0.42","prediction","","","",".",""
"null","<div style=""color:white; font-size:60px;"">+</div>","null","html-keyboard-response","555","823976","0.0-19.0-1.42","fixation","","","","",""
"836.7399997077882","Stimuli/Hangul_F23.bmp","190","image-keyboard-response","556","824815","0.0-19.0-2.42","c2_test",".","","","","."
"480.98500026389956","<p style=""color:white;""> Next Figure: Male or Female? </p>","190","html-keyboard-response","557","825296","0.0-19.0-0.43","prediction","","","",".",""
"null","<div style=""color:white; font-size:60px;"">+</div>","null","html-keyboard-response","558","826299","0.0-19.0-1.43","fixation","","","","",""
"788.1249999627471","Stimuli/Hangul_M17.bmp","188","image-keyboard-response","559","827090","0.0-19.0-2.43","c2_test",",","","","",","
"2340.909999795258","<p style=""color:white;""> Next Figure: Male or Female? </p>","188","html-keyboard-response","560","829433","0.0-19.0-0.44","prediction","","","",",",""
"null","<div style=""color:white; font-size:60px;"">+</div>","null","html-keyboard-response","561","830437","0.0-19.0-1.44","fixation","","","","",""
"1740.470000077039","Stimuli/Hangul_M10.bmp","188","image-keyboard-response","562","832182","0.0-19.0-2.44","c2_test",",","","","",","
"873.1649997644126","<p style=""color:white;""> Next Figure: Male or Female? </p>","190","html-keyboard-response","563","833058","0.0-19.0-0.45","prediction","","","",".",""
"null","<div style=""color:white; font-size:60px;"">+</div>","null","html-keyboard-response","564","834061","0.0-19.0-1.45","fixation","","","","",""
"2352.819999679923","Stimuli/Hangul_F13.bmp","188","image-keyboard-response","565","836415","0.0-19.0-2.45","c2_test",".","","","",","
"2838.1700003519654","<p style=""color:white;""> Next Figure: Male or Female? </p>","188","html-keyboard-response","566","839256","0.0-19.0-0.46","prediction","","","",",",""
"null","<div style=""color:white; font-size:60px;"">+</div>","null","html-keyboard-response","567","840259","0.0-19.0-1.46","fixation","","","","",""
"2418.0349996313453","Stimuli/Hangul_M5.bmp","190","image-keyboard-response","568","842679","0.0-19.0-2.46","c2_test",",","","","","."
"549.4099999777973","<p style=""color:white;""> Next Figure: Male or Female? </p>","190","html-keyboard-response","569","843231","0.0-19.0-0.47","prediction","","","",".",""
"null","<div style=""color:white; font-size:60px;"">+</div>","null","html-keyboard-response","570","844236","0.0-19.0-1.47","fixation","","","","",""
"790.2099997736514","Stimuli/Hangul_M11.bmp","188","image-keyboard-response","571","845028","0.0-19.0-2.47","c2_test",",","","","",","
"548.5300002619624","<p style=""color:white;""> Next Figure: Male or Female? </p>","188","html-keyboard-response","572","845579","0.0-19.0-0.48","prediction","","","",",",""
"null","<div style=""color:white; font-size:60px;"">+</div>","null","html-keyboard-response","573","846585","0.0-19.0-1.48","fixation","","","","",""
"2413.1649998016655","Stimuli/Hangul_F2.bmp","190","image-keyboard-response","574","849001","0.0-19.0-2.48","c2_test",".","","","","."
"1658.0449999310076","<p style=""color:white;""> Next Figure: Male or Female? </p>","190","html-keyboard-response","575","850661","0.0-19.0-0.49","prediction","","","",".",""
"null","<div style=""color:white; font-size:60px;"">+</div>","null","html-keyboard-response","576","851667","0.0-19.0-1.49","fixation","","","","",""
"761.6949998773634","Stimuli/Hangul_M9.bmp","190","image-keyboard-response","577","852432","0.0-19.0-2.49","c2_test",",","","","","."
"3029.3499999679625","<p style=""color:white;"">Good job, block 1 complete! Please take a moment to rest.</p> <p style=""color:white;"">When you are ready to continue with block 2 of 4, press the space bar.</p> ","32","html-keyboard-response","578","855464","0.0-20.0","","","","","",""
"1678.4749999642372","<p style=""color:white;""> Next Figure: Male or Female? </p>","188","html-keyboard-response","579","859150","0.0-21.0-0.0","prediction","","","",",",""
"null","<div style=""color:white; font-size:60px;"">+</div>","null","html-keyboard-response","580","860155","0.0-21.0-1.0","fixation","","","","",""
"1101.5449999831617","Stimuli/Hangul_F36.bmp","188","image-keyboard-response","581","861261","0.0-21.0-2.0","c2_test",".","","","",","
"3817.1999999321997","<p style=""color:white;""> Next Figure: Male or Female? </p>","188","html-keyboard-response","582","865081","0.0-21.0-0.1","prediction","","","",",",""
"null","<div style=""color:white; font-size:60px;"">+</div>","null","html-keyboard-response","583","866085","0.0-21.0-1.1","fixation","","","","",""
"907.3299998417497","Stimuli/Hangul_M38.bmp","190","image-keyboard-response","584","866995","0.0-21.0-2.1","c2_test",",","","","","."
"513.6949997395277","<p style=""color:white;""> Next Figure: Male or Female? </p>","190","html-keyboard-response","585","867512","0.0-21.0-0.2","prediction","","","",".",""
"null","<div style=""color:white; font-size:60px;"">+</div>","null","html-keyboard-response","586","868529","0.0-21.0-1.2","fixation","","","","",""
"1020.6200000829995","Stimuli/Hangul_F43.bmp","190","image-keyboard-response","587","869552","0.0-21.0-2.2","c2_test",".","","","","."
"489.8299998603761","<p style=""color:white;""> Next Figure: Male or Female? </p>","190","html-keyboard-response","588","870044","0.0-21.0-0.3","prediction","","","",".",""
"null","<div style=""color:white; font-size:60px;"">+</div>","null","html-keyboard-response","589","871047","0.0-21.0-1.3","fixation","","","","",""
"729.5000003650784","Stimuli/Hangul_F47.bmp","188","image-keyboard-response","590","871779","0.0-21.0-2.3","c2_test",".","","","",","
"560.1750002242625","<p style=""color:white;""> Next Figure: Male or Female? </p>","188","html-keyboard-response","591","872341","0.0-21.0-0.4","prediction","","","",",",""
"null","<div style=""color:white; font-size:60px;"">+</div>","null","html-keyboard-response","592","873344","0.0-21.0-1.4","fixation","","","","",""
"560.194999910891","Stimuli/Hangul_F39.bmp","190","image-keyboard-response","593","873907","0.0-21.0-2.4","c2_test",".","","","","."
"701.959999743849","<p style=""color:white;""> Next Figure: Male or Female? </p>","190","html-keyboard-response","594","874611","0.0-21.0-0.5","prediction","","","",".",""
"null","<div style=""color:white; font-size:60px;"">+</div>","null","html-keyboard-response","595","875616","0.0-21.0-1.5","fixation","","","","",""
"632.5199999846518","Stimuli/Hangul_F38.bmp","190","image-keyboard-response","596","876251","0.0-21.0-2.5","c2_test",".","","","","."
"418.9699999988079","<p style=""color:white;""> Next Figure: Male or Female? </p>","190","html-keyboard-response","597","876673","0.0-21.0-0.6","prediction","","","",".",""
"null","<div style=""color:white; font-size:60px;"">+</div>","null","html-keyboard-response","598","877678","0.0-21.0-1.6","fixation","","","","",""
"576.9400000572205","Stimuli/Hangul_M49.bmp","188","image-keyboard-response","599","878257","0.0-21.0-2.6","c2_test",",","","","",","
"550.6799998693168","<p style=""color:white;""> Next Figure: Male or Female? </p>","188","html-keyboard-response","600","878810","0.0-21.0-0.7","prediction","","","",",",""
"null","<div style=""color:white; font-size:60px;"">+</div>","null","html-keyboard-response","601","879813","0.0-21.0-1.7","fixation","","","","",""
"516.2749998271465","Stimuli/Hangul_F44.bmp","190","image-keyboard-response","602","880331","0.0-21.0-2.7","c2_test",".","","","","."
"516.160000115633","<p style=""color:white;""> Next Figure: Male or Female? </p>","190","html-keyboard-response","603","880850","0.0-21.0-0.8","prediction","","","",".",""
"null","<div style=""color:white; font-size:60px;"">+</div>","null","html-keyboard-response","604","881853","0.0-21.0-1.8","fixation","","","","",""
"602.5300002656877","Stimuli/Hangul_M35.bmp","188","image-keyboard-response","605","882458","0.0-21.0-2.8","c2_test",",","","","",","
"701.6249997541308","<p style=""color:white;""> Next Figure: Male or Female? </p>","188","html-keyboard-response","606","883162","0.0-21.0-0.9","prediction","","","",",",""
"null","<div style=""color:white; font-size:60px;"">+</div>","null","html-keyboard-response","607","884169","0.0-21.0-1.9","fixation","","","","",""
"521.6549998149276","Stimuli/Hangul_F40.bmp","190","image-keyboard-response","608","884694","0.0-21.0-2.9","c2_test",".","","","","."
"559.4549998641014","<p style=""color:white;""> Next Figure: Male or Female? </p>","190","html-keyboard-response","609","885256","0.0-21.0-0.10","prediction","","","",".",""
"null","<div style=""color:white; font-size:60px;"">+</div>","null","html-keyboard-response","610","886273","0.0-21.0-1.10","fixation","","","","",""
"899.354999884963","Stimuli/Hangul_F37.bmp","190","image-keyboard-response","611","887174","0.0-21.0-2.10","c2_test",".","","","","."
"2062.2800001874566","<p style=""color:white;""> Next Figure: Male or Female? </p>","190","html-keyboard-response","612","889239","0.0-21.0-0.11","prediction","","","",".",""
"null","<div style=""color:white; font-size:60px;"">+</div>","null","html-keyboard-response","613","890245","0.0-21.0-1.11","fixation","","","","",""
"491.6199999861419","Stimuli/Hangul_M29.bmp","188","image-keyboard-response","614","890741","0.0-21.0-2.11","c2_test",",","","","",","
"452.4799999780953","<p style=""color:white;""> Next Figure: Male or Female? </p>","188","html-keyboard-response","615","891197","0.0-21.0-0.12","prediction","","","",",",""
"null","<div style=""color:white; font-size:60px;"">+</div>","null","html-keyboard-response","616","892201","0.0-21.0-1.12","fixation","","","","",""
"846.9350002706051","Stimuli/Hangul_M32.bmp","190","image-keyboard-response","617","893056","0.0-21.0-2.12","c2_test",",","","","","."
"485.0000003352761","<p style=""color:white;""> Next Figure: Male or Female? </p>","190","html-keyboard-response","618","893544","0.0-21.0-0.13","prediction","","","",".",""
"null","<div style=""color:white; font-size:60px;"">+</div>","null","html-keyboard-response","619","894549","0.0-21.0-1.13","fixation","","","","",""
"665.1899996213615","Stimuli/Hangul_M44.bmp","190","image-keyboard-response","620","895216","0.0-21.0-2.13","c2_test",",","","","","."
"1520.459999796003","<p style=""color:white;""> Next Figure: Male or Female? </p>","190","html-keyboard-response","621","896739","0.0-21.0-0.14","prediction","","","",".",""
"null","<div style=""color:white; font-size:60px;"">+</div>","null","html-keyboard-response","622","897742","0.0-21.0-1.14","fixation","","","","",""
"897.6100003346801","Stimuli/Hangul_M33.bmp","188","image-keyboard-response","623","898642","0.0-21.0-2.14","c2_test",",","","","",","
"449.3799996562302","<p style=""color:white;""> Next Figure: Male or Female? </p>","188","html-keyboard-response","624","899093","0.0-21.0-0.15","prediction","","","",",",""
"null","<div style=""color:white; font-size:60px;"">+</div>","null","html-keyboard-response","625","900097","0.0-21.0-1.15","fixation","","","","",""
"565.5300002545118","Stimuli/Hangul_M41.bmp","190","image-keyboard-response","626","900664","0.0-21.0-2.15","c2_test",",","","","","."
"486.8549997918308","<p style=""color:white;""> Next Figure: Male or Female? </p>","190","html-keyboard-response","627","901153","0.0-21.0-0.16","prediction","","","",".",""
"null","<div style=""color:white; font-size:60px;"">+</div>","null","html-keyboard-response","628","902156","0.0-21.0-1.16","fixation","","","","",""
"834.1799997724593","Stimuli/Hangul_M37.bmp","190","image-keyboard-response","629","902993","0.0-21.0-2.16","c2_test",",","","","","."
"428.79000026732683","<p style=""color:white;""> Next Figure: Male or Female? </p>","190","html-keyboard-response","630","903424","0.0-21.0-0.17","prediction","","","",".",""
"null","<div style=""color:white; font-size:60px;"">+</div>","null","html-keyboard-response","631","904430","0.0-21.0-1.17","fixation","","","","",""
"647.7200002409518","Stimuli/Hangul_F42.bmp","190","image-keyboard-response","632","905081","0.0-21.0-2.17","c2_test",".","","","","."
"615.1749999262393","<p style=""color:white;""> Next Figure: Male or Female? </p>","190","html-keyboard-response","633","905700","0.0-21.0-0.18","prediction","","","",".",""
"null","<div style=""color:white; font-size:60px;"">+</div>","null","html-keyboard-response","634","906705","0.0-21.0-1.18","fixation","","","","",""
"864.7400001063943","Stimuli/Hangul_M48.bmp","190","image-keyboard-response","635","907572","0.0-21.0-2.18","c2_test",",","","","","."
"450.2750001847744","<p style=""color:white;""> Next Figure: Male or Female? </p>","190","html-keyboard-response","636","908024","0.0-21.0-0.19","prediction","","","",".",""
"null","<div style=""color:white; font-size:60px;"">+</div>","null","html-keyboard-response","637","909029","0.0-21.0-1.19","fixation","","","","",""
"675.4400003701448","Stimuli/Hangul_F35.bmp","190","image-keyboard-response","638","909707","0.0-21.0-2.19","c2_test",".","","","","."
"516.4300003089011","<p style=""color:white;""> Next Figure: Male or Female? </p>","190","html-keyboard-response","639","910227","0.0-21.0-0.20","prediction","","","",".",""
"null","<div style=""color:white; font-size:60px;"">+</div>","null","html-keyboard-response","640","911230","0.0-21.0-1.20","fixation","","","","",""
"726.3200003653765","Stimuli/Hangul_F28.bmp","190","image-keyboard-response","641","911958","0.0-21.0-2.20","c2_test",".","","","","."
"456.1100001446903","<p style=""color:white;""> Next Figure: Male or Female? </p>","190","html-keyboard-response","642","912417","0.0-21.0-0.21","prediction","","","",".",""
"null","<div style=""color:white; font-size:60px;"">+</div>","null","html-keyboard-response","643","913421","0.0-21.0-1.21","fixation","","","","",""
"540.440000128001","Stimuli/Hangul_F33.bmp","190","image-keyboard-response","644","913963","0.0-21.0-2.21","c2_test",".","","","","."
"1011.6850002668798","<p style=""color:white;""> Next Figure: Male or Female? </p>","188","html-keyboard-response","645","914977","0.0-21.0-0.22","prediction","","","",",",""
"null","<div style=""color:white; font-size:60px;"">+</div>","null","html-keyboard-response","646","916036","0.0-21.0-1.22","fixation","","","","",""
"987.5350003130734","Stimuli/Hangul_F48.bmp","188","image-keyboard-response","647","917025","0.0-21.0-2.22","c2_test",".","","","",","
"492.06999968737364","<p style=""color:white;""> Next Figure: Male or Female? </p>","188","html-keyboard-response","648","917519","0.0-21.0-0.23","prediction","","","",",",""
"null","<div style=""color:white; font-size:60px;"">+</div>","null","html-keyboard-response","649","918524","0.0-21.0-1.23","fixation","","","","",""
"700.5150001496077","Stimuli/Hangul_M26.bmp","190","image-keyboard-response","650","919228","0.0-21.0-2.23","c2_test",",","","","","."
"662.2549998573959","<p style=""color:white;""> Next Figure: Male or Female? </p>","190","html-keyboard-response","651","919893","0.0-21.0-0.24","prediction","","","",".",""
"null","<div style=""color:white; font-size:60px;"">+</div>","null","html-keyboard-response","652","920904","0.0-21.0-1.24","fixation","","","","",""
"611.7449998855591","Stimuli/Hangul_M27.bmp","190","image-keyboard-response","653","921517","0.0-21.0-2.24","c2_test",",","","","","."
"603.1450000591576","<p style=""color:white;""> Next Figure: Male or Female? </p>","188","html-keyboard-response","654","922123","0.0-21.0-0.25","prediction","","","",",",""
"null","<div style=""color:white; font-size:60px;"">+</div>","null","html-keyboard-response","655","923129","0.0-21.0-1.25","fixation","","","","",""
"753.3550001680851","Stimuli/Hangul_F27.bmp","190","image-keyboard-response","656","923885","0.0-21.0-2.25","c2_test",".","","","","."
"489.7150001488626","<p style=""color:white;""> Next Figure: Male or Female? </p>","190","html-keyboard-response","657","924377","0.0-21.0-0.26","prediction","","","",".",""
