"rt","stimulus","key_press","trial_type","trial_index","time_elapsed","internal_node_id","test_part","correct_response","C1_train","C1","A","C2"
"2427.6000000008935","<p style=""color:white;"">Welcome to the experiment! Press any key to begin.</p>","32","html-keyboard-response","0","2434","0.0-0.0","","","","","",""
"27963.87499999946","<p style=""color:white;"">You will see a series of abstract figures. They are adaptations of signs in the Korean alphabet, but that is not important for this study. </p><p style=""color:white;"">Abstract figures sometimes have a more masculine or feminine shape. Here, each figure has already been assigned a gender as <q>Male</q> or <q>Female</q> by a panel of respondents in a pilot study. The respondents were not given specific instructions on how to do this, but were only told to use their intuition and to take into account the entire configuration of the stimulus. </p><p style=""color:white;"">Your task now is to guess the assigned gender of each figure. Please press the corresponding response keys to indicate your choice: </p><p style=""color:white;""> Male &#8594 <q>,</q> (comma)</p><p style=""color:white;""> Female &#8594 <q>.</q> (period)</p><p style=""color:white;"">Press either response keys to continue.</p>","188","html-keyboard-response","1","30402","0.0-1.0","","","","","",""
"12859.730000000127","<p style=""color:white;"">Your choice is correct if it matches the gender assigned by the majority of respondents in the pilot study.</p> <p style=""color:white;"">For each correct choice you will receive 2 cents. There will be 200 trials divided into 4 blocks of 50 trials. You will be able to take a break after every 50 trials.</p> <p style=""color:white;"">Press the space bar to continue.</p>","32","html-keyboard-response","2","43264","0.0-2.0","","","","","",""
"2741.294999999809","<p style=""color:white;"">Here are some examples.</p> <p style=""color:white;"">For each, guess whether the assigned figure is male-like or female-like and indicate your choice by pressing either response keys.</p> <p style=""color:white;"">Press the space bar to continue.</p>","32","html-keyboard-response","3","46007","0.0-3.0","","","","","",""
"null","<div style=""color:white; font-size:60px;"">+</div>","null","html-keyboard-response","4","49013","0.0-4.0-0.0","fixation","","","","",""
"2823.435000000245","Stimuli/Hangul_E2.bmp","190","image-keyboard-response","5","51840","0.0-4.0-1.0","c1_train",".",".","","",""
"null","<div style=""color:white; font-size:60px;"">+</div>","null","html-keyboard-response","6","52844","0.0-4.0-0.1","fixation","","","","",""
"3146.6899999995803","Stimuli/Hangul_E1.bmp","188","image-keyboard-response","7","55992","0.0-4.0-1.1","c1_train",",",",","","",""
"null","<div style=""color:white; font-size:60px;"">+</div>","null","html-keyboard-response","8","56995","0.0-4.0-0.2","fixation","","","","",""
"3953.7899999995716","Stimuli/Hangul_E0.bmp","188","image-keyboard-response","9","60951","0.0-4.0-1.2","c1_train",",",",","","",""
"4166.44499999893","<p style=""color:white;"">Let us begin! Press the space bar when you are ready to start block 1 of 4.</p> ","32","html-keyboard-response","10","65119","0.0-5.0","","","","","",""
"null","<div style=""color:white; font-size:60px;"">+</div>","null","html-keyboard-response","11","68121","0.0-6.0-0.0","fixation","","","","",""
"2564.07500000023","Stimuli/Hangul_M10.bmp","190","image-keyboard-response","12","70688","0.0-6.0-1.0","test",",","",".","",""
"null","<div style=""color:white; font-size:60px;"">+</div>","null","html-keyboard-response","13","71690","0.0-6.0-0.1","fixation","","","","",""
"2035.3050000012445","Stimuli/Hangul_M7.bmp","188","image-keyboard-response","14","73727","0.0-6.0-1.1","test",",","",",","",""
"null","<div style=""color:white; font-size:60px;"">+</div>","null","html-keyboard-response","15","74728","0.0-6.0-0.2","fixation","","","","",""
"2740.6649999993533","Stimuli/Hangul_F3.bmp","188","image-keyboard-response","16","77471","0.0-6.0-1.2","test",".","",",","",""
"null","<div style=""color:white; font-size:60px;"">+</div>","null","html-keyboard-response","17","78474","0.0-6.0-0.3","fixation","","","","",""
"2764.4749999999476","Stimuli/Hangul_M3.bmp","188","image-keyboard-response","18","81240","0.0-6.0-1.3","test",",","",",","",""
"null","<div style=""color:white; font-size:60px;"">+</div>","null","html-keyboard-response","19","82243","0.0-6.0-0.4","fixation","","","","",""
"2802.494999999908","Stimuli/Hangul_F7.bmp","188","image-keyboard-response","20","85047","0.0-6.0-1.4","test",".","",",","",""
"null","<div style=""color:white; font-size:60px;"">+</div>","null","html-keyboard-response","21","86051","0.0-6.0-0.5","fixation","","","","",""
"2098.7999999997555","Stimuli/Hangul_F17.bmp","190","image-keyboard-response","22","88151","0.0-6.0-1.5","test",".","",".","",""
"null","<div style=""color:white; font-size:60px;"">+</div>","null","html-keyboard-response","23","89153","0.0-6.0-0.6","fixation","","","","",""
"2797.0900000000256","Stimuli/Hangul_M12.bmp","188","image-keyboard-response","24","91952","0.0-6.0-1.6","test",",","",",","",""
"null","<div style=""color:white; font-size:60px;"">+</div>","null","html-keyboard-response","25","92968","0.0-6.0-0.7","fixation","","","","",""
"2105.4500000009284","Stimuli/Hangul_M20.bmp","190","image-keyboard-response","26","95079","0.0-6.0-1.7","test",",","",".","",""
"null","<div style=""color:white; font-size:60px;"">+</div>","null","html-keyboard-response","27","96082","0.0-6.0-0.8","fixation","","","","",""
"1803.9200000002893","Stimuli/Hangul_F14.bmp","190","image-keyboard-response","28","97887","0.0-6.0-1.8","test",".","",".","",""
"null","<div style=""color:white; font-size:60px;"">+</div>","null","html-keyboard-response","29","98889","0.0-6.0-0.9","fixation","","","","",""
"2795.0049999999464","Stimuli/Hangul_F6.bmp","190","image-keyboard-response","30","101686","0.0-6.0-1.9","test",".","",".","",""
"null","<div style=""color:white; font-size:60px;"">+</div>","null","html-keyboard-response","31","102688","0.0-6.0-0.10","fixation","","","","",""
"2092.595000000074","Stimuli/Hangul_M11.bmp","188","image-keyboard-response","32","104783","0.0-6.0-1.10","test",",","",",","",""
"null","<div style=""color:white; font-size:60px;"">+</div>","null","html-keyboard-response","33","105784","0.0-6.0-0.11","fixation","","","","",""
"2213.979999998628","Stimuli/Hangul_F0.bmp","188","image-keyboard-response","34","107999","0.0-6.0-1.11","test",".","",",","",""
"null","<div style=""color:white; font-size:60px;"">+</div>","null","html-keyboard-response","35","109001","0.0-6.0-0.12","fixation","","","","",""
"1683.149999998932","Stimuli/Hangul_F1.bmp","190","image-keyboard-response","36","110687","0.0-6.0-1.12","test",".","",".","",""
"null","<div style=""color:white; font-size:60px;"">+</div>","null","html-keyboard-response","37","111689","0.0-6.0-0.13","fixation","","","","",""
"1940.520000000106","Stimuli/Hangul_M19.bmp","188","image-keyboard-response","38","113630","0.0-6.0-1.13","test",",","",",","",""
"null","<div style=""color:white; font-size:60px;"">+</div>","null","html-keyboard-response","39","114632","0.0-6.0-0.14","fixation","","","","",""
"1863.149999999223","Stimuli/Hangul_M22.bmp","188","image-keyboard-response","40","116496","0.0-6.0-1.14","test",",","",",","",""
"null","<div style=""color:white; font-size:60px;"">+</div>","null","html-keyboard-response","41","117499","0.0-6.0-0.15","fixation","","","","",""
"2258.845000000292","Stimuli/Hangul_F16.bmp","188","image-keyboard-response","42","119759","0.0-6.0-1.15","test",".","",",","",""
"null","<div style=""color:white; font-size:60px;"">+</div>","null","html-keyboard-response","43","120760","0.0-6.0-0.16","fixation","","","","",""
"2174.0800000006857","Stimuli/Hangul_M24.bmp","188","image-keyboard-response","44","122935","0.0-6.0-1.16","test",",","",",","",""
"null","<div style=""color:white; font-size:60px;"">+</div>","null","html-keyboard-response","45","123937","0.0-6.0-0.17","fixation","","","","",""
"2012.2900000005902","Stimuli/Hangul_F12.bmp","190","image-keyboard-response","46","125951","0.0-6.0-1.17","test",".","",".","",""
"null","<div style=""color:white; font-size:60px;"">+</div>","null","html-keyboard-response","47","126953","0.0-6.0-0.18","fixation","","","","",""
"2206.1799999992363","Stimuli/Hangul_F9.bmp","190","image-keyboard-response","48","129160","0.0-6.0-1.18","test",".","",".","",""
"null","<div style=""color:white; font-size:60px;"">+</div>","null","html-keyboard-response","49","130162","0.0-6.0-0.19","fixation","","","","",""
"1602.8249999999534","Stimuli/Hangul_M2.bmp","190","image-keyboard-response","50","131767","0.0-6.0-1.19","test",",","",".","",""
"null","<div style=""color:white; font-size:60px;"">+</div>","null","html-keyboard-response","51","132769","0.0-6.0-0.20","fixation","","","","",""
"2109.7900000004156","Stimuli/Hangul_M0.bmp","188","image-keyboard-response","52","134879","0.0-6.0-1.20","test",",","",",","",""
"null","<div style=""color:white; font-size:60px;"">+</div>","null","html-keyboard-response","53","135881","0.0-6.0-0.21","fixation","","","","",""
"2908.6999999999534","Stimuli/Hangul_M5.bmp","190","image-keyboard-response","54","138791","0.0-6.0-1.21","test",",","",".","",""
"null","<div style=""color:white; font-size:60px;"">+</div>","null","html-keyboard-response","55","139795","0.0-6.0-0.22","fixation","","","","",""
"2291.0650000012247","Stimuli/Hangul_M23.bmp","190","image-keyboard-response","56","142088","0.0-6.0-1.22","test",",","",".","",""
"null","<div style=""color:white; font-size:60px;"">+</div>","null","html-keyboard-response","57","143091","0.0-6.0-0.23","fixation","","","","",""
"3138.74000000034","Stimuli/Hangul_F20.bmp","190","image-keyboard-response","58","146231","0.0-6.0-1.23","test",".","",".","",""
"null","<div style=""color:white; font-size:60px;"">+</div>","null","html-keyboard-response","59","147234","0.0-6.0-0.24","fixation","","","","",""
"3154.990000000893","Stimuli/Hangul_M18.bmp","190","image-keyboard-response","60","150391","0.0-6.0-1.24","test",",","",".","",""
"null","<div style=""color:white; font-size:60px;"">+</div>","null","html-keyboard-response","61","151394","0.0-6.0-0.25","fixation","","","","",""
"3060.3249999985565","Stimuli/Hangul_M15.bmp","190","image-keyboard-response","62","154456","0.0-6.0-1.25","test",",","",".","",""
"null","<div style=""color:white; font-size:60px;"">+</div>","null","html-keyboard-response","63","155458","0.0-6.0-0.26","fixation","","","","",""
"2490.2000000001863","Stimuli/Hangul_M17.bmp","190","image-keyboard-response","64","157951","0.0-6.0-1.26","test",",","",".","",""
"null","<div style=""color:white; font-size:60px;"">+</div>","null","html-keyboard-response","65","158953","0.0-6.0-0.27","fixation","","","","",""
"1395.1799999995274","Stimuli/Hangul_M16.bmp","190","image-keyboard-response","66","160351","0.0-6.0-1.27","test",",","",".","",""
"null","<div style=""color:white; font-size:60px;"">+</div>","null","html-keyboard-response","67","161355","0.0-6.0-0.28","fixation","","","","",""
"3099.0899999996764","Stimuli/Hangul_F24.bmp","190","image-keyboard-response","68","164455","0.0-6.0-1.28","test",".","",".","",""
"null","<div style=""color:white; font-size:60px;"">+</div>","null","html-keyboard-response","69","165462","0.0-6.0-0.29","fixation","","","","",""
"2279.7750000008964","Stimuli/Hangul_F10.bmp","188","image-keyboard-response","70","167744","0.0-6.0-1.29","test",".","",",","",""
"null","<div style=""color:white; font-size:60px;"">+</div>","null","html-keyboard-response","71","168746","0.0-6.0-0.30","fixation","","","","",""
"1946.5149999996065","Stimuli/Hangul_F5.bmp","188","image-keyboard-response","72","170695","0.0-6.0-1.30","test",".","",",","",""
"null","<div style=""color:white; font-size:60px;"">+</div>","null","html-keyboard-response","73","171698","0.0-6.0-0.31","fixation","","","","",""
"1820.2750000000524","Stimuli/Hangul_F2.bmp","188","image-keyboard-response","74","173519","0.0-6.0-1.31","test",".","",",","",""
"null","<div style=""color:white; font-size:60px;"">+</div>","null","html-keyboard-response","75","174521","0.0-6.0-0.32","fixation","","","","",""
"1891.6850000005215","Stimuli/Hangul_F23.bmp","188","image-keyboard-response","76","176415","0.0-6.0-1.32","test",".","",",","",""
"null","<div style=""color:white; font-size:60px;"">+</div>","null","html-keyboard-response","77","177417","0.0-6.0-0.33","fixation","","","","",""
"2638.000000000815","Stimuli/Hangul_F19.bmp","190","image-keyboard-response","78","180056","0.0-6.0-1.33","test",".","",".","",""
"null","<div style=""color:white; font-size:60px;"">+</div>","null","html-keyboard-response","79","181059","0.0-6.0-0.34","fixation","","","","",""
"2242.185000000958","Stimuli/Hangul_F4.bmp","188","image-keyboard-response","80","183303","0.0-6.0-1.34","test",".","",",","",""
"null","<div style=""color:white; font-size:60px;"">+</div>","null","html-keyboard-response","81","184305","0.0-6.0-0.35","fixation","","","","",""
"2307.0449999995762","Stimuli/Hangul_M8.bmp","188","image-keyboard-response","82","186614","0.0-6.0-1.35","test",",","",",","",""
"null","<div style=""color:white; font-size:60px;"">+</div>","null","html-keyboard-response","83","187616","0.0-6.0-0.36","fixation","","","","",""
"1965.795000000071","Stimuli/Hangul_M14.bmp","188","image-keyboard-response","84","189582","0.0-6.0-1.36","test",",","",",","",""
"null","<div style=""color:white; font-size:60px;"">+</div>","null","html-keyboard-response","85","190584","0.0-6.0-0.37","fixation","","","","",""
"2381.865000001184","Stimuli/Hangul_M6.bmp","188","image-keyboard-response","86","192967","0.0-6.0-1.37","test",",","",",","",""
"null","<div style=""color:white; font-size:60px;"">+</div>","null","html-keyboard-response","87","193968","0.0-6.0-0.38","fixation","","","","",""
"2237.039999999979","Stimuli/Hangul_M4.bmp","188","image-keyboard-response","88","196206","0.0-6.0-1.38","test",",","",",","",""
"null","<div style=""color:white; font-size:60px;"">+</div>","null","html-keyboard-response","89","197208","0.0-6.0-0.39","fixation","","","","",""
"2029.9200000008568","Stimuli/Hangul_M9.bmp","190","image-keyboard-response","90","199239","0.0-6.0-1.39","test",",","",".","",""
"null","<div style=""color:white; font-size:60px;"">+</div>","null","html-keyboard-response","91","200242","0.0-6.0-0.40","fixation","","","","",""
"2107.249999999127","Stimuli/Hangul_F22.bmp","190","image-keyboard-response","92","202351","0.0-6.0-1.40","test",".","",".","",""
"null","<div style=""color:white; font-size:60px;"">+</div>","null","html-keyboard-response","93","203353","0.0-6.0-0.41","fixation","","","","",""
"4196.909999998752","Stimuli/Hangul_F18.bmp","190","image-keyboard-response","94","207551","0.0-6.0-1.41","test",".","",".","",""
"null","<div style=""color:white; font-size:60px;"">+</div>","null","html-keyboard-response","95","208554","0.0-6.0-0.42","fixation","","","","",""
"3474.109999999171","Stimuli/Hangul_F11.bmp","188","image-keyboard-response","96","212031","0.0-6.0-1.42","test",".","",",","",""
"null","<div style=""color:white; font-size:60px;"">+</div>","null","html-keyboard-response","97","213033","0.0-6.0-0.43","fixation","","","","",""
"2627.735000000015","Stimuli/Hangul_M13.bmp","190","image-keyboard-response","98","215663","0.0-6.0-1.43","test",",","",".","",""
"null","<div style=""color:white; font-size:60px;"">+</div>","null","html-keyboard-response","99","216666","0.0-6.0-0.44","fixation","","","","",""
"3002.0949999998556","Stimuli/Hangul_M21.bmp","188","image-keyboard-response","100","219670","0.0-6.0-1.44","test",",","",",","",""
"null","<div style=""color:white; font-size:60px;"">+</div>","null","html-keyboard-response","101","220673","0.0-6.0-0.45","fixation","","","","",""
"2995.769999999553","Stimuli/Hangul_F8.bmp","188","image-keyboard-response","102","223671","0.0-6.0-1.45","test",".","",",","",""
"null","<div style=""color:white; font-size:60px;"">+</div>","null","html-keyboard-response","103","224674","0.0-6.0-0.46","fixation","","","","",""
"2291.9550000005984","Stimuli/Hangul_F13.bmp","188","image-keyboard-response","104","226967","0.0-6.0-1.46","test",".","",",","",""
"null","<div style=""color:white; font-size:60px;"">+</div>","null","html-keyboard-response","105","227969","0.0-6.0-0.47","fixation","","","","",""
"2525.6900000003807","Stimuli/Hangul_F15.bmp","190","image-keyboard-response","106","230496","0.0-6.0-1.47","test",".","",".","",""
"null","<div style=""color:white; font-size:60px;"">+</div>","null","html-keyboard-response","107","231498","0.0-6.0-0.48","fixation","","","","",""
"2450.590000000375","Stimuli/Hangul_F21.bmp","190","image-keyboard-response","108","233951","0.0-6.0-1.48","test",".","",".","",""
"null","<div style=""color:white; font-size:60px;"">+</div>","null","html-keyboard-response","109","234953","0.0-6.0-0.49","fixation","","","","",""
"1460.4799999997194","Stimuli/Hangul_M1.bmp","188","image-keyboard-response","110","236415","0.0-6.0-1.49","test",",","",",","",""
"444273.1899999998","<p style=""color:white;"">Good job, block 1 complete! Please take a moment to rest.</p> <p style=""color:white;"">When you are ready to continue with block 2 of 4, press the space bar.</p> ","32","html-keyboard-response","111","678814","0.0-7.0","","","","","",""
"null","<div style=""color:white; font-size:60px;"">+</div>","null","html-keyboard-response","112","681818","0.0-8.0-0.0","fixation","","","","",""
"2326.5799999990268","Stimuli/Hangul_F32.bmp","190","image-keyboard-response","113","684147","0.0-8.0-1.0","test",".","",".","",""
"null","<div style=""color:white; font-size:60px;"">+</div>","null","html-keyboard-response","114","685149","0.0-8.0-0.1","fixation","","","","",""
"2523.3100000005215","Stimuli/Hangul_F29.bmp","190","image-keyboard-response","115","687674","0.0-8.0-1.1","test",".","",".","",""
"null","<div style=""color:white; font-size:60px;"">+</div>","null","html-keyboard-response","116","688676","0.0-8.0-0.2","fixation","","","","",""
"3837.6349999997765","Stimuli/Hangul_M30.bmp","190","image-keyboard-response","117","692516","0.0-8.0-1.2","test",",","",".","",""
"null","<div style=""color:white; font-size:60px;"">+</div>","null","html-keyboard-response","118","693518","0.0-8.0-0.3","fixation","","","","",""
"1931.0600000007544","Stimuli/Hangul_M49.bmp","188","image-keyboard-response","119","695451","0.0-8.0-1.3","test",",","",",","",""
"null","<div style=""color:white; font-size:60px;"">+</div>","null","html-keyboard-response","120","696453","0.0-8.0-0.4","fixation","","","","",""
"2047.2850000004983","Stimuli/Hangul_M36.bmp","188","image-keyboard-response","121","698507","0.0-8.0-1.4","test",",","",",","",""
"null","<div style=""color:white; font-size:60px;"">+</div>","null","html-keyboard-response","122","699512","0.0-8.0-0.5","fixation","","","","",""
"2233.469999999157","Stimuli/Hangul_M38.bmp","188","image-keyboard-response","123","701746","0.0-8.0-1.5","test",",","",",","",""
"null","<div style=""color:white; font-size:60px;"">+</div>","null","html-keyboard-response","124","702747","0.0-8.0-0.6","fixation","","","","",""
"1895.8650000004563","Stimuli/Hangul_M35.bmp","188","image-keyboard-response","125","704644","0.0-8.0-1.6","test",",","",",","",""
"null","<div style=""color:white; font-size:60px;"">+</div>","null","html-keyboard-response","126","705646","0.0-8.0-0.7","fixation","","","","",""
"1683.9849999996368","Stimuli/Hangul_F39.bmp","190","image-keyboard-response","127","707331","0.0-8.0-1.7","test",".","",".","",""
"null","<div style=""color:white; font-size:60px;"">+</div>","null","html-keyboard-response","128","708333","0.0-8.0-0.8","fixation","","","","",""
"2531.5750000008848","Stimuli/Hangul_F40.bmp","188","image-keyboard-response","129","710867","0.0-8.0-1.8","test",".","",",","",""
"null","<div style=""color:white; font-size:60px;"">+</div>","null","html-keyboard-response","130","711869","0.0-8.0-0.9","fixation","","","","",""
"2003.8899999998976","Stimuli/Hangul_M39.bmp","188","image-keyboard-response","131","713875","0.0-8.0-1.9","test",",","",",","",""
"null","<div style=""color:white; font-size:60px;"">+</div>","null","html-keyboard-response","132","714878","0.0-8.0-0.10","fixation","","","","",""
"1619.4350000005215","Stimuli/Hangul_M25.bmp","188","image-keyboard-response","133","716498","0.0-8.0-1.10","test",",","",",","",""
"null","<div style=""color:white; font-size:60px;"">+</div>","null","html-keyboard-response","134","717499","0.0-8.0-0.11","fixation","","","","",""
"1997.9449999991339","Stimuli/Hangul_M47.bmp","190","image-keyboard-response","135","719499","0.0-8.0-1.11","test",",","",".","",""
"null","<div style=""color:white; font-size:60px;"">+</div>","null","html-keyboard-response","136","720501","0.0-8.0-0.12","fixation","","","","",""
"2723.570000000065","Stimuli/Hangul_F33.bmp","190","image-keyboard-response","137","723226","0.0-8.0-1.12","test",".","",".","",""
"null","<div style=""color:white; font-size:60px;"">+</div>","null","html-keyboard-response","138","724228","0.0-8.0-0.13","fixation","","","","",""
"3003.945000000298","Stimuli/Hangul_M40.bmp","188","image-keyboard-response","139","727235","0.0-8.0-1.13","test",",","",",","",""
"null","<div style=""color:white; font-size:60px;"">+</div>","null","html-keyboard-response","140","728237","0.0-8.0-0.14","fixation","","","","",""
"2578.525000000722","Stimuli/Hangul_F37.bmp","190","image-keyboard-response","141","730818","0.0-8.0-1.14","test",".","",".","",""
"null","<div style=""color:white; font-size:60px;"">+</div>","null","html-keyboard-response","142","731820","0.0-8.0-0.15","fixation","","","","",""
"2821.765000000596","Stimuli/Hangul_F47.bmp","188","image-keyboard-response","143","734643","0.0-8.0-1.15","test",".","",",","",""
"null","<div style=""color:white; font-size:60px;"">+</div>","null","html-keyboard-response","144","735645","0.0-8.0-0.16","fixation","","","","",""
"1948.9950000006938","Stimuli/Hangul_M43.bmp","188","image-keyboard-response","145","737596","0.0-8.0-1.16","test",",","",",","",""
"null","<div style=""color:white; font-size:60px;"">+</div>","null","html-keyboard-response","146","738599","0.0-8.0-0.17","fixation","","","","",""
"1994.0049999986077","Stimuli/Hangul_M33.bmp","188","image-keyboard-response","147","740596","0.0-8.0-1.17","test",",","",",","",""
"null","<div style=""color:white; font-size:60px;"">+</div>","null","html-keyboard-response","148","741598","0.0-8.0-0.18","fixation","","","","",""
"1196.074999999837","Stimuli/Hangul_F34.bmp","190","image-keyboard-response","149","742795","0.0-8.0-1.18","test",".","",".","",""
"null","<div style=""color:white; font-size:60px;"">+</div>","null","html-keyboard-response","150","743797","0.0-8.0-0.19","fixation","","","","",""
"2333.4200000007404","Stimuli/Hangul_F28.bmp","188","image-keyboard-response","151","746131","0.0-8.0-1.19","test",".","",",","",""
"null","<div style=""color:white; font-size:60px;"">+</div>","null","html-keyboard-response","152","747134","0.0-8.0-0.20","fixation","","","","",""
"1733.145000000135","Stimuli/Hangul_M37.bmp","188","image-keyboard-response","153","748868","0.0-8.0-1.20","test",",","",",","",""
"null","<div style=""color:white; font-size:60px;"">+</div>","null","html-keyboard-response","154","749870","0.0-8.0-0.21","fixation","","","","",""
"1763.4699999998556","Stimuli/Hangul_F49.bmp","190","image-keyboard-response","155","751636","0.0-8.0-1.21","test",".","",".","",""
"null","<div style=""color:white; font-size:60px;"">+</div>","null","html-keyboard-response","156","752639","0.0-8.0-0.22","fixation","","","","",""
"2699.169999999809","Stimuli/Hangul_M45.bmp","190","image-keyboard-response","157","755340","0.0-8.0-1.22","test",",","",".","",""
"null","<div style=""color:white; font-size:60px;"">+</div>","null","html-keyboard-response","158","756344","0.0-8.0-0.23","fixation","","","","",""
"3513.7500000001164","Stimuli/Hangul_F44.bmp","188","image-keyboard-response","159","759859","0.0-8.0-1.23","test",".","",",","",""
"null","<div style=""color:white; font-size:60px;"">+</div>","null","html-keyboard-response","160","760861","0.0-8.0-0.24","fixation","","","","",""
"2734.015000000014","Stimuli/Hangul_F25.bmp","190","image-keyboard-response","161","763596","0.0-8.0-1.24","test",".","",".","",""
"null","<div style=""color:white; font-size:60px;"">+</div>","null","html-keyboard-response","162","764597","0.0-8.0-0.25","fixation","","","","",""
"3716.930000000517","Stimuli/Hangul_F30.bmp","190","image-keyboard-response","163","768316","0.0-8.0-1.25","test",".","",".","",""
"null","<div style=""color:white; font-size:60px;"">+</div>","null","html-keyboard-response","164","769318","0.0-8.0-0.26","fixation","","","","",""
"1435.1750000005122","Stimuli/Hangul_M28.bmp","188","image-keyboard-response","165","770755","0.0-8.0-1.26","test",",","",",","",""
"null","<div style=""color:white; font-size:60px;"">+</div>","null","html-keyboard-response","166","771757","0.0-8.0-0.27","fixation","","","","",""
"2341.9849999990547","Stimuli/Hangul_F31.bmp","188","image-keyboard-response","167","774100","0.0-8.0-1.27","test",".","",",","",""
"null","<div style=""color:white; font-size:60px;"">+</div>","null","html-keyboard-response","168","775101","0.0-8.0-0.28","fixation","","","","",""
"2083.94000000041","Stimuli/Hangul_M26.bmp","188","image-keyboard-response","169","777188","0.0-8.0-1.28","test",",","",",","",""
"null","<div style=""color:white; font-size:60px;"">+</div>","null","html-keyboard-response","170","778190","0.0-8.0-0.29","fixation","","","","",""
"1427.2299999992829","Stimuli/Hangul_M34.bmp","188","image-keyboard-response","171","779620","0.0-8.0-1.29","test",",","",",","",""
"null","<div style=""color:white; font-size:60px;"">+</div>","null","html-keyboard-response","172","780622","0.0-8.0-0.30","fixation","","","","",""
"1661.4750000007916","Stimuli/Hangul_M32.bmp","188","image-keyboard-response","173","782285","0.0-8.0-1.30","test",",","",",","",""
"null","<div style=""color:white; font-size:60px;"">+</div>","null","html-keyboard-response","174","783286","0.0-8.0-0.31","fixation","","","","",""
"2540.409999999567","Stimuli/Hangul_F35.bmp","190","image-keyboard-response","175","785827","0.0-8.0-1.31","test",".","",".","",""
"null","<div style=""color:white; font-size:60px;"">+</div>","null","html-keyboard-response","176","786829","0.0-8.0-0.32","fixation","","","","",""
"2372.695000000065","Stimuli/Hangul_F42.bmp","190","image-keyboard-response","177","789204","0.0-8.0-1.32","test",".","",".","",""
"null","<div style=""color:white; font-size:60px;"">+</div>","null","html-keyboard-response","178","790205","0.0-8.0-0.33","fixation","","","","",""
"1883.3649999996414","Stimuli/Hangul_M27.bmp","188","image-keyboard-response","179","792092","0.0-8.0-1.33","test",",","",",","",""
"null","<div style=""color:white; font-size:60px;"">+</div>","null","html-keyboard-response","180","793095","0.0-8.0-0.34","fixation","","","","",""
"1284.6250000002328","Stimuli/Hangul_F38.bmp","188","image-keyboard-response","181","794381","0.0-8.0-1.34","test",".","",",","",""
"null","<div style=""color:white; font-size:60px;"">+</div>","null","html-keyboard-response","182","795383","0.0-8.0-0.35","fixation","","","","",""
"1332.060000000638","Stimuli/Hangul_M48.bmp","188","image-keyboard-response","183","796716","0.0-8.0-1.35","test",",","",",","",""
"null","<div style=""color:white; font-size:60px;"">+</div>","null","html-keyboard-response","184","797720","0.0-8.0-0.36","fixation","","","","",""
"1195.459999998915","Stimuli/Hangul_M29.bmp","188","image-keyboard-response","185","798916","0.0-8.0-1.36","test",",","",",","",""
"null","<div style=""color:white; font-size:60px;"">+</div>","null","html-keyboard-response","186","799918","0.0-8.0-0.37","fixation","","","","",""
"1770.9950000008103","Stimuli/Hangul_F45.bmp","188","image-keyboard-response","187","801691","0.0-8.0-1.37","test",".","",",","",""
"null","<div style=""color:white; font-size:60px;"">+</div>","null","html-keyboard-response","188","802692","0.0-8.0-0.38","fixation","","","","",""
"2806.555000001099","Stimuli/Hangul_F43.bmp","190","image-keyboard-response","189","805501","0.0-8.0-1.38","test",".","",".","",""
"null","<div style=""color:white; font-size:60px;"">+</div>","null","html-keyboard-response","190","806503","0.0-8.0-0.39","fixation","","","","",""
"3444.994999999879","Stimuli/Hangul_F48.bmp","190","image-keyboard-response","191","809955","0.0-8.0-1.39","test",".","",".","",""
"null","<div style=""color:white; font-size:60px;"">+</div>","null","html-keyboard-response","192","810957","0.0-8.0-0.40","fixation","","","","",""
"2084.789999998873","Stimuli/Hangul_F36.bmp","188","image-keyboard-response","193","813043","0.0-8.0-1.40","test",".","",",","",""
"null","<div style=""color:white; font-size:60px;"">+</div>","null","html-keyboard-response","194","814045","0.0-8.0-0.41","fixation","","","","",""
"1707.5299999996787","Stimuli/Hangul_F27.bmp","188","image-keyboard-response","195","815755","0.0-8.0-1.41","test",".","",",","",""
"null","<div style=""color:white; font-size:60px;"">+</div>","null","html-keyboard-response","196","816757","0.0-8.0-0.42","fixation","","","","",""
"1980.8850000009406","Stimuli/Hangul_M46.bmp","188","image-keyboard-response","197","818739","0.0-8.0-1.42","test",",","",",","",""
"null","<div style=""color:white; font-size:60px;"">+</div>","null","html-keyboard-response","198","819740","0.0-8.0-0.43","fixation","","","","",""
"2950.930000000866","Stimuli/Hangul_M42.bmp","190","image-keyboard-response","199","822692","0.0-8.0-1.43","test",",","",".","",""
"null","<div style=""color:white; font-size:60px;"">+</div>","null","html-keyboard-response","200","823695","0.0-8.0-0.44","fixation","","","","",""
"2186.964999999036","Stimuli/Hangul_M44.bmp","188","image-keyboard-response","201","825885","0.0-8.0-1.44","test",",","",",","",""
"null","<div style=""color:white; font-size:60px;"">+</div>","null","html-keyboard-response","202","826887","0.0-8.0-0.45","fixation","","","","",""
"4274.330000000191","Stimuli/Hangul_M31.bmp","188","image-keyboard-response","203","831164","0.0-8.0-1.45","test",",","",",","",""
"null","<div style=""color:white; font-size:60px;"">+</div>","null","html-keyboard-response","204","832166","0.0-8.0-0.46","fixation","","","","",""
"1699.7049999991432","Stimuli/Hangul_F41.bmp","190","image-keyboard-response","205","833867","0.0-8.0-1.46","test",".","",".","",""
"null","<div style=""color:white; font-size:60px;"">+</div>","null","html-keyboard-response","206","834870","0.0-8.0-0.47","fixation","","","","",""
"2677.955000001006","Stimuli/Hangul_F46.bmp","188","image-keyboard-response","207","837548","0.0-8.0-1.47","test",".","",",","",""
"null","<div style=""color:white; font-size:60px;"">+</div>","null","html-keyboard-response","208","838550","0.0-8.0-0.48","fixation","","","","",""
"1498.5050000014016","Stimuli/Hangul_M41.bmp","190","image-keyboard-response","209","840051","0.0-8.0-1.48","test",",","",".","",""
"null","<div style=""color:white; font-size:60px;"">+</div>","null","html-keyboard-response","210","841054","0.0-8.0-0.49","fixation","","","","",""
"3444.514999999199","Stimuli/Hangul_F26.bmp","188","image-keyboard-response","211","844500","0.0-8.0-1.49","test",".","",",","",""
"2541.8449999997392","<p style=""color:white;"">Half way there! Please take a moment to rest.</p> <p style=""color:white;"">When you are ready to continue with block 3 of 4, press the space bar.</p> ","32","html-keyboard-response","212","847044","0.0-9.0","","","","","",""
"null","<div style=""color:white; font-size:60px;"">+</div>","null","html-keyboard-response","213","850046","0.0-10.0-0.0","fixation","","","","",""
"3699.3149999998277","Stimuli/Hangul_M57.bmp","188","image-keyboard-response","214","853747","0.0-10.0-1.0","test",",","",",","",""
"null","<div style=""color:white; font-size:60px;"">+</div>","null","html-keyboard-response","215","854749","0.0-10.0-0.1","fixation","","","","",""
"2212.7350000010338","Stimuli/Hangul_M52.bmp","188","image-keyboard-response","216","856963","0.0-10.0-1.1","test",",","",",","",""
"null","<div style=""color:white; font-size:60px;"">+</div>","null","html-keyboard-response","217","857965","0.0-10.0-0.2","fixation","","","","",""
"2044.5799999997253","Stimuli/Hangul_F58.bmp","190","image-keyboard-response","218","860012","0.0-10.0-1.2","test",".","",".","",""
"null","<div style=""color:white; font-size:60px;"">+</div>","null","html-keyboard-response","219","861014","0.0-10.0-0.3","fixation","","","","",""
"1963.8600000016158","Stimuli/Hangul_F68.bmp","190","image-keyboard-response","220","862979","0.0-10.0-1.3","test",".","",".","",""
"null","<div style=""color:white; font-size:60px;"">+</div>","null","html-keyboard-response","221","863981","0.0-10.0-0.4","fixation","","","","",""
"2949.059999999008","Stimuli/Hangul_M63.bmp","190","image-keyboard-response","222","866931","0.0-10.0-1.4","test",",","",".","",""
"null","<div style=""color:white; font-size:60px;"">+</div>","null","html-keyboard-response","223","867933","0.0-10.0-0.5","fixation","","","","",""
"5942.00500000082","Stimuli/Hangul_M67.bmp","188","image-keyboard-response","224","873876","0.0-10.0-1.5","test",",","",",","",""
"null","<div style=""color:white; font-size:60px;"">+</div>","null","html-keyboard-response","225","874879","0.0-10.0-0.6","fixation","","","","",""
"2017.8199999991339","Stimuli/Hangul_F61.bmp","188","image-keyboard-response","226","876899","0.0-10.0-1.6","test",".","",",","",""
"null","<div style=""color:white; font-size:60px;"">+</div>","null","html-keyboard-response","227","877901","0.0-10.0-0.7","fixation","","","","",""
"2765.395000000368","Stimuli/Hangul_F59.bmp","188","image-keyboard-response","228","880667","0.0-10.0-1.7","test",".","",",","",""
"null","<div style=""color:white; font-size:60px;"">+</div>","null","html-keyboard-response","229","881669","0.0-10.0-0.8","fixation","","","","",""
"1812.3649999997579","Stimuli/Hangul_F74.bmp","190","image-keyboard-response","230","883484","0.0-10.0-1.8","test",".","",".","",""
"null","<div style=""color:white; font-size:60px;"">+</div>","null","html-keyboard-response","231","884487","0.0-10.0-0.9","fixation","","","","",""
"1915.8150000002934","Stimuli/Hangul_F64.bmp","190","image-keyboard-response","232","886404","0.0-10.0-1.9","test",".","",".","",""
"null","<div style=""color:white; font-size:60px;"">+</div>","null","html-keyboard-response","233","887406","0.0-10.0-0.10","fixation","","","","",""
"2211.1549999990966","Stimuli/Hangul_M55.bmp","188","image-keyboard-response","234","889619","0.0-10.0-1.10","test",",","",",","",""
"null","<div style=""color:white; font-size:60px;"">+</div>","null","html-keyboard-response","235","890621","0.0-10.0-0.11","fixation","","","","",""
"2037.845000000787","Stimuli/Hangul_F60.bmp","188","image-keyboard-response","236","892660","0.0-10.0-1.11","test",".","",",","",""
"null","<div style=""color:white; font-size:60px;"">+</div>","null","html-keyboard-response","237","893662","0.0-10.0-0.12","fixation","","","","",""
"1691.1349999991944","Stimuli/Hangul_F73.bmp","188","image-keyboard-response","238","895356","0.0-10.0-1.12","test",".","",",","",""
"null","<div style=""color:white; font-size:60px;"">+</div>","null","html-keyboard-response","239","896357","0.0-10.0-0.13","fixation","","","","",""
"2133.169999999227","Stimuli/Hangul_M68.bmp","190","image-keyboard-response","240","898492","0.0-10.0-1.13","test",",","",".","",""
"null","<div style=""color:white; font-size:60px;"">+</div>","null","html-keyboard-response","241","899493","0.0-10.0-0.14","fixation","","","","",""
"2060.0650000014575","Stimuli/Hangul_M72.bmp","190","image-keyboard-response","242","901556","0.0-10.0-1.14","test",",","",".","",""
"null","<div style=""color:white; font-size:60px;"">+</div>","null","html-keyboard-response","243","902558","0.0-10.0-0.15","fixation","","","","",""
"3444.3800000008196","Stimuli/Hangul_F56.bmp","188","image-keyboard-response","244","906003","0.0-10.0-1.15","test",".","",",","",""
"null","<div style=""color:white; font-size:60px;"">+</div>","null","html-keyboard-response","245","907005","0.0-10.0-0.16","fixation","","","","",""
"2317.5499999996973","Stimuli/Hangul_M56.bmp","190","image-keyboard-response","246","909324","0.0-10.0-1.16","test",",","",".","",""
"null","<div style=""color:white; font-size:60px;"">+</div>","null","html-keyboard-response","247","910327","0.0-10.0-0.17","fixation","","","","",""
"2154.8649999985937","Stimuli/Hangul_M60.bmp","190","image-keyboard-response","248","912484","0.0-10.0-1.17","test",",","",".","",""
"null","<div style=""color:white; font-size:60px;"">+</div>","null","html-keyboard-response","249","913486","0.0-10.0-0.18","fixation","","","","",""
"1771.6149999996414","Stimuli/Hangul_F53.bmp","188","image-keyboard-response","250","915260","0.0-10.0-1.18","test",".","",",","",""
"null","<div style=""color:white; font-size:60px;"">+</div>","null","html-keyboard-response","251","916263","0.0-10.0-0.19","fixation","","","","",""
"1964.8350000006612","Stimuli/Hangul_F62.bmp","190","image-keyboard-response","252","918229","0.0-10.0-1.19","test",".","",".","",""
"null","<div style=""color:white; font-size:60px;"">+</div>","null","html-keyboard-response","253","919231","0.0-10.0-0.20","fixation","","","","",""
"1611.16500000027","Stimuli/Hangul_F63.bmp","188","image-keyboard-response","254","920844","0.0-10.0-1.20","test",".","",",","",""
"null","<div style=""color:white; font-size:60px;"">+</div>","null","html-keyboard-response","255","921845","0.0-10.0-0.21","fixation","","","","",""
"2229.1249999998836","Stimuli/Hangul_M74.bmp","190","image-keyboard-response","256","924076","0.0-10.0-1.21","test",",","",".","",""
"null","<div style=""color:white; font-size:60px;"">+</div>","null","html-keyboard-response","257","925079","0.0-10.0-0.22","fixation","","","","",""
"2162.1599999997998","Stimuli/Hangul_M62.bmp","190","image-keyboard-response","258","927244","0.0-10.0-1.22","test",",","",".","",""
"null","<div style=""color:white; font-size:60px;"">+</div>","null","html-keyboard-response","259","928246","0.0-10.0-0.23","fixation","","","","",""
"1564.9499999999534","Stimuli/Hangul_F52.bmp","188","image-keyboard-response","260","929813","0.0-10.0-1.23","test",".","",",","",""
"null","<div style=""color:white; font-size:60px;"">+</div>","null","html-keyboard-response","261","930816","0.0-10.0-0.24","fixation","","","","",""
"1802.0649999998277","Stimuli/Hangul_F50.bmp","188","image-keyboard-response","262","932620","0.0-10.0-1.24","test",".","",",","",""
"null","<div style=""color:white; font-size:60px;"">+</div>","null","html-keyboard-response","263","933623","0.0-10.0-0.25","fixation","","","","",""
"1962.449999999022","Stimuli/Hangul_F66.bmp","190","image-keyboard-response","264","935588","0.0-10.0-1.25","test",".","",".","",""
"null","<div style=""color:white; font-size:60px;"">+</div>","null","html-keyboard-response","265","936594","0.0-10.0-0.26","fixation","","","","",""
"2160.0749999997206","Stimuli/Hangul_F67.bmp","188","image-keyboard-response","266","938755","0.0-10.0-1.26","test",".","",",","",""
"null","<div style=""color:white; font-size:60px;"">+</div>","null","html-keyboard-response","267","939757","0.0-10.0-0.27","fixation","","","","",""
"2175.2749999995576","Stimuli/Hangul_M73.bmp","190","image-keyboard-response","268","941933","0.0-10.0-1.27","test",",","",".","",""
"null","<div style=""color:white; font-size:60px;"">+</div>","null","html-keyboard-response","269","942935","0.0-10.0-0.28","fixation","","","","",""
"1875.4349999999395","Stimuli/Hangul_F70.bmp","188","image-keyboard-response","270","944812","0.0-10.0-1.28","test",".","",",","",""
"null","<div style=""color:white; font-size:60px;"">+</div>","null","html-keyboard-response","271","945813","0.0-10.0-0.29","fixation","","","","",""
"2324.2250000002095","Stimuli/Hangul_F54.bmp","188","image-keyboard-response","272","948140","0.0-10.0-1.29","test",".","",",","",""
"null","<div style=""color:white; font-size:60px;"">+</div>","null","html-keyboard-response","273","949142","0.0-10.0-0.30","fixation","","","","",""
"1923.0050000005867","Stimuli/Hangul_M59.bmp","190","image-keyboard-response","274","951068","0.0-10.0-1.30","test",",","",".","",""
"null","<div style=""color:white; font-size:60px;"">+</div>","null","html-keyboard-response","275","952071","0.0-10.0-0.31","fixation","","","","",""
"2508.125000000233","Stimuli/Hangul_F69.bmp","190","image-keyboard-response","276","954580","0.0-10.0-1.31","test",".","",".","",""
"null","<div style=""color:white; font-size:60px;"">+</div>","null","html-keyboard-response","277","955582","0.0-10.0-0.32","fixation","","","","",""
"1938.8149999994785","Stimuli/Hangul_M54.bmp","188","image-keyboard-response","278","957524","0.0-10.0-1.32","test",",","",",","",""
"null","<div style=""color:white; font-size:60px;"">+</div>","null","html-keyboard-response","279","958526","0.0-10.0-0.33","fixation","","","","",""
"1828.6499999995576","Stimuli/Hangul_F55.bmp","188","image-keyboard-response","280","960356","0.0-10.0-1.33","test",".","",",","",""
"null","<div style=""color:white; font-size:60px;"">+</div>","null","html-keyboard-response","281","961358","0.0-10.0-0.34","fixation","","","","",""
"1539.3899999998976","Stimuli/Hangul_M58.bmp","188","image-keyboard-response","282","962899","0.0-10.0-1.34","test",",","",",","",""
"null","<div style=""color:white; font-size:60px;"">+</div>","null","html-keyboard-response","283","963901","0.0-10.0-0.35","fixation","","","","",""
"1510.0899999997346","Stimuli/Hangul_F65.bmp","190","image-keyboard-response","284","965413","0.0-10.0-1.35","test",".","",".","",""
"null","<div style=""color:white; font-size:60px;"">+</div>","null","html-keyboard-response","285","966415","0.0-10.0-0.36","fixation","","","","",""
"1915.5400000000373","Stimuli/Hangul_F57.bmp","190","image-keyboard-response","286","968332","0.0-10.0-1.36","test",".","",".","",""
"null","<div style=""color:white; font-size:60px;"">+</div>","null","html-keyboard-response","287","969335","0.0-10.0-0.37","fixation","","","","",""
"1977.9099999996834","Stimuli/Hangul_M61.bmp","188","image-keyboard-response","288","971315","0.0-10.0-1.37","test",",","",",","",""
"null","<div style=""color:white; font-size:60px;"">+</div>","null","html-keyboard-response","289","972316","0.0-10.0-0.38","fixation","","","","",""
"2893.935000000056","Stimuli/Hangul_M69.bmp","190","image-keyboard-response","290","975211","0.0-10.0-1.38","test",",","",".","",""
"null","<div style=""color:white; font-size:60px;"">+</div>","null","html-keyboard-response","291","976212","0.0-10.0-0.39","fixation","","","","",""
"2390.2550000002375","Stimuli/Hangul_F51.bmp","188","image-keyboard-response","292","978605","0.0-10.0-1.39","test",".","",",","",""
"null","<div style=""color:white; font-size:60px;"">+</div>","null","html-keyboard-response","293","979608","0.0-10.0-0.40","fixation","","","","",""
"1953.8499999998603","Stimuli/Hangul_F72.bmp","188","image-keyboard-response","294","981563","0.0-10.0-1.40","test",".","",",","",""
"null","<div style=""color:white; font-size:60px;"">+</div>","null","html-keyboard-response","295","982565","0.0-10.0-0.41","fixation","","","","",""
"4036.330000000773","Stimuli/Hangul_M65.bmp","190","image-keyboard-response","296","986603","0.0-10.0-1.41","test",",","",".","",""
"null","<div style=""color:white; font-size:60px;"">+</div>","null","html-keyboard-response","297","987605","0.0-10.0-0.42","fixation","","","","",""
"1812.735000001383","Stimuli/Hangul_M70.bmp","188","image-keyboard-response","298","989421","0.0-10.0-1.42","test",",","",",","",""
"null","<div style=""color:white; font-size:60px;"">+</div>","null","html-keyboard-response","299","990424","0.0-10.0-0.43","fixation","","","","",""
"2218.4500000003027","Stimuli/Hangul_M66.bmp","190","image-keyboard-response","300","992643","0.0-10.0-1.43","test",",","",".","",""
"null","<div style=""color:white; font-size:60px;"">+</div>","null","html-keyboard-response","301","993646","0.0-10.0-0.44","fixation","","","","",""
"2018.9749999990454","Stimuli/Hangul_F71.bmp","188","image-keyboard-response","302","995667","0.0-10.0-1.44","test",".","",",","",""
"null","<div style=""color:white; font-size:60px;"">+</div>","null","html-keyboard-response","303","996670","0.0-10.0-0.45","fixation","","","","",""
"1739.839999998454","Stimuli/Hangul_M50.bmp","188","image-keyboard-response","304","998411","0.0-10.0-1.45","test",",","",",","",""
"null","<div style=""color:white; font-size:60px;"">+</div>","null","html-keyboard-response","305","999413","0.0-10.0-0.46","fixation","","","","",""
"4246.199999999604","Stimuli/Hangul_M51.bmp","188","image-keyboard-response","306","1003660","0.0-10.0-1.46","test",",","",",","",""
"null","<div style=""color:white; font-size:60px;"">+</div>","null","html-keyboard-response","307","1004662","0.0-10.0-0.47","fixation","","","","",""
"3178.8900000010617","Stimuli/Hangul_M71.bmp","190","image-keyboard-response","308","1007843","0.0-10.0-1.47","test",",","",".","",""
"null","<div style=""color:white; font-size:60px;"">+</div>","null","html-keyboard-response","309","1008846","0.0-10.0-0.48","fixation","","","","",""
"2722.9600000010105","Stimuli/Hangul_M64.bmp","190","image-keyboard-response","310","1011571","0.0-10.0-1.48","test",",","",".","",""
"null","<div style=""color:white; font-size:60px;"">+</div>","null","html-keyboard-response","311","1012573","0.0-10.0-0.49","fixation","","","","",""
"1502.36500000034","Stimuli/Hangul_M53.bmp","188","image-keyboard-response","312","1014076","0.0-10.0-1.49","test",",","",",","",""
"3117.0499999988824","<p style=""color:white;"">One more block to go! Please take a moment to rest.</p> <p style=""color:white;"">When you are ready to continue with block 4 of 4, press the space bar.</p> ","32","html-keyboard-response","313","1017195","0.0-11.0","","","","","",""
"null","<div style=""color:white; font-size:60px;"">+</div>","null","html-keyboard-response","314","1020198","0.0-12.0-0.0","fixation","","","","",""
"2402.1099999990547","Stimuli/Hangul_M76.bmp","188","image-keyboard-response","315","1022603","0.0-12.0-1.0","test",",","",",","",""
"null","<div style=""color:white; font-size:60px;"">+</div>","null","html-keyboard-response","316","1023605","0.0-12.0-0.1","fixation","","","","",""
"3086.274999999674","Stimuli/Hangul_M75.bmp","190","image-keyboard-response","317","1026692","0.0-12.0-1.1","test",",","",".","",""
"null","<div style=""color:white; font-size:60px;"">+</div>","null","html-keyboard-response","318","1027695","0.0-12.0-0.2","fixation","","","","",""
"2746.5249999986263","Stimuli/Hangul_M91.bmp","188","image-keyboard-response","319","1030443","0.0-12.0-1.2","test",",","",",","",""
"null","<div style=""color:white; font-size:60px;"">+</div>","null","html-keyboard-response","320","1031445","0.0-12.0-0.3","fixation","","","","",""
"1963.6250000003492","Stimuli/Hangul_F92.bmp","188","image-keyboard-response","321","1033411","0.0-12.0-1.3","test",".","",",","",""
"null","<div style=""color:white; font-size:60px;"">+</div>","null","html-keyboard-response","322","1034413","0.0-12.0-0.4","fixation","","","","",""
"1947.5650000004098","Stimuli/Hangul_F80.bmp","190","image-keyboard-response","323","1036363","0.0-12.0-1.4","test",".","",".","",""
"null","<div style=""color:white; font-size:60px;"">+</div>","null","html-keyboard-response","324","1037366","0.0-12.0-0.5","fixation","","","","",""
"4916.159999998985","Stimuli/Hangul_M92.bmp","190","image-keyboard-response","325","1042284","0.0-12.0-1.5","test",",","",".","",""
"null","<div style=""color:white; font-size:60px;"">+</div>","null","html-keyboard-response","326","1043286","0.0-12.0-0.6","fixation","","","","",""
"4067.4549999984447","Stimuli/Hangul_M84.bmp","188","image-keyboard-response","327","1047355","0.0-12.0-1.6","test",",","",",","",""
"null","<div style=""color:white; font-size:60px;"">+</div>","null","html-keyboard-response","328","1048357","0.0-12.0-0.7","fixation","","","","",""
"1970.509999999078","Stimuli/Hangul_F99.bmp","190","image-keyboard-response","329","1050330","0.0-12.0-1.7","test",".","",".","",""
"null","<div style=""color:white; font-size:60px;"">+</div>","null","html-keyboard-response","330","1051332","0.0-12.0-0.8","fixation","","","","",""
"1797.27000000095","Stimuli/Hangul_M98.bmp","190","image-keyboard-response","331","1053132","0.0-12.0-1.8","test",",","",".","",""
"null","<div style=""color:white; font-size:60px;"">+</div>","null","html-keyboard-response","332","1054135","0.0-12.0-0.9","fixation","","","","",""
"2411.530000001192","Stimuli/Hangul_F84.bmp","188","image-keyboard-response","333","1056547","0.0-12.0-1.9","test",".","",",","",""
"null","<div style=""color:white; font-size:60px;"">+</div>","null","html-keyboard-response","334","1057550","0.0-12.0-0.10","fixation","","","","",""
"1850.575000000419","Stimuli/Hangul_M99.bmp","190","image-keyboard-response","335","1059403","0.0-12.0-1.10","test",",","",".","",""
"null","<div style=""color:white; font-size:60px;"">+</div>","null","html-keyboard-response","336","1060406","0.0-12.0-0.11","fixation","","","","",""
"1843.1099999996368","Stimuli/Hangul_F87.bmp","190","image-keyboard-response","337","1062251","0.0-12.0-1.11","test",".","",".","",""
"null","<div style=""color:white; font-size:60px;"">+</div>","null","html-keyboard-response","338","1063254","0.0-12.0-0.12","fixation","","","","",""
"1340.649999998277","Stimuli/Hangul_M83.bmp","188","image-keyboard-response","339","1064596","0.0-12.0-1.12","test",",","",",","",""
"null","<div style=""color:white; font-size:60px;"">+</div>","null","html-keyboard-response","340","1065599","0.0-12.0-0.13","fixation","","","","",""
"1729.0750000011176","Stimuli/Hangul_F76.bmp","190","image-keyboard-response","341","1067331","0.0-12.0-1.13","test",".","",".","",""
"null","<div style=""color:white; font-size:60px;"">+</div>","null","html-keyboard-response","342","1068337","0.0-12.0-0.14","fixation","","","","",""
"1640.5449999982957","Stimuli/Hangul_F89.bmp","190","image-keyboard-response","343","1069979","0.0-12.0-1.14","test",".","",".","",""
"null","<div style=""color:white; font-size:60px;"">+</div>","null","html-keyboard-response","344","1070981","0.0-12.0-0.15","fixation","","","","",""
"1541.6100000003353","Stimuli/Hangul_M80.bmp","188","image-keyboard-response","345","1072524","0.0-12.0-1.15","test",",","",",","",""
"null","<div style=""color:white; font-size:60px;"">+</div>","null","html-keyboard-response","346","1073526","0.0-12.0-0.16","fixation","","","","",""
"1803.869999999646","Stimuli/Hangul_F86.bmp","190","image-keyboard-response","347","1075333","0.0-12.0-1.16","test",".","",".","",""
"null","<div style=""color:white; font-size:60px;"">+</div>","null","html-keyboard-response","348","1076335","0.0-12.0-0.17","fixation","","","","",""
"2267.610000000801","Stimuli/Hangul_M78.bmp","190","image-keyboard-response","349","1078603","0.0-12.0-1.17","test",",","",".","",""
"null","<div style=""color:white; font-size:60px;"">+</div>","null","html-keyboard-response","350","1079606","0.0-12.0-0.18","fixation","","","","",""
"1731.280000000028","Stimuli/Hangul_F98.bmp","188","image-keyboard-response","351","1081339","0.0-12.0-1.18","test",".","",",","",""
"null","<div style=""color:white; font-size:60px;"">+</div>","null","html-keyboard-response","352","1082343","0.0-12.0-0.19","fixation","","","","",""
"1491.7050000003073","Stimuli/Hangul_M79.bmp","188","image-keyboard-response","353","1083835","0.0-12.0-1.19","test",",","",",","",""
"null","<div style=""color:white; font-size:60px;"">+</div>","null","html-keyboard-response","354","1084838","0.0-12.0-0.20","fixation","","","","",""
"1390.1999999997206","Stimuli/Hangul_F93.bmp","190","image-keyboard-response","355","1086228","0.0-12.0-1.20","test",".","",".","",""
"null","<div style=""color:white; font-size:60px;"">+</div>","null","html-keyboard-response","356","1087230","0.0-12.0-0.21","fixation","","","","",""
"1572.030000001192","Stimuli/Hangul_F83.bmp","188","image-keyboard-response","357","1088804","0.0-12.0-1.21","test",".","",",","",""
"null","<div style=""color:white; font-size:60px;"">+</div>","null","html-keyboard-response","358","1089806","0.0-12.0-0.22","fixation","","","","",""
"1867.4300000001676","Stimuli/Hangul_M88.bmp","190","image-keyboard-response","359","1091675","0.0-12.0-1.22","test",",","",".","",""
"null","<div style=""color:white; font-size:60px;"">+</div>","null","html-keyboard-response","360","1092677","0.0-12.0-0.23","fixation","","","","",""
"1948.7949999985285","Stimuli/Hangul_M85.bmp","190","image-keyboard-response","361","1094627","0.0-12.0-1.23","test",",","",".","",""
"null","<div style=""color:white; font-size:60px;"">+</div>","null","html-keyboard-response","362","1095630","0.0-12.0-0.24","fixation","","","","",""
"1811.7650000003632","Stimuli/Hangul_M87.bmp","188","image-keyboard-response","363","1097444","0.0-12.0-1.24","test",",","",",","",""
"null","<div style=""color:white; font-size:60px;"">+</div>","null","html-keyboard-response","364","1098445","0.0-12.0-0.25","fixation","","","","",""
"1772.809999998426","Stimuli/Hangul_M77.bmp","190","image-keyboard-response","365","1100219","0.0-12.0-1.25","test",",","",".","",""
"null","<div style=""color:white; font-size:60px;"">+</div>","null","html-keyboard-response","366","1101222","0.0-12.0-0.26","fixation","","","","",""
"2036.3199999991339","Stimuli/Hangul_F78.bmp","188","image-keyboard-response","367","1103260","0.0-12.0-1.26","test",".","",",","",""
"null","<div style=""color:white; font-size:60px;"">+</div>","null","html-keyboard-response","368","1104262","0.0-12.0-0.27","fixation","","","","",""
"1667.5649999997113","Stimuli/Hangul_F81.bmp","188","image-keyboard-response","369","1105932","0.0-12.0-1.27","test",".","",",","",""
"null","<div style=""color:white; font-size:60px;"">+</div>","null","html-keyboard-response","370","1106934","0.0-12.0-0.28","fixation","","","","",""
"2069.4600000006612","Stimuli/Hangul_F75.bmp","190","image-keyboard-response","371","1109004","0.0-12.0-1.28","test",".","",".","",""
"null","<div style=""color:white; font-size:60px;"">+</div>","null","html-keyboard-response","372","1110007","0.0-12.0-0.29","fixation","","","","",""
"2146.8599999989383","Stimuli/Hangul_F91.bmp","188","image-keyboard-response","373","1112156","0.0-12.0-1.29","test",".","",",","",""
"null","<div style=""color:white; font-size:60px;"">+</div>","null","html-keyboard-response","374","1113158","0.0-12.0-0.30","fixation","","","","",""
"1924.9050000016578","Stimuli/Hangul_F77.bmp","190","image-keyboard-response","375","1115084","0.0-12.0-1.30","test",".","",".","",""
"null","<div style=""color:white; font-size:60px;"">+</div>","null","html-keyboard-response","376","1116086","0.0-12.0-0.31","fixation","","","","",""
"2036.2349999996368","Stimuli/Hangul_F97.bmp","190","image-keyboard-response","377","1118124","0.0-12.0-1.31","test",".","",".","",""
"null","<div style=""color:white; font-size:60px;"">+</div>","null","html-keyboard-response","378","1119126","0.0-12.0-0.32","fixation","","","","",""
"2126.4950000005774","Stimuli/Hangul_F94.bmp","188","image-keyboard-response","379","1121253","0.0-12.0-1.32","test",".","",",","",""
"null","<div style=""color:white; font-size:60px;"">+</div>","null","html-keyboard-response","380","1122255","0.0-12.0-0.33","fixation","","","","",""
"2154.7650000010617","Stimuli/Hangul_F90.bmp","190","image-keyboard-response","381","1124412","0.0-12.0-1.33","test",".","",".","",""
"null","<div style=""color:white; font-size:60px;"">+</div>","null","html-keyboard-response","382","1125414","0.0-12.0-0.34","fixation","","","","",""
"1916.749999998603","Stimuli/Hangul_M94.bmp","190","image-keyboard-response","383","1127332","0.0-12.0-1.34","test",",","",".","",""
"null","<div style=""color:white; font-size:60px;"">+</div>","null","html-keyboard-response","384","1128335","0.0-12.0-0.35","fixation","","","","",""
"1818.8900000003632","Stimuli/Hangul_M82.bmp","188","image-keyboard-response","385","1130155","0.0-12.0-1.35","test",",","",",","",""
"null","<div style=""color:white; font-size:60px;"">+</div>","null","html-keyboard-response","386","1131156","0.0-12.0-0.36","fixation","","","","",""
"2791.3549999995157","Stimuli/Hangul_M97.bmp","190","image-keyboard-response","387","1133949","0.0-12.0-1.36","test",",","",".","",""
"null","<div style=""color:white; font-size:60px;"">+</div>","null","html-keyboard-response","388","1134952","0.0-12.0-0.37","fixation","","","","",""
"1642.1399999998976","Stimuli/Hangul_F95.bmp","188","image-keyboard-response","389","1136596","0.0-12.0-1.37","test",".","",",","",""
"null","<div style=""color:white; font-size:60px;"">+</div>","null","html-keyboard-response","390","1137598","0.0-12.0-0.38","fixation","","","","",""
"2035.7199999997392","Stimuli/Hangul_M96.bmp","190","image-keyboard-response","391","1139636","0.0-12.0-1.38","test",",","",".","",""
"null","<div style=""color:white; font-size:60px;"">+</div>","null","html-keyboard-response","392","1140638","0.0-12.0-0.39","fixation","","","","",""
"1515.9400000011083","Stimuli/Hangul_F85.bmp","188","image-keyboard-response","393","1142156","0.0-12.0-1.39","test",".","",",","",""
"null","<div style=""color:white; font-size:60px;"">+</div>","null","html-keyboard-response","394","1143158","0.0-12.0-0.40","fixation","","","","",""
"2245.5499999998137","Stimuli/Hangul_F79.bmp","190","image-keyboard-response","395","1145405","0.0-12.0-1.40","test",".","",".","",""
"null","<div style=""color:white; font-size:60px;"">+</div>","null","html-keyboard-response","396","1146408","0.0-12.0-0.41","fixation","","","","",""
"1849.8049999999348","Stimuli/Hangul_F82.bmp","188","image-keyboard-response","397","1148260","0.0-12.0-1.41","test",".","",",","",""
"null","<div style=""color:white; font-size:60px;"">+</div>","null","html-keyboard-response","398","1149262","0.0-12.0-0.42","fixation","","","","",""
"2420.104999999283","Stimuli/Hangul_M89.bmp","190","image-keyboard-response","399","1151683","0.0-12.0-1.42","test",",","",".","",""
"null","<div style=""color:white; font-size:60px;"">+</div>","null","html-keyboard-response","400","1152684","0.0-12.0-0.43","fixation","","","","",""
"2198.7950000001583","Stimuli/Hangul_M95.bmp","188","image-keyboard-response","401","1154884","0.0-12.0-1.43","test",",","",",","",""
"null","<div style=""color:white; font-size:60px;"">+</div>","null","html-keyboard-response","402","1155887","0.0-12.0-0.44","fixation","","","","",""
"2972.845000000205","Stimuli/Hangul_F96.bmp","188","image-keyboard-response","403","1158861","0.0-12.0-1.44","test",".","",",","",""
"null","<div style=""color:white; font-size:60px;"">+</div>","null","html-keyboard-response","404","1159863","0.0-12.0-0.45","fixation","","","","",""
"1986.8300000017043","Stimuli/Hangul_M93.bmp","190","image-keyboard-response","405","1161852","0.0-12.0-1.45","test",",","",".","",""
"null","<div style=""color:white; font-size:60px;"">+</div>","null","html-keyboard-response","406","1162855","0.0-12.0-0.46","fixation","","","","",""
"1890.8100000009872","Stimuli/Hangul_M90.bmp","190","image-keyboard-response","407","1164747","0.0-12.0-1.46","test",",","",".","",""
"null","<div style=""color:white; font-size:60px;"">+</div>","null","html-keyboard-response","408","1165748","0.0-12.0-0.47","fixation","","","","",""
"2253.4449999984354","Stimuli/Hangul_M86.bmp","188","image-keyboard-response","409","1168003","0.0-12.0-1.47","test",",","",",","",""
"null","<div style=""color:white; font-size:60px;"">+</div>","null","html-keyboard-response","410","1169005","0.0-12.0-0.48","fixation","","","","",""
"1869.6000000000931","Stimuli/Hangul_F88.bmp","190","image-keyboard-response","411","1170876","0.0-12.0-1.48","test",".","",".","",""
"null","<div style=""color:white; font-size:60px;"">+</div>","null","html-keyboard-response","412","1171877","0.0-12.0-0.49","fixation","","","","",""
"2242.990000000689","Stimuli/Hangul_M81.bmp","188","image-keyboard-response","413","1174123","0.0-12.0-1.49","test",",","",",","",""
"2839.5350000008475","<p style=""color:white;"">Phase I of the experiment is complete.</p> <p style=""color:white;"">Press the space bar to proceed to Phase II of the experiment.</p> ","32","html-keyboard-response","414","1176964","0.0-13.0","","","","","",""
"24486.63499999931","<p style=""color:white;"">Now we are interested in how well you can predict patterns in the series of figures. You will be asked to predict whether the next figure in the series is more male-like or female-like. When you see the <q>Next Figure</q> prompt, press the corresponding response keys to indicate your prediction: </p><p style=""color:white;""> Male &#8594 <q>,</q> (comma)</p><p style=""color:white;""> Female &#8594 <q>.</q> (period)</p><p style=""color:white;"">The actual figure will then appear on the screen. After you see the figure, please guess the assigned gender with response keys. </p><p style=""color:white;"">As before, you will receive 2 cents for correctly classifying each figure.</p><p style=""color:white;"">Press either response keys to continue.</p>","188","html-keyboard-response","415","1203453","0.0-14.0","","","","","",""
"16933.929999999236","<p style=""color:white;"">PREDICTION BONUS</p> <p style=""color:white;"">Your prediction accuracy is the total number of correct predictions you make over the 200 trials.</p> <p style=""color:white;"">In addition to the 2 cents per correct figure classification, you have the chance to receive a bonus of 40 dollars IF your accuracy is above average relative to previous participants.</p><p style=""color:white;"">If your accuracy is below average relative to previous participants, then you will not receive the 40 dollar bonus.</p><p style=""color:white;"">Press the space bar to continue.</p>","32","html-keyboard-response","416","1220389","0.0-15.0","","","","","",""
"4552.6149999988265","<p style=""color:white;"">Here are some examples.</p> <p style=""color:white;"">For each, predict whether the next figure looks more male-like or female-like. Then, when the figure appears, guess whether it looks more male-like or female-like and indicate your choice.</p> <p style=""color:white;"">Press the space bar to continue.</p>","32","html-keyboard-response","417","1224947","0.0-16.0","","","","","",""
"1653.5299999995623","<p style=""color:white;""> Next Figure: Male or Female? </p>","188","html-keyboard-response","418","1228603","0.0-17.0-0.0","prediction_train","","","",",",""
"null","<div style=""color:white; font-size:60px;"">+</div>","null","html-keyboard-response","419","1229606","0.0-17.0-1.0","fixation","","","","",""
"7589.290000001667","Stimuli/Hangul_E1.bmp","188","image-keyboard-response","420","1237196","0.0-17.0-2.0","c2_train",",","","","",","
"2869.1499999987427","<p style=""color:white;""> Next Figure: Male or Female? </p>","188","html-keyboard-response","421","1240067","0.0-17.0-0.1","prediction_train","","","",",",""
"null","<div style=""color:white; font-size:60px;"">+</div>","null","html-keyboard-response","422","1241070","0.0-17.0-1.1","fixation","","","","",""
"3171.3399999989197","Stimuli/Hangul_E2.bmp","190","image-keyboard-response","423","1244243","0.0-17.0-2.1","c2_train",".","","","","."
"3191.3300000014715","<p style=""color:white;""> Next Figure: Male or Female? </p>","188","html-keyboard-response","424","1247436","0.0-17.0-0.2","prediction_train","","","",",",""
"null","<div style=""color:white; font-size:60px;"">+</div>","null","html-keyboard-response","425","1248439","0.0-17.0-1.2","fixation","","","","",""
"1266.1299999998882","Stimuli/Hangul_E0.bmp","188","image-keyboard-response","426","1249708","0.0-17.0-2.2","c2_train",",","","","",","
"3171.8899999996647","<p style=""color:white;"">Let us begin! Press the space bar when you are ready to start block 1 of 4.</p> ","32","html-keyboard-response","427","1252883","0.0-18.0","","","","","",""
"1557.0999999998603","<p style=""color:white;""> Next Figure: Male or Female? </p>","188","html-keyboard-response","428","1256443","0.0-19.0-0.0","prediction","","","",",",""
"null","<div style=""color:white; font-size:60px;"">+</div>","null","html-keyboard-response","429","1257446","0.0-19.0-1.0","fixation","","","","",""
"2668.0899999991525","Stimuli/Hangul_F10.bmp","190","image-keyboard-response","430","1260116","0.0-19.0-2.0","c2_test",".","","","","."
"2302.1799999987707","<p style=""color:white;""> Next Figure: Male or Female? </p>","188","html-keyboard-response","431","1262420","0.0-19.0-0.1","prediction","","","",",",""
"null","<div style=""color:white; font-size:60px;"">+</div>","null","html-keyboard-response","432","1263422","0.0-19.0-1.1","fixation","","","","",""
"2194.384999998845","Stimuli/Hangul_M2.bmp","188","image-keyboard-response","433","1265619","0.0-19.0-2.1","c2_test",",","","","",","
"1894.1200000008103","<p style=""color:white;""> Next Figure: Male or Female? </p>","190","html-keyboard-response","434","1267515","0.0-19.0-0.2","prediction","","","",".",""
"null","<div style=""color:white; font-size:60px;"">+</div>","null","html-keyboard-response","435","1268517","0.0-19.0-1.2","fixation","","","","",""
"3662.1849999991246","Stimuli/Hangul_M6.bmp","190","image-keyboard-response","436","1272180","0.0-19.0-2.2","c2_test",",","","","","."
"4684.670000000391","<p style=""color:white;""> Next Figure: Male or Female? </p>","188","html-keyboard-response","437","1276867","0.0-19.0-0.3","prediction","","","",",",""
"null","<div style=""color:white; font-size:60px;"">+</div>","null","html-keyboard-response","438","1277869","0.0-19.0-1.3","fixation","","","","",""
"1500.1950000005309","Stimuli/Hangul_M17.bmp","188","image-keyboard-response","439","1279371","0.0-19.0-2.3","c2_test",",","","","",","
"1614.1349999997765","<p style=""color:white;""> Next Figure: Male or Female? </p>","188","html-keyboard-response","440","1280986","0.0-19.0-0.4","prediction","","","",",",""
"null","<div style=""color:white; font-size:60px;"">+</div>","null","html-keyboard-response","441","1281988","0.0-19.0-1.4","fixation","","","","",""
"2333.7800000009593","Stimuli/Hangul_F18.bmp","190","image-keyboard-response","442","1284324","0.0-19.0-2.4","c2_test",".","","","","."
"1436.805000001099","<p style=""color:white;""> Next Figure: Male or Female? </p>","188","html-keyboard-response","443","1285763","0.0-19.0-0.5","prediction","","","",",",""
"null","<div style=""color:white; font-size:60px;"">+</div>","null","html-keyboard-response","444","1286765","0.0-19.0-1.5","fixation","","","","",""
"1901.434999999823","Stimuli/Hangul_F0.bmp","188","image-keyboard-response","445","1288667","0.0-19.0-2.5","c2_test",".","","","",","
"2598.9899999985937","<p style=""color:white;""> Next Figure: Male or Female? </p>","188","html-keyboard-response","446","1291267","0.0-19.0-0.6","prediction","","","",",",""
"null","<div style=""color:white; font-size:60px;"">+</div>","null","html-keyboard-response","447","1292270","0.0-19.0-1.6","fixation","","","","",""
"3099.959999999497","Stimuli/Hangul_F3.bmp","188","image-keyboard-response","448","1295373","0.0-19.0-2.6","c2_test",".","","","",","
"1709.0200000002515","<p style=""color:white;""> Next Figure: Male or Female? </p>","190","html-keyboard-response","449","1297083","0.0-19.0-0.7","prediction","","","",".",""
"null","<div style=""color:white; font-size:60px;"">+</div>","null","html-keyboard-response","450","1298084","0.0-19.0-1.7","fixation","","","","",""
"1444.0649999997113","Stimuli/Hangul_M1.bmp","190","image-keyboard-response","451","1299530","0.0-19.0-2.7","c2_test",",","","","","."
"1639.639999999432","<p style=""color:white;""> Next Figure: Male or Female? </p>","188","html-keyboard-response","452","1301171","0.0-19.0-0.8","prediction","","","",",",""
"null","<div style=""color:white; font-size:60px;"">+</div>","null","html-keyboard-response","453","1302172","0.0-19.0-1.8","fixation","","","","",""
"2725.699999999255","Stimuli/Hangul_M22.bmp","188","image-keyboard-response","454","1304899","0.0-19.0-2.8","c2_test",",","","","",","
"2064.0149999998976","<p style=""color:white;""> Next Figure: Male or Female? </p>","188","html-keyboard-response","455","1306965","0.0-19.0-0.9","prediction","","","",",",""
"null","<div style=""color:white; font-size:60px;"">+</div>","null","html-keyboard-response","456","1307967","0.0-19.0-1.9","fixation","","","","",""
"4201.605000000214","Stimuli/Hangul_F8.bmp","190","image-keyboard-response","457","1312171","0.0-19.0-2.9","c2_test",".","","","","."
"7064.535000001313","<p style=""color:white;""> Next Figure: Male or Female? </p>","190","html-keyboard-response","458","1319237","0.0-19.0-0.10","prediction","","","",".",""
"null","<div style=""color:white; font-size:60px;"">+</div>","null","html-keyboard-response","459","1320239","0.0-19.0-1.10","fixation","","","","",""
"1833.8649999985937","Stimuli/Hangul_F21.bmp","190","image-keyboard-response","460","1322076","0.0-19.0-2.10","c2_test",".","","","","."
"1062.434999999823","<p style=""color:white;""> Next Figure: Male or Female? </p>","188","html-keyboard-response","461","1323140","0.0-19.0-0.11","prediction","","","",",",""
"null","<div style=""color:white; font-size:60px;"">+</div>","null","html-keyboard-response","462","1324142","0.0-19.0-1.11","fixation","","","","",""
"1987.9799999999814","Stimuli/Hangul_M4.bmp","188","image-keyboard-response","463","1326131","0.0-19.0-2.11","c2_test",",","","","",","
"1439.3799999998882","<p style=""color:white;""> Next Figure: Male or Female? </p>","190","html-keyboard-response","464","1327571","0.0-19.0-0.12","prediction","","","",".",""
"null","<div style=""color:white; font-size:60px;"">+</div>","null","html-keyboard-response","465","1328575","0.0-19.0-1.12","fixation","","","","",""
"1915.8550000009127","Stimuli/Hangul_F1.bmp","190","image-keyboard-response","466","1330492","0.0-19.0-2.12","c2_test",".","","","","."
"845.4500000006519","<p style=""color:white;""> Next Figure: Male or Female? </p>","188","html-keyboard-response","467","1331339","0.0-19.0-0.13","prediction","","","",",",""
"null","<div style=""color:white; font-size:60px;"">+</div>","null","html-keyboard-response","468","1332342","0.0-19.0-1.13","fixation","","","","",""
"1579.3950000004843","Stimuli/Hangul_F6.bmp","188","image-keyboard-response","469","1333923","0.0-19.0-2.13","c2_test",".","","","",","
"1204.0500000002794","<p style=""color:white;""> Next Figure: Male or Female? </p>","188","html-keyboard-response","470","1335131","0.0-19.0-0.14","prediction","","","",",",""
"null","<div style=""color:white; font-size:60px;"">+</div>","null","html-keyboard-response","471","1336134","0.0-19.0-1.14","fixation","","","","",""
"2012.555000001099","Stimuli/Hangul_F16.bmp","188","image-keyboard-response","472","1338147","0.0-19.0-2.14","c2_test",".","","","",","
"982.4700000006706","<p style=""color:white;""> Next Figure: Male or Female? </p>","188","html-keyboard-response","473","1339131","0.0-19.0-0.15","prediction","","","",",",""
"null","<div style=""color:white; font-size:60px;"">+</div>","null","html-keyboard-response","474","1340134","0.0-19.0-1.15","fixation","","","","",""
"1923.969999999972","Stimuli/Hangul_F11.bmp","188","image-keyboard-response","475","1342061","0.0-19.0-2.15","c2_test",".","","","",","
"1213.130000000121","<p style=""color:white;""> Next Figure: Male or Female? </p>","190","html-keyboard-response","476","1343275","0.0-19.0-0.16","prediction","","","",".",""
"null","<div style=""color:white; font-size:60px;"">+</div>","null","html-keyboard-response","477","1344277","0.0-19.0-1.16","fixation","","","","",""
"2018.5149999996647","Stimuli/Hangul_F4.bmp","190","image-keyboard-response","478","1346299","0.0-19.0-2.16","c2_test",".","","","","."
"1792.085000000894","<p style=""color:white;""> Next Figure: Male or Female? </p>","190","html-keyboard-response","479","1348092","0.0-19.0-0.17","prediction","","","",".",""
"null","<div style=""color:white; font-size:60px;"">+</div>","null","html-keyboard-response","480","1349095","0.0-19.0-1.17","fixation","","","","",""
"3635.159999999916","Stimuli/Hangul_M20.bmp","188","image-keyboard-response","481","1352732","0.0-19.0-2.17","c2_test",",","","","",","
"1045.8349999990314","<p style=""color:white;""> Next Figure: Male or Female? </p>","190","html-keyboard-response","482","1353779","0.0-19.0-0.18","prediction","","","",".",""
"null","<div style=""color:white; font-size:60px;"">+</div>","null","html-keyboard-response","483","1354782","0.0-19.0-1.18","fixation","","","","",""
"1685.4349999993574","Stimuli/Hangul_M12.bmp","190","image-keyboard-response","484","1356468","0.0-19.0-2.18","c2_test",",","","","","."
"2766.5299999990966","<p style=""color:white;""> Next Figure: Male or Female? </p>","188","html-keyboard-response","485","1359236","0.0-19.0-0.19","prediction","","","",",",""
"null","<div style=""color:white; font-size:60px;"">+</div>","null","html-keyboard-response","486","1360238","0.0-19.0-1.19","fixation","","","","",""
"1707.9849999991711","Stimuli/Hangul_M0.bmp","188","image-keyboard-response","487","1361948","0.0-19.0-2.19","c2_test",",","","","",","
"1351.2549999996554","<p style=""color:white;""> Next Figure: Male or Female? </p>","188","html-keyboard-response","488","1363301","0.0-19.0-0.20","prediction","","","",",",""
"null","<div style=""color:white; font-size:60px;"">+</div>","null","html-keyboard-response","489","1364303","0.0-19.0-1.20","fixation","","","","",""
"1931.5200000002515","Stimuli/Hangul_F9.bmp","188","image-keyboard-response","490","1366236","0.0-19.0-2.20","c2_test",".","","","",","
"949.0150000001304","<p style=""color:white;""> Next Figure: Male or Female? </p>","188","html-keyboard-response","491","1367187","0.0-19.0-0.21","prediction","","","",",",""
"null","<div style=""color:white; font-size:60px;"">+</div>","null","html-keyboard-response","492","1368190","0.0-19.0-1.21","fixation","","","","",""
"1884.709999998333","Stimuli/Hangul_M9.bmp","188","image-keyboard-response","493","1370076","0.0-19.0-2.21","c2_test",",","","","",","
"583.3599999987055","<p style=""color:white;""> Next Figure: Male or Female? </p>","188","html-keyboard-response","494","1370660","0.0-19.0-0.22","prediction","","","",",",""
"null","<div style=""color:white; font-size:60px;"">+</div>","null","html-keyboard-response","495","1371662","0.0-19.0-1.22","fixation","","","","",""
"2188.2550000010524","Stimuli/Hangul_M5.bmp","188","image-keyboard-response","496","1373853","0.0-19.0-2.22","c2_test",",","","","",","
"701.484999999404","<p style=""color:white;""> Next Figure: Male or Female? </p>","188","html-keyboard-response","497","1374556","0.0-19.0-0.23","prediction","","","",",",""
"null","<div style=""color:white; font-size:60px;"">+</div>","null","html-keyboard-response","498","1375559","0.0-19.0-1.23","fixation","","","","",""
"1698.9300000006333","Stimuli/Hangul_M10.bmp","188","image-keyboard-response","499","1377260","0.0-19.0-2.23","c2_test",",","","","",","
"654.1200000012759","<p style=""color:white;""> Next Figure: Male or Female? </p>","190","html-keyboard-response","500","1377916","0.0-19.0-0.24","prediction","","","",".",""
"null","<div style=""color:white; font-size:60px;"">+</div>","null","html-keyboard-response","501","1378931","0.0-19.0-1.24","fixation","","","","",""
"3238.3499999996275","Stimuli/Hangul_F12.bmp","190","image-keyboard-response","502","1382172","0.0-19.0-2.24","c2_test",".","","","","."
"1373.5450000003912","<p style=""color:white;""> Next Figure: Male or Female? </p>","190","html-keyboard-response","503","1383548","0.0-19.0-0.25","prediction","","","",".",""
"null","<div style=""color:white; font-size:60px;"">+</div>","null","html-keyboard-response","504","1384550","0.0-19.0-1.25","fixation","","","","",""
"1684.5549999999348","Stimuli/Hangul_M24.bmp","190","image-keyboard-response","505","1386237","0.0-19.0-2.25","c2_test",",","","","","."
"725.18500000122","<p style=""color:white;""> Next Figure: Male or Female? </p>","190","html-keyboard-response","506","1386964","0.0-19.0-0.26","prediction","","","",".",""
"null","<div style=""color:white; font-size:60px;"">+</div>","null","html-keyboard-response","507","1387966","0.0-19.0-1.26","fixation","","","","",""
"2460.9949999994133","Stimuli/Hangul_M15.bmp","188","image-keyboard-response","508","1390428","0.0-19.0-2.26","c2_test",",","","","",","
"1038.3400000010151","<p style=""color:white;""> Next Figure: Male or Female? </p>","190","html-keyboard-response","509","1391468","0.0-19.0-0.27","prediction","","","",".",""
"null","<div style=""color:white; font-size:60px;"">+</div>","null","html-keyboard-response","510","1392470","0.0-19.0-1.27","fixation","","","","",""
"2187.9900000004563","Stimuli/Hangul_F20.bmp","188","image-keyboard-response","511","1394660","0.0-19.0-2.27","c2_test",".","","","",","
"934.4249999995809","<p style=""color:white;""> Next Figure: Male or Female? </p>","188","html-keyboard-response","512","1395596","0.0-19.0-0.28","prediction","","","",",",""
"null","<div style=""color:white; font-size:60px;"">+</div>","null","html-keyboard-response","513","1396598","0.0-19.0-1.28","fixation","","","","",""
"1819.1899999983143","Stimuli/Hangul_M8.bmp","188","image-keyboard-response","514","1398420","0.0-19.0-2.28","c2_test",",","","","",","
"559.1299999996554","<p style=""color:white;""> Next Figure: Male or Female? </p>","188","html-keyboard-response","515","1398980","0.0-19.0-0.29","prediction","","","",",",""
"null","<div style=""color:white; font-size:60px;"">+</div>","null","html-keyboard-response","516","1399982","0.0-19.0-1.29","fixation","","","","",""
"1997.0899999989197","Stimuli/Hangul_M7.bmp","188","image-keyboard-response","517","1401980","0.0-19.0-2.29","c2_test",",","","","",","
"437.1300000001211","<p style=""color:white;""> Next Figure: Male or Female? </p>","188","html-keyboard-response","518","1402420","0.0-19.0-0.30","prediction","","","",",",""
"null","<div style=""color:white; font-size:60px;"">+</div>","null","html-keyboard-response","519","1403422","0.0-19.0-1.30","fixation","","","","",""
"2500.195000000531","Stimuli/Hangul_M13.bmp","188","image-keyboard-response","520","1405924","0.0-19.0-2.30","c2_test",",","","","",","
"454.25500000058673","<p style=""color:white;""> Next Figure: Male or Female? </p>","188","html-keyboard-response","521","1406380","0.0-19.0-0.31","prediction","","","",",",""
"null","<div style=""color:white; font-size:60px;"">+</div>","null","html-keyboard-response","522","1407382","0.0-19.0-1.31","fixation","","","","",""
"1821.0300000009593","Stimuli/Hangul_M14.bmp","188","image-keyboard-response","523","1409205","0.0-19.0-2.31","c2_test",",","","","",","
"540.56000000122","<p style=""color:white;""> Next Figure: Male or Female? </p>","190","html-keyboard-response","524","1409747","0.0-19.0-0.32","prediction","","","",".",""
"null","<div style=""color:white; font-size:60px;"">+</div>","null","html-keyboard-response","525","1410749","0.0-19.0-1.32","fixation","","","","",""
"2733.3400000005495","Stimuli/Hangul_F2.bmp","188","image-keyboard-response","526","1413484","0.0-19.0-2.32","c2_test",".","","","",","
"941.8650000006892","<p style=""color:white;""> Next Figure: Male or Female? </p>","190","html-keyboard-response","527","1414428","0.0-19.0-0.33","prediction","","","",".",""
"null","<div style=""color:white; font-size:60px;"">+</div>","null","html-keyboard-response","528","1415430","0.0-19.0-1.33","fixation","","","","",""
"2466.5750000001863","Stimuli/Hangul_F22.bmp","190","image-keyboard-response","529","1417900","0.0-19.0-2.33","c2_test",".","","","","."
"988.9850000001024","<p style=""color:white;""> Next Figure: Male or Female? </p>","190","html-keyboard-response","530","1418891","0.0-19.0-0.34","prediction","","","",".",""
"null","<div style=""color:white; font-size:60px;"">+</div>","null","html-keyboard-response","531","1419893","0.0-19.0-1.34","fixation","","","","",""
"3733.894999999553","Stimuli/Hangul_M16.bmp","190","image-keyboard-response","532","1423629","0.0-19.0-2.34","c2_test",",","","","","."
"549.0349999999162","<p style=""color:white;""> Next Figure: Male or Female? </p>","188","html-keyboard-response","533","1424180","0.0-19.0-0.35","prediction","","","",",",""
"null","<div style=""color:white; font-size:60px;"">+</div>","null","html-keyboard-response","534","1425182","0.0-19.0-1.35","fixation","","","","",""
"3627.8649999985937","Stimuli/Hangul_M18.bmp","190","image-keyboard-response","535","1428812","0.0-19.0-2.35","c2_test",",","","","","."
"685.9600000006612","<p style=""color:white;""> Next Figure: Male or Female? </p>","188","html-keyboard-response","536","1429500","0.0-19.0-0.36","prediction","","","",",",""
"null","<div style=""color:white; font-size:60px;"">+</div>","null","html-keyboard-response","537","1430503","0.0-19.0-1.36","fixation","","","","",""
"2825.9699999997392","Stimuli/Hangul_F19.bmp","188","image-keyboard-response","538","1433331","0.0-19.0-2.36","c2_test",".","","","",","
"368.1599999999162","<p style=""color:white;""> Next Figure: Male or Female? </p>","190","html-keyboard-response","539","1433701","0.0-19.0-0.37","prediction","","","",".",""
"null","<div style=""color:white; font-size:60px;"">+</div>","null","html-keyboard-response","540","1434704","0.0-19.0-1.37","fixation","","","","",""
"2073.3600000003353","Stimuli/Hangul_F15.bmp","188","image-keyboard-response","541","1436780","0.0-19.0-2.37","c2_test",".","","","",","
"470.34499999973923","<p style=""color:white;""> Next Figure: Male or Female? </p>","190","html-keyboard-response","542","1437252","0.0-19.0-0.38","prediction","","","",".",""
"null","<div style=""color:white; font-size:60px;"">+</div>","null","html-keyboard-response","543","1438254","0.0-19.0-1.38","fixation","","","","",""
"2532.930000001099","Stimuli/Hangul_F13.bmp","188","image-keyboard-response","544","1440787","0.0-19.0-2.38","c2_test",".","","","",","
"503.6049999999814","<p style=""color:white;""> Next Figure: Male or Female? </p>","188","html-keyboard-response","545","1441292","0.0-19.0-0.39","prediction","","","",",",""
"null","<div style=""color:white; font-size:60px;"">+</div>","null","html-keyboard-response","546","1442295","0.0-19.0-1.39","fixation","","","","",""
"3346.7750000017695","Stimuli/Hangul_F23.bmp","190","image-keyboard-response","547","1445645","0.0-19.0-2.39","c2_test",".","","","","."
"557.5700000009965","<p style=""color:white;""> Next Figure: Male or Female? </p>","188","html-keyboard-response","548","1446204","0.0-19.0-0.40","prediction","","","",",",""
"null","<div style=""color:white; font-size:60px;"">+</div>","null","html-keyboard-response","549","1447206","0.0-19.0-1.40","fixation","","","","",""
"2066.9549999984447","Stimuli/Hangul_F17.bmp","188","image-keyboard-response","550","1449276","0.0-19.0-2.40","c2_test",".","","","",","
"822.6550000000279","<p style=""color:white;""> Next Figure: Male or Female? </p>","190","html-keyboard-response","551","1450099","0.0-19.0-0.41","prediction","","","",".",""
"null","<div style=""color:white; font-size:60px;"">+</div>","null","html-keyboard-response","552","1451101","0.0-19.0-1.41","fixation","","","","",""
"1876.6400000003632","Stimuli/Hangul_F24.bmp","190","image-keyboard-response","553","1452980","0.0-19.0-2.41","c2_test",".","","","","."
"1629.8299999998417","<p style=""color:white;""> Next Figure: Male or Female? </p>","188","html-keyboard-response","554","1454612","0.0-19.0-0.42","prediction","","","",",",""
"null","<div style=""color:white; font-size:60px;"">+</div>","null","html-keyboard-response","555","1455614","0.0-19.0-1.42","fixation","","","","",""
"1653.1799999992363","Stimuli/Hangul_F7.bmp","190","image-keyboard-response","556","1457269","0.0-19.0-2.42","c2_test",".","","","","."
"709.0900000003166","<p style=""color:white;""> Next Figure: Male or Female? </p>","188","html-keyboard-response","557","1457980","0.0-19.0-0.43","prediction","","","",",",""
"null","<div style=""color:white; font-size:60px;"">+</div>","null","html-keyboard-response","558","1458982","0.0-19.0-1.43","fixation","","","","",""
"2019.7850000003818","Stimuli/Hangul_M11.bmp","188","image-keyboard-response","559","1461004","0.0-19.0-2.43","c2_test",",","","","",","
"862.6150000002235","<p style=""color:white;""> Next Figure: Male or Female? </p>","188","html-keyboard-response","560","1461868","0.0-19.0-0.44","prediction","","","",",",""
"null","<div style=""color:white; font-size:60px;"">+</div>","null","html-keyboard-response","561","1462870","0.0-19.0-1.44","fixation","","","","",""
"2963.760000000475","Stimuli/Hangul_M19.bmp","190","image-keyboard-response","562","1465836","0.0-19.0-2.44","c2_test",",","","","","."
"662.1649999998044","<p style=""color:white;""> Next Figure: Male or Female? </p>","188","html-keyboard-response","563","1466500","0.0-19.0-0.45","prediction","","","",",",""
"null","<div style=""color:white; font-size:60px;"">+</div>","null","html-keyboard-response","564","1467503","0.0-19.0-1.45","fixation","","","","",""
"2323.9250000005122","Stimuli/Hangul_F14.bmp","190","image-keyboard-response","565","1469829","0.0-19.0-2.45","c2_test",".","","","","."
"708.5199999983888","<p style=""color:white;""> Next Figure: Male or Female? </p>","190","html-keyboard-response","566","1470539","0.0-19.0-0.46","prediction","","","",".",""
"null","<div style=""color:white; font-size:60px;"">+</div>","null","html-keyboard-response","567","1471540","0.0-19.0-1.46","fixation","","","","",""
"3196.2249999996275","Stimuli/Hangul_M23.bmp","190","image-keyboard-response","568","1474739","0.0-19.0-2.46","c2_test",",","","","","."
"743.5499999991152","<p style=""color:white;""> Next Figure: Male or Female? </p>","190","html-keyboard-response","569","1475484","0.0-19.0-0.47","prediction","","","",".",""
"null","<div style=""color:white; font-size:60px;"">+</div>","null","html-keyboard-response","570","1476486","0.0-19.0-1.47","fixation","","","","",""
"2890.04000000027","Stimuli/Hangul_M21.bmp","190","image-keyboard-response","571","1479380","0.0-19.0-2.47","c2_test",",","","","","."
"639.5349999985192","<p style=""color:white;""> Next Figure: Male or Female? </p>","188","html-keyboard-response","572","1480021","0.0-19.0-0.48","prediction","","","",",",""
"null","<div style=""color:white; font-size:60px;"">+</div>","null","html-keyboard-response","573","1481023","0.0-19.0-1.48","fixation","","","","",""
"2082.5149999998976","Stimuli/Hangul_M3.bmp","188","image-keyboard-response","574","1483108","0.0-19.0-2.48","c2_test",",","","","",","
"583.2099999987986","<p style=""color:white;""> Next Figure: Male or Female? </p>","188","html-keyboard-response","575","1483692","0.0-19.0-0.49","prediction","","","",",",""
"null","<div style=""color:white; font-size:60px;"">+</div>","null","html-keyboard-response","576","1484696","0.0-19.0-1.49","fixation","","","","",""
"2001.985000000801","Stimuli/Hangul_F5.bmp","188","image-keyboard-response","577","1486700","0.0-19.0-2.49","c2_test",".","","","",","
"1260624.310000001","<p style=""color:white;"">Good job, block 1 complete! Please take a moment to rest.</p> <p style=""color:white;"">When you are ready to continue with block 2 of 4, press the space bar.</p> ","32","html-keyboard-response","578","2747327","0.0-20.0","","","","","",""
"1210.3250000001863","<p style=""color:white;""> Next Figure: Male or Female? </p>","188","html-keyboard-response","579","2750542","0.0-21.0-0.0","prediction","","","",",",""
"null","<div style=""color:white; font-size:60px;"">+</div>","null","html-keyboard-response","580","2751544","0.0-21.0-1.0","fixation","","","","",""
"2034.3100000005215","Stimuli/Hangul_F32.bmp","190","image-keyboard-response","581","2753581","0.0-21.0-2.0","c2_test",".","","","","."
"2744.225000000093","<p style=""color:white;""> Next Figure: Male or Female? </p>","190","html-keyboard-response","582","2756325","0.0-21.0-0.1","prediction","","","",".",""
"null","<div style=""color:white; font-size:60px;"">+</div>","null","html-keyboard-response","583","2757327","0.0-21.0-1.1","fixation","","","","",""
"1708.945000000298","Stimuli/Hangul_M46.bmp","188","image-keyboard-response","584","2759039","0.0-21.0-2.1","c2_test",",","","","",","
"884.5899999993853","<p style=""color:white;""> Next Figure: Male or Female? </p>","188","html-keyboard-response","585","2759925","0.0-21.0-0.2","prediction","","","",",",""
"null","<div style=""color:white; font-size:60px;"">+</div>","null","html-keyboard-response","586","2760926","0.0-21.0-1.2","fixation","","","","",""
"3061.1850000005215","Stimuli/Hangul_F28.bmp","188","image-keyboard-response","587","2763989","0.0-21.0-2.2","c2_test",".","","","",","
"718.5199999986216","<p style=""color:white;""> Next Figure: Male or Female? </p>","188","html-keyboard-response","588","2764710","0.0-21.0-0.3","prediction","","","",",",""
"null","<div style=""color:white; font-size:60px;"">+</div>","null","html-keyboard-response","589","2765712","0.0-21.0-1.3","fixation","","","","",""
"2266.8249999987893","Stimuli/Hangul_F29.bmp","190","image-keyboard-response","590","2767981","0.0-21.0-2.3","c2_test",".","","","","."
"662.8299999991432","<p style=""color:white;""> Next Figure: Male or Female? </p>","188","html-keyboard-response","591","2768646","0.0-21.0-0.4","prediction","","","",",",""
"null","<div style=""color:white; font-size:60px;"">+</div>","null","html-keyboard-response","592","2769649","0.0-21.0-1.4","fixation","","","","",""
"2602.4949999991804","Stimuli/Hangul_M29.bmp","188","image-keyboard-response","593","2772253","0.0-21.0-2.4","c2_test",",","","","",","
"1711.1700000003912","<p style=""color:white;""> Next Figure: Male or Female? </p>","190","html-keyboard-response","594","2773965","0.0-21.0-0.5","prediction","","","",".",""
"null","<div style=""color:white; font-size:60px;"">+</div>","null","html-keyboard-response","595","2774968","0.0-21.0-1.5","fixation","","","","",""
"2748.7999999998137","Stimuli/Hangul_M48.bmp","188","image-keyboard-response","596","2777717","0.0-21.0-2.5","c2_test",",","","","",","
"934.2650000001304","<p style=""color:white;""> Next Figure: Male or Female? </p>","190","html-keyboard-response","597","2778653","0.0-21.0-0.6","prediction","","","",".",""
"null","<div style=""color:white; font-size:60px;"">+</div>","null","html-keyboard-response","598","2779656","0.0-21.0-1.6","fixation","","","","",""
"3548.1500000003725","Stimuli/Hangul_M34.bmp","188","image-keyboard-response","599","2783207","0.0-21.0-2.6","c2_test",",","","","",","
"1701.2649999996647","<p style=""color:white;""> Next Figure: Male or Female? </p>","188","html-keyboard-response","600","2784910","0.0-21.0-0.7","prediction","","","",",",""
"null","<div style=""color:white; font-size:60px;"">+</div>","null","html-keyboard-response","601","2785912","0.0-21.0-1.7","fixation","","","","",""
"1786.9649999993853","Stimuli/Hangul_M36.bmp","188","image-keyboard-response","602","2787702","0.0-21.0-2.7","c2_test",",","","","",","
"1693.470000000205","<p style=""color:white;""> Next Figure: Male or Female? </p>","188","html-keyboard-response","603","2789397","0.0-21.0-0.8","prediction","","","",",",""
"null","<div style=""color:white; font-size:60px;"">+</div>","null","html-keyboard-response","604","2790399","0.0-21.0-1.8","fixation","","","","",""
"6629.120000001509","Stimuli/Hangul_F42.bmp","188","image-keyboard-response","605","2797031","0.0-21.0-2.8","c2_test",".","","","",","
"1876.8399999989197","<p style=""color:white;""> Next Figure: Male or Female? </p>","190","html-keyboard-response","606","2798910","0.0-21.0-0.9","prediction","","","",".",""
"null","<div style=""color:white; font-size:60px;"">+</div>","null","html-keyboard-response","607","2799911","0.0-21.0-1.9","fixation","","","","",""
"2685.0899999989197","Stimuli/Hangul_M27.bmp","188","image-keyboard-response","608","2802598","0.0-21.0-2.9","c2_test",",","","","",","
"622.6100000003353","<p style=""color:white;""> Next Figure: Male or Female? </p>","190","html-keyboard-response","609","2803222","0.0-21.0-0.10","prediction","","","",".",""
"null","<div style=""color:white; font-size:60px;"">+</div>","null","html-keyboard-response","610","2804224","0.0-21.0-1.10","fixation","","","","",""
"2650.525000000838","Stimuli/Hangul_F40.bmp","190","image-keyboard-response","611","2806877","0.0-21.0-2.10","c2_test",".","","","","."
"575.8950000000186","<p style=""color:white;""> Next Figure: Male or Female? </p>","188","html-keyboard-response","612","2807453","0.0-21.0-0.11","prediction","","","",",",""
"null","<div style=""color:white; font-size:60px;"">+</div>","null","html-keyboard-response","613","2808455","0.0-21.0-1.11","fixation","","","","",""
"1916.3050000006333","Stimuli/Hangul_M33.bmp","188","image-keyboard-response","614","2810373","0.0-21.0-2.11","c2_test",",","","","",","
"541.7849999996834","<p style=""color:white;""> Next Figure: Male or Female? </p>","188","html-keyboard-response","615","2810917","0.0-21.0-0.12","prediction","","","",",",""
"null","<div style=""color:white; font-size:60px;"">+</div>","null","html-keyboard-response","616","2811919","0.0-21.0-1.12","fixation","","","","",""
"1995.5050000008196","Stimuli/Hangul_M25.bmp","190","image-keyboard-response","617","2813917","0.0-21.0-2.12","c2_test",",","","","","."
"727.8600000008009","<p style=""color:white;""> Next Figure: Male or Female? </p>","188","html-keyboard-response","618","2814646","0.0-21.0-0.13","prediction","","","",",",""
"null","<div style=""color:white; font-size:60px;"">+</div>","null","html-keyboard-response","619","2815648","0.0-21.0-1.13","fixation","","","","",""
"2076.619999999646","Stimuli/Hangul_M40.bmp","188","image-keyboard-response","620","2817727","0.0-21.0-2.13","c2_test",",","","","",","
"557.230000000447","<p style=""color:white;""> Next Figure: Male or Female? </p>","188","html-keyboard-response","621","2818286","0.0-21.0-0.14","prediction","","","",",",""
"null","<div style=""color:white; font-size:60px;"">+</div>","null","html-keyboard-response","622","2819289","0.0-21.0-1.14","fixation","","","","",""
"3690.510000000242","Stimuli/Hangul_M49.bmp","190","image-keyboard-response","623","2822982","0.0-21.0-2.14","c2_test",",","","","","."
"678.4050000007264","<p style=""color:white;""> Next Figure: Male or Female? </p>","188","html-keyboard-response","624","2823662","0.0-21.0-0.15","prediction","","","",",",""
"null","<div style=""color:white; font-size:60px;"">+</div>","null","html-keyboard-response","625","2824664","0.0-21.0-1.15","fixation","","","","",""
"1594.0649999994785","Stimuli/Hangul_M32.bmp","188","image-keyboard-response","626","2826262","0.0-21.0-2.15","c2_test",",","","","",","
"718.5300000002608","<p style=""color:white;""> Next Figure: Male or Female? </p>","188","html-keyboard-response","627","2826982","0.0-21.0-0.16","prediction","","","",",",""
"null","<div style=""color:white; font-size:60px;"">+</div>","null","html-keyboard-response","628","2827985","0.0-21.0-1.16","fixation","","","","",""
"2539.2200000006706","Stimuli/Hangul_F35.bmp","190","image-keyboard-response","629","2830526","0.0-21.0-2.16","c2_test",".","","","","."
"390.2400000006892","<p style=""color:white;""> Next Figure: Male or Female? </p>","190","html-keyboard-response","630","2830917","0.0-21.0-0.17","prediction","","","",".",""
"null","<div style=""color:white; font-size:60px;"">+</div>","null","html-keyboard-response","631","2831919","0.0-21.0-1.17","fixation","","","","",""
"2941.730000000447","Stimuli/Hangul_M30.bmp","188","image-keyboard-response","632","2834862","0.0-21.0-2.17","c2_test",",","","","",","
"725.8500000005588","<p style=""color:white;""> Next Figure: Male or Female? </p>","190","html-keyboard-response","633","2835589","0.0-21.0-0.18","prediction","","","",".",""
"null","<div style=""color:white; font-size:60px;"">+</div>","null","html-keyboard-response","634","2836590","0.0-21.0-1.18","fixation","","","","",""
"1573.2750000008382","Stimuli/Hangul_M47.bmp","190","image-keyboard-response","635","2838166","0.0-21.0-2.18","c2_test",",","","","","."
"806.660000000149","<p style=""color:white;""> Next Figure: Male or Female? </p>","188","html-keyboard-response","636","2838974","0.0-21.0-0.19","prediction","","","",",",""
"null","<div style=""color:white; font-size:60px;"">+</div>","null","html-keyboard-response","637","2839977","0.0-21.0-1.19","fixation","","","","",""
"3067.5250000003725","Stimuli/Hangul_F31.bmp","188","image-keyboard-response","638","2843046","0.0-21.0-2.19","c2_test",".","","","",","
"526.0899999993853","<p style=""color:white;""> Next Figure: Male or Female? </p>","188","html-keyboard-response","639","2843574","0.0-21.0-0.20","prediction","","","",",",""
"null","<div style=""color:white; font-size:60px;"">+</div>","null","html-keyboard-response","640","2844576","0.0-21.0-1.20","fixation","","","","",""
"2042.585000000894","Stimuli/Hangul_M38.bmp","188","image-keyboard-response","641","2846621","0.0-21.0-2.20","c2_test",",","","","",","
"574.6399999987334","<p style=""color:white;""> Next Figure: Male or Female? </p>","188","html-keyboard-response","642","2847198","0.0-21.0-0.21","prediction","","","",",",""
"null","<div style=""color:white; font-size:60px;"">+</div>","null","html-keyboard-response","643","2848201","0.0-21.0-1.21","fixation","","","","",""
"2539.510000000242","Stimuli/Hangul_F49.bmp","188","image-keyboard-response","644","2850742","0.0-21.0-2.21","c2_test",".","","","",","
"372.56999999983236","<p style=""color:white;""> Next Figure: Male or Female? </p>","188","html-keyboard-response","645","2851118","0.0-21.0-0.22","prediction","","","",",",""
"null","<div style=""color:white; font-size:60px;"">+</div>","null","html-keyboard-response","646","2852125","0.0-21.0-1.22","fixation","","","","",""
"1983.894999999553","Stimuli/Hangul_F34.bmp","190","image-keyboard-response","647","2854111","0.0-21.0-2.22","c2_test",".","","","","."
"380.9799999999814","<p style=""color:white;""> Next Figure: Male or Female? </p>","188","html-keyboard-response","648","2854494","0.0-21.0-0.23","prediction","","","",",",""
"null","<div style=""color:white; font-size:60px;"">+</div>","null","html-keyboard-response","649","2855496","0.0-21.0-1.23","fixation","","","","",""
"1490.4449999993667","Stimuli/Hangul_F47.bmp","188","image-keyboard-response","650","2856989","0.0-21.0-2.23","c2_test",".","","","",","
"344.0449999999255","<p style=""color:white;""> Next Figure: Male or Female? </p>","188","html-keyboard-response","651","2857334","0.0-21.0-0.24","prediction","","","",",",""
"null","<div style=""color:white; font-size:60px;"">+</div>","null","html-keyboard-response","652","2858336","0.0-21.0-1.24","fixation","","","","",""
"2060.3599999998696","Stimuli/Hangul_M31.bmp","188","image-keyboard-response","653","2860398","0.0-21.0-2.24","c2_test",",","","","",","
"574.2599999993108","<p style=""color:white;""> Next Figure: Male or Female? </p>","190","html-keyboard-response","654","2860974","0.0-21.0-0.25","prediction","","","",".",""
