"rt","stimulus","key_press","trial_type","trial_index","time_elapsed","internal_node_id","test_part","correct_response","C1_train","C1","A","C2"
"979","<p style=""color:white;"">Welcome to the experiment! Press any key to begin.</p>","32","html-keyboard-response","0","980","0.0-0.0","","","","","",""
"11544","<p style=""color:white;"">You will see a series of abstract figures. They are adaptations of signs in the Korean alphabet, but that is not important for this study. </p><p style=""color:white;"">Abstract figures sometimes have a more masculine or feminine shape. Here, each figure has already been assigned a gender as <q>Male</q> or <q>Female</q> by a panel of respondents in a pilot study. The respondents were not given specific instructions on how to do this, but were only told to use their intuition and to take into account the entire configuration of the stimulus. </p><p style=""color:white;"">Your task now is to guess the assigned gender of each figure. Please press the corresponding response keys to indicate your choice: </p><p style=""color:white;""> Male &#8594 <q>,</q> (comma)</p><p style=""color:white;""> Female &#8594 <q>.</q> (period)</p><p style=""color:white;"">Press either response keys to continue.</p>","188","html-keyboard-response","1","12525","0.0-1.0","","","","","",""
"4010","<p style=""color:white;"">Your choice is correct if it matches the gender assigned by the majority of respondents in the pilot study.</p> <p style=""color:white;"">For each correct choice you will receive 2 cents. There will be 200 trials divided into 4 blocks of 50 trials. You will be able to take a break after every 50 trials.</p> <p style=""color:white;"">Press the space bar to continue.</p>","32","html-keyboard-response","2","16537","0.0-2.0","","","","","",""
"1350","<p style=""color:white;"">Here are some examples.</p> <p style=""color:white;"">For each, guess whether the assigned figure is male-like or female-like and indicate your choice by pressing either response keys.</p> <p style=""color:white;"">Press the space bar to continue.</p>","32","html-keyboard-response","3","17889","0.0-3.0","","","","","",""
"null","<div style=""color:white; font-size:60px;"">+</div>","null","html-keyboard-response","4","20890","0.0-4.0-0.0","fixation","","","","",""
"2240","Stimuli/Hangul_E1.bmp","188","image-keyboard-response","5","23132","0.0-4.0-1.0","c1_train",",",",","","",""
"null","<div style=""color:white; font-size:60px;"">+</div>","null","html-keyboard-response","6","24133","0.0-4.0-0.1","fixation","","","","",""
"2739","Stimuli/Hangul_E2.bmp","190","image-keyboard-response","7","26873","0.0-4.0-1.1","c1_train",".",".","","",""
"null","<div style=""color:white; font-size:60px;"">+</div>","null","html-keyboard-response","8","27873","0.0-4.0-0.2","fixation","","","","",""
"2651","Stimuli/Hangul_E0.bmp","190","image-keyboard-response","9","30525","0.0-4.0-1.2","c1_train",",",".","","",""
"9777","<p style=""color:white;"">Let us begin! Press the space bar when you are ready to start block 1 of 4.</p> ","32","html-keyboard-response","10","40303","0.0-5.0","","","","","",""
"null","<div style=""color:white; font-size:60px;"">+</div>","null","html-keyboard-response","11","43306","0.0-6.0-0.0","fixation","","","","",""
"4059","Stimuli/Hangul_M15.bmp","190","image-keyboard-response","12","47365","0.0-6.0-1.0","test",",","",".","",""
"null","<div style=""color:white; font-size:60px;"">+</div>","null","html-keyboard-response","13","48367","0.0-6.0-0.1","fixation","","","","",""
"2838","Stimuli/Hangul_F16.bmp","188","image-keyboard-response","14","51206","0.0-6.0-1.1","test",".","",",","",""
"null","<div style=""color:white; font-size:60px;"">+</div>","null","html-keyboard-response","15","52207","0.0-6.0-0.2","fixation","","","","",""
"2767","Stimuli/Hangul_M9.bmp","188","image-keyboard-response","16","54974","0.0-6.0-1.2","test",",","",",","",""
"null","<div style=""color:white; font-size:60px;"">+</div>","null","html-keyboard-response","17","55976","0.0-6.0-0.3","fixation","","","","",""
"2966","Stimuli/Hangul_F0.bmp","190","image-keyboard-response","18","58945","0.0-6.0-1.3","test",".","",".","",""
"null","<div style=""color:white; font-size:60px;"">+</div>","null","html-keyboard-response","19","59946","0.0-6.0-0.4","fixation","","","","",""
"3281","Stimuli/Hangul_F5.bmp","190","image-keyboard-response","20","63227","0.0-6.0-1.4","test",".","",".","",""
"null","<div style=""color:white; font-size:60px;"">+</div>","null","html-keyboard-response","21","64229","0.0-6.0-0.5","fixation","","","","",""
"1817","Stimuli/Hangul_F10.bmp","188","image-keyboard-response","22","66049","0.0-6.0-1.5","test",".","",",","",""
"null","<div style=""color:white; font-size:60px;"">+</div>","null","html-keyboard-response","23","67050","0.0-6.0-0.6","fixation","","","","",""
"2555","Stimuli/Hangul_M24.bmp","188","image-keyboard-response","24","69605","0.0-6.0-1.6","test",",","",",","",""
"null","<div style=""color:white; font-size:60px;"">+</div>","null","html-keyboard-response","25","70607","0.0-6.0-0.7","fixation","","","","",""
"5110","Stimuli/Hangul_M23.bmp","188","image-keyboard-response","26","75723","0.0-6.0-1.7","test",",","",",","",""
"null","<div style=""color:white; font-size:60px;"">+</div>","null","html-keyboard-response","27","76726","0.0-6.0-0.8","fixation","","","","",""
"1761","Stimuli/Hangul_F7.bmp","188","image-keyboard-response","28","78489","0.0-6.0-1.8","test",".","",",","",""
"null","<div style=""color:white; font-size:60px;"">+</div>","null","html-keyboard-response","29","79491","0.0-6.0-0.9","fixation","","","","",""
"2466","Stimuli/Hangul_F15.bmp","190","image-keyboard-response","30","81959","0.0-6.0-1.9","test",".","",".","",""
"null","<div style=""color:white; font-size:60px;"">+</div>","null","html-keyboard-response","31","82961","0.0-6.0-0.10","fixation","","","","",""
"2513","Stimuli/Hangul_M10.bmp","190","image-keyboard-response","32","85474","0.0-6.0-1.10","test",",","",".","",""
"null","<div style=""color:white; font-size:60px;"">+</div>","null","html-keyboard-response","33","86476","0.0-6.0-0.11","fixation","","","","",""
"1583","Stimuli/Hangul_M16.bmp","190","image-keyboard-response","34","88060","0.0-6.0-1.11","test",",","",".","",""
"null","<div style=""color:white; font-size:60px;"">+</div>","null","html-keyboard-response","35","89061","0.0-6.0-0.12","fixation","","","","",""
"2584","Stimuli/Hangul_F3.bmp","190","image-keyboard-response","36","91647","0.0-6.0-1.12","test",".","",".","",""
"null","<div style=""color:white; font-size:60px;"">+</div>","null","html-keyboard-response","37","92649","0.0-6.0-0.13","fixation","","","","",""
"2430","Stimuli/Hangul_M12.bmp","190","image-keyboard-response","38","95080","0.0-6.0-1.13","test",",","",".","",""
"null","<div style=""color:white; font-size:60px;"">+</div>","null","html-keyboard-response","39","96081","0.0-6.0-0.14","fixation","","","","",""
"2512","Stimuli/Hangul_M6.bmp","188","image-keyboard-response","40","98595","0.0-6.0-1.14","test",",","",",","",""
"null","<div style=""color:white; font-size:60px;"">+</div>","null","html-keyboard-response","41","99596","0.0-6.0-0.15","fixation","","","","",""
"2387","Stimuli/Hangul_M11.bmp","190","image-keyboard-response","42","101984","0.0-6.0-1.15","test",",","",".","",""
"null","<div style=""color:white; font-size:60px;"">+</div>","null","html-keyboard-response","43","102984","0.0-6.0-0.16","fixation","","","","",""
"2418","Stimuli/Hangul_M1.bmp","190","image-keyboard-response","44","105402","0.0-6.0-1.16","test",",","",".","",""
"null","<div style=""color:white; font-size:60px;"">+</div>","null","html-keyboard-response","45","106403","0.0-6.0-0.17","fixation","","","","",""
"2690","Stimuli/Hangul_M20.bmp","188","image-keyboard-response","46","109095","0.0-6.0-1.17","test",",","",",","",""
"null","<div style=""color:white; font-size:60px;"">+</div>","null","html-keyboard-response","47","110096","0.0-6.0-0.18","fixation","","","","",""
"1445","Stimuli/Hangul_F8.bmp","188","image-keyboard-response","48","111542","0.0-6.0-1.18","test",".","",",","",""
"null","<div style=""color:white; font-size:60px;"">+</div>","null","html-keyboard-response","49","112543","0.0-6.0-0.19","fixation","","","","",""
"1555","Stimuli/Hangul_F20.bmp","188","image-keyboard-response","50","114098","0.0-6.0-1.19","test",".","",",","",""
"null","<div style=""color:white; font-size:60px;"">+</div>","null","html-keyboard-response","51","115099","0.0-6.0-0.20","fixation","","","","",""
"1616","Stimuli/Hangul_F21.bmp","188","image-keyboard-response","52","116715","0.0-6.0-1.20","test",".","",",","",""
"null","<div style=""color:white; font-size:60px;"">+</div>","null","html-keyboard-response","53","117717","0.0-6.0-0.21","fixation","","","","",""
"1391","Stimuli/Hangul_M22.bmp","190","image-keyboard-response","54","119109","0.0-6.0-1.21","test",",","",".","",""
"null","<div style=""color:white; font-size:60px;"">+</div>","null","html-keyboard-response","55","120109","0.0-6.0-0.22","fixation","","","","",""
"1376","Stimuli/Hangul_M5.bmp","190","image-keyboard-response","56","121487","0.0-6.0-1.22","test",",","",".","",""
"null","<div style=""color:white; font-size:60px;"">+</div>","null","html-keyboard-response","57","122488","0.0-6.0-0.23","fixation","","","","",""
"1266","Stimuli/Hangul_F17.bmp","190","image-keyboard-response","58","123755","0.0-6.0-1.23","test",".","",".","",""
"null","<div style=""color:white; font-size:60px;"">+</div>","null","html-keyboard-response","59","124758","0.0-6.0-0.24","fixation","","","","",""
"1362","Stimuli/Hangul_F22.bmp","188","image-keyboard-response","60","126120","0.0-6.0-1.24","test",".","",",","",""
"null","<div style=""color:white; font-size:60px;"">+</div>","null","html-keyboard-response","61","127121","0.0-6.0-0.25","fixation","","","","",""
"2344","Stimuli/Hangul_F4.bmp","188","image-keyboard-response","62","129466","0.0-6.0-1.25","test",".","",",","",""
"null","<div style=""color:white; font-size:60px;"">+</div>","null","html-keyboard-response","63","130466","0.0-6.0-0.26","fixation","","","","",""
"4023","Stimuli/Hangul_M13.bmp","190","image-keyboard-response","64","134491","0.0-6.0-1.26","test",",","",".","",""
"null","<div style=""color:white; font-size:60px;"">+</div>","null","html-keyboard-response","65","135493","0.0-6.0-0.27","fixation","","","","",""
"2373","Stimuli/Hangul_F2.bmp","188","image-keyboard-response","66","137867","0.0-6.0-1.27","test",".","",",","",""
"null","<div style=""color:white; font-size:60px;"">+</div>","null","html-keyboard-response","67","138869","0.0-6.0-0.28","fixation","","","","",""
"1250","Stimuli/Hangul_F1.bmp","188","image-keyboard-response","68","140119","0.0-6.0-1.28","test",".","",",","",""
"null","<div style=""color:white; font-size:60px;"">+</div>","null","html-keyboard-response","69","141120","0.0-6.0-0.29","fixation","","","","",""
"2320","Stimuli/Hangul_M14.bmp","190","image-keyboard-response","70","143440","0.0-6.0-1.29","test",",","",".","",""
"null","<div style=""color:white; font-size:60px;"">+</div>","null","html-keyboard-response","71","144442","0.0-6.0-0.30","fixation","","","","",""
"1230","Stimuli/Hangul_F18.bmp","190","image-keyboard-response","72","145674","0.0-6.0-1.30","test",".","",".","",""
"null","<div style=""color:white; font-size:60px;"">+</div>","null","html-keyboard-response","73","146674","0.0-6.0-0.31","fixation","","","","",""
"1454","Stimuli/Hangul_F6.bmp","190","image-keyboard-response","74","148128","0.0-6.0-1.31","test",".","",".","",""
"null","<div style=""color:white; font-size:60px;"">+</div>","null","html-keyboard-response","75","149130","0.0-6.0-0.32","fixation","","","","",""
"1470","Stimuli/Hangul_F11.bmp","188","image-keyboard-response","76","150601","0.0-6.0-1.32","test",".","",",","",""
"null","<div style=""color:white; font-size:60px;"">+</div>","null","html-keyboard-response","77","151603","0.0-6.0-0.33","fixation","","","","",""
"1278","Stimuli/Hangul_M4.bmp","188","image-keyboard-response","78","152881","0.0-6.0-1.33","test",",","",",","",""
"null","<div style=""color:white; font-size:60px;"">+</div>","null","html-keyboard-response","79","153882","0.0-6.0-0.34","fixation","","","","",""
"2442","Stimuli/Hangul_M3.bmp","188","image-keyboard-response","80","156325","0.0-6.0-1.34","test",",","",",","",""
"null","<div style=""color:white; font-size:60px;"">+</div>","null","html-keyboard-response","81","157326","0.0-6.0-0.35","fixation","","","","",""
"1475","Stimuli/Hangul_F19.bmp","190","image-keyboard-response","82","158802","0.0-6.0-1.35","test",".","",".","",""
"null","<div style=""color:white; font-size:60px;"">+</div>","null","html-keyboard-response","83","159803","0.0-6.0-0.36","fixation","","","","",""
"1404","Stimuli/Hangul_M18.bmp","190","image-keyboard-response","84","161208","0.0-6.0-1.36","test",",","",".","",""
"null","<div style=""color:white; font-size:60px;"">+</div>","null","html-keyboard-response","85","162210","0.0-6.0-0.37","fixation","","","","",""
"2456","Stimuli/Hangul_F12.bmp","190","image-keyboard-response","86","164666","0.0-6.0-1.37","test",".","",".","",""
"null","<div style=""color:white; font-size:60px;"">+</div>","null","html-keyboard-response","87","165667","0.0-6.0-0.38","fixation","","","","",""
"1314","Stimuli/Hangul_M2.bmp","190","image-keyboard-response","88","166982","0.0-6.0-1.38","test",",","",".","",""
"null","<div style=""color:white; font-size:60px;"">+</div>","null","html-keyboard-response","89","167983","0.0-6.0-0.39","fixation","","","","",""
"4358","Stimuli/Hangul_F13.bmp","188","image-keyboard-response","90","172342","0.0-6.0-1.39","test",".","",",","",""
"null","<div style=""color:white; font-size:60px;"">+</div>","null","html-keyboard-response","91","173344","0.0-6.0-0.40","fixation","","","","",""
"2426","Stimuli/Hangul_M0.bmp","188","image-keyboard-response","92","175770","0.0-6.0-1.40","test",",","",",","",""
"null","<div style=""color:white; font-size:60px;"">+</div>","null","html-keyboard-response","93","176786","0.0-6.0-0.41","fixation","","","","",""
"2577","Stimuli/Hangul_F23.bmp","190","image-keyboard-response","94","179364","0.0-6.0-1.41","test",".","",".","",""
"null","<div style=""color:white; font-size:60px;"">+</div>","null","html-keyboard-response","95","180365","0.0-6.0-0.42","fixation","","","","",""
"2375","Stimuli/Hangul_F9.bmp","188","image-keyboard-response","96","182740","0.0-6.0-1.42","test",".","",",","",""
"null","<div style=""color:white; font-size:60px;"">+</div>","null","html-keyboard-response","97","183740","0.0-6.0-0.43","fixation","","","","",""
"1225","Stimuli/Hangul_M21.bmp","188","image-keyboard-response","98","184966","0.0-6.0-1.43","test",",","",",","",""
"null","<div style=""color:white; font-size:60px;"">+</div>","null","html-keyboard-response","99","185967","0.0-6.0-0.44","fixation","","","","",""
"2303","Stimuli/Hangul_F14.bmp","190","image-keyboard-response","100","188271","0.0-6.0-1.44","test",".","",".","",""
"null","<div style=""color:white; font-size:60px;"">+</div>","null","html-keyboard-response","101","189272","0.0-6.0-0.45","fixation","","","","",""
"1261","Stimuli/Hangul_F24.bmp","190","image-keyboard-response","102","190534","0.0-6.0-1.45","test",".","",".","",""
"null","<div style=""color:white; font-size:60px;"">+</div>","null","html-keyboard-response","103","191537","0.0-6.0-0.46","fixation","","","","",""
"2371","Stimuli/Hangul_M8.bmp","190","image-keyboard-response","104","193909","0.0-6.0-1.46","test",",","",".","",""
"null","<div style=""color:white; font-size:60px;"">+</div>","null","html-keyboard-response","105","194909","0.0-6.0-0.47","fixation","","","","",""
"1294","Stimuli/Hangul_M17.bmp","188","image-keyboard-response","106","196205","0.0-6.0-1.47","test",",","",",","",""
"null","<div style=""color:white; font-size:60px;"">+</div>","null","html-keyboard-response","107","197206","0.0-6.0-0.48","fixation","","","","",""
"2215","Stimuli/Hangul_M19.bmp","188","image-keyboard-response","108","199422","0.0-6.0-1.48","test",",","",",","",""
"null","<div style=""color:white; font-size:60px;"">+</div>","null","html-keyboard-response","109","200424","0.0-6.0-0.49","fixation","","","","",""
"7360","Stimuli/Hangul_M7.bmp","190","image-keyboard-response","110","207785","0.0-6.0-1.49","test",",","",".","",""
"2503","<p style=""color:white;"">Good job, block 1 complete! Please take a moment to rest.</p> <p style=""color:white;"">When you are ready to continue with block 2 of 4, press the space bar.</p> ","32","html-keyboard-response","111","210288","0.0-7.0","","","","","",""
"null","<div style=""color:white; font-size:60px;"">+</div>","null","html-keyboard-response","112","213290","0.0-8.0-0.0","fixation","","","","",""
"1983","Stimuli/Hangul_F44.bmp","190","image-keyboard-response","113","215273","0.0-8.0-1.0","test",".","",".","",""
"null","<div style=""color:white; font-size:60px;"">+</div>","null","html-keyboard-response","114","216275","0.0-8.0-0.1","fixation","","","","",""
"2368","Stimuli/Hangul_F46.bmp","190","image-keyboard-response","115","218643","0.0-8.0-1.1","test",".","",".","",""
"null","<div style=""color:white; font-size:60px;"">+</div>","null","html-keyboard-response","116","219646","0.0-8.0-0.2","fixation","","","","",""
"2269","Stimuli/Hangul_F34.bmp","188","image-keyboard-response","117","221915","0.0-8.0-1.2","test",".","",",","",""
"null","<div style=""color:white; font-size:60px;"">+</div>","null","html-keyboard-response","118","222915","0.0-8.0-0.3","fixation","","","","",""
"1327","Stimuli/Hangul_F42.bmp","188","image-keyboard-response","119","224243","0.0-8.0-1.3","test",".","",",","",""
"null","<div style=""color:white; font-size:60px;"">+</div>","null","html-keyboard-response","120","225245","0.0-8.0-0.4","fixation","","","","",""
"2444","Stimuli/Hangul_M29.bmp","190","image-keyboard-response","121","227690","0.0-8.0-1.4","test",",","",".","",""
"null","<div style=""color:white; font-size:60px;"">+</div>","null","html-keyboard-response","122","228689","0.0-8.0-0.5","fixation","","","","",""
"1151","Stimuli/Hangul_F29.bmp","190","image-keyboard-response","123","229843","0.0-8.0-1.5","test",".","",".","",""
"null","<div style=""color:white; font-size:60px;"">+</div>","null","html-keyboard-response","124","230845","0.0-8.0-0.6","fixation","","","","",""
"2824","Stimuli/Hangul_M37.bmp","188","image-keyboard-response","125","233668","0.0-8.0-1.6","test",",","",",","",""
"null","<div style=""color:white; font-size:60px;"">+</div>","null","html-keyboard-response","126","234668","0.0-8.0-0.7","fixation","","","","",""
"1597","Stimuli/Hangul_M28.bmp","190","image-keyboard-response","127","236266","0.0-8.0-1.7","test",",","",".","",""
"null","<div style=""color:white; font-size:60px;"">+</div>","null","html-keyboard-response","128","237268","0.0-8.0-0.8","fixation","","","","",""
"2060","Stimuli/Hangul_M38.bmp","190","image-keyboard-response","129","239328","0.0-8.0-1.8","test",",","",".","",""
"null","<div style=""color:white; font-size:60px;"">+</div>","null","html-keyboard-response","130","240329","0.0-8.0-0.9","fixation","","","","",""
"1320","Stimuli/Hangul_M43.bmp","190","image-keyboard-response","131","241651","0.0-8.0-1.9","test",",","",".","",""
"null","<div style=""color:white; font-size:60px;"">+</div>","null","html-keyboard-response","132","242651","0.0-8.0-0.10","fixation","","","","",""
"2438","Stimuli/Hangul_M41.bmp","188","image-keyboard-response","133","245091","0.0-8.0-1.10","test",",","",",","",""
"null","<div style=""color:white; font-size:60px;"">+</div>","null","html-keyboard-response","134","246093","0.0-8.0-0.11","fixation","","","","",""
"1478","Stimuli/Hangul_F32.bmp","188","image-keyboard-response","135","247572","0.0-8.0-1.11","test",".","",",","",""
"null","<div style=""color:white; font-size:60px;"">+</div>","null","html-keyboard-response","136","248574","0.0-8.0-0.12","fixation","","","","",""
"1243","Stimuli/Hangul_M26.bmp","188","image-keyboard-response","137","249818","0.0-8.0-1.12","test",",","",",","",""
"null","<div style=""color:white; font-size:60px;"">+</div>","null","html-keyboard-response","138","250819","0.0-8.0-0.13","fixation","","","","",""
"999","Stimuli/Hangul_F25.bmp","188","image-keyboard-response","139","251820","0.0-8.0-1.13","test",".","",",","",""
"null","<div style=""color:white; font-size:60px;"">+</div>","null","html-keyboard-response","140","252821","0.0-8.0-0.14","fixation","","","","",""
"1239","Stimuli/Hangul_F26.bmp","190","image-keyboard-response","141","254061","0.0-8.0-1.14","test",".","",".","",""
"null","<div style=""color:white; font-size:60px;"">+</div>","null","html-keyboard-response","142","255063","0.0-8.0-0.15","fixation","","","","",""
"2291","Stimuli/Hangul_M25.bmp","188","image-keyboard-response","143","257355","0.0-8.0-1.15","test",",","",",","",""
"null","<div style=""color:white; font-size:60px;"">+</div>","null","html-keyboard-response","144","258356","0.0-8.0-0.16","fixation","","","","",""
"2177","Stimuli/Hangul_M36.bmp","190","image-keyboard-response","145","260534","0.0-8.0-1.16","test",",","",".","",""
"null","<div style=""color:white; font-size:60px;"">+</div>","null","html-keyboard-response","146","261535","0.0-8.0-0.17","fixation","","","","",""
"1386","Stimuli/Hangul_M33.bmp","190","image-keyboard-response","147","262922","0.0-8.0-1.17","test",",","",".","",""
"null","<div style=""color:white; font-size:60px;"">+</div>","null","html-keyboard-response","148","263923","0.0-8.0-0.18","fixation","","","","",""
"2347","Stimuli/Hangul_F36.bmp","188","image-keyboard-response","149","266271","0.0-8.0-1.18","test",".","",",","",""
"null","<div style=""color:white; font-size:60px;"">+</div>","null","html-keyboard-response","150","267273","0.0-8.0-0.19","fixation","","","","",""
"2248","Stimuli/Hangul_F27.bmp","190","image-keyboard-response","151","269521","0.0-8.0-1.19","test",".","",".","",""
"null","<div style=""color:white; font-size:60px;"">+</div>","null","html-keyboard-response","152","270522","0.0-8.0-0.20","fixation","","","","",""
"2462","Stimuli/Hangul_F41.bmp","188","image-keyboard-response","153","272985","0.0-8.0-1.20","test",".","",",","",""
"null","<div style=""color:white; font-size:60px;"">+</div>","null","html-keyboard-response","154","273985","0.0-8.0-0.21","fixation","","","","",""
"2413","Stimuli/Hangul_F40.bmp","188","image-keyboard-response","155","276399","0.0-8.0-1.21","test",".","",",","",""
"null","<div style=""color:white; font-size:60px;"">+</div>","null","html-keyboard-response","156","277402","0.0-8.0-0.22","fixation","","","","",""
"1308","Stimuli/Hangul_M30.bmp","190","image-keyboard-response","157","278711","0.0-8.0-1.22","test",",","",".","",""
"null","<div style=""color:white; font-size:60px;"">+</div>","null","html-keyboard-response","158","279712","0.0-8.0-0.23","fixation","","","","",""
"2198","Stimuli/Hangul_F33.bmp","190","image-keyboard-response","159","281911","0.0-8.0-1.23","test",".","",".","",""
"null","<div style=""color:white; font-size:60px;"">+</div>","null","html-keyboard-response","160","282913","0.0-8.0-0.24","fixation","","","","",""
"1800","Stimuli/Hangul_F28.bmp","190","image-keyboard-response","161","284714","0.0-8.0-1.24","test",".","",".","",""
"null","<div style=""color:white; font-size:60px;"">+</div>","null","html-keyboard-response","162","285715","0.0-8.0-0.25","fixation","","","","",""
"1335","Stimuli/Hangul_M35.bmp","188","image-keyboard-response","163","287049","0.0-8.0-1.25","test",",","",",","",""
"null","<div style=""color:white; font-size:60px;"">+</div>","null","html-keyboard-response","164","288050","0.0-8.0-0.26","fixation","","","","",""
"984","Stimuli/Hangul_F35.bmp","188","image-keyboard-response","165","289034","0.0-8.0-1.26","test",".","",",","",""
"null","<div style=""color:white; font-size:60px;"">+</div>","null","html-keyboard-response","166","290035","0.0-8.0-0.27","fixation","","","","",""
"1561","Stimuli/Hangul_M32.bmp","188","image-keyboard-response","167","291597","0.0-8.0-1.27","test",",","",",","",""
"null","<div style=""color:white; font-size:60px;"">+</div>","null","html-keyboard-response","168","292598","0.0-8.0-0.28","fixation","","","","",""
"2158","Stimuli/Hangul_M47.bmp","188","image-keyboard-response","169","294757","0.0-8.0-1.28","test",",","",",","",""
"null","<div style=""color:white; font-size:60px;"">+</div>","null","html-keyboard-response","170","295758","0.0-8.0-0.29","fixation","","","","",""
"5237","Stimuli/Hangul_F47.bmp","188","image-keyboard-response","171","300996","0.0-8.0-1.29","test",".","",",","",""
"null","<div style=""color:white; font-size:60px;"">+</div>","null","html-keyboard-response","172","301997","0.0-8.0-0.30","fixation","","","","",""
"4474","Stimuli/Hangul_M46.bmp","188","image-keyboard-response","173","306472","0.0-8.0-1.30","test",",","",",","",""
"null","<div style=""color:white; font-size:60px;"">+</div>","null","html-keyboard-response","174","307472","0.0-8.0-0.31","fixation","","","","",""
"1543","Stimuli/Hangul_M27.bmp","190","image-keyboard-response","175","309017","0.0-8.0-1.31","test",",","",".","",""
"null","<div style=""color:white; font-size:60px;"">+</div>","null","html-keyboard-response","176","310018","0.0-8.0-0.32","fixation","","","","",""
"2447","Stimuli/Hangul_F31.bmp","190","image-keyboard-response","177","312466","0.0-8.0-1.32","test",".","",".","",""
"null","<div style=""color:white; font-size:60px;"">+</div>","null","html-keyboard-response","178","313468","0.0-8.0-0.33","fixation","","","","",""
"3385","Stimuli/Hangul_F37.bmp","190","image-keyboard-response","179","316854","0.0-8.0-1.33","test",".","",".","",""
"null","<div style=""color:white; font-size:60px;"">+</div>","null","html-keyboard-response","180","317854","0.0-8.0-0.34","fixation","","","","",""
"2432","Stimuli/Hangul_M40.bmp","190","image-keyboard-response","181","320287","0.0-8.0-1.34","test",",","",".","",""
"null","<div style=""color:white; font-size:60px;"">+</div>","null","html-keyboard-response","182","321288","0.0-8.0-0.35","fixation","","","","",""
"2536","Stimuli/Hangul_F45.bmp","188","image-keyboard-response","183","323825","0.0-8.0-1.35","test",".","",",","",""
"null","<div style=""color:white; font-size:60px;"">+</div>","null","html-keyboard-response","184","324826","0.0-8.0-0.36","fixation","","","","",""
"2301","Stimuli/Hangul_F38.bmp","190","image-keyboard-response","185","327128","0.0-8.0-1.36","test",".","",".","",""
"null","<div style=""color:white; font-size:60px;"">+</div>","null","html-keyboard-response","186","328129","0.0-8.0-0.37","fixation","","","","",""
"2983","Stimuli/Hangul_M31.bmp","188","image-keyboard-response","187","331113","0.0-8.0-1.37","test",",","",",","",""
"null","<div style=""color:white; font-size:60px;"">+</div>","null","html-keyboard-response","188","332115","0.0-8.0-0.38","fixation","","","","",""
"1483","Stimuli/Hangul_M42.bmp","188","image-keyboard-response","189","333598","0.0-8.0-1.38","test",",","",",","",""
"null","<div style=""color:white; font-size:60px;"">+</div>","null","html-keyboard-response","190","334600","0.0-8.0-0.39","fixation","","","","",""
"2411","Stimuli/Hangul_F43.bmp","190","image-keyboard-response","191","337011","0.0-8.0-1.39","test",".","",".","",""
"null","<div style=""color:white; font-size:60px;"">+</div>","null","html-keyboard-response","192","338013","0.0-8.0-0.40","fixation","","","","",""
"1380","Stimuli/Hangul_M39.bmp","190","image-keyboard-response","193","339393","0.0-8.0-1.40","test",",","",".","",""
"null","<div style=""color:white; font-size:60px;"">+</div>","null","html-keyboard-response","194","340394","0.0-8.0-0.41","fixation","","","","",""
"1898","Stimuli/Hangul_M34.bmp","190","image-keyboard-response","195","342292","0.0-8.0-1.41","test",",","",".","",""
"null","<div style=""color:white; font-size:60px;"">+</div>","null","html-keyboard-response","196","343293","0.0-8.0-0.42","fixation","","","","",""
"2399","Stimuli/Hangul_M45.bmp","190","image-keyboard-response","197","345693","0.0-8.0-1.42","test",",","",".","",""
"null","<div style=""color:white; font-size:60px;"">+</div>","null","html-keyboard-response","198","346695","0.0-8.0-0.43","fixation","","","","",""
"2045","Stimuli/Hangul_F39.bmp","188","image-keyboard-response","199","348742","0.0-8.0-1.43","test",".","",",","",""
"null","<div style=""color:white; font-size:60px;"">+</div>","null","html-keyboard-response","200","349743","0.0-8.0-0.44","fixation","","","","",""
"2143","Stimuli/Hangul_M44.bmp","190","image-keyboard-response","201","351887","0.0-8.0-1.44","test",",","",".","",""
"null","<div style=""color:white; font-size:60px;"">+</div>","null","html-keyboard-response","202","352887","0.0-8.0-0.45","fixation","","","","",""
"3588","Stimuli/Hangul_F30.bmp","188","image-keyboard-response","203","356476","0.0-8.0-1.45","test",".","",",","",""
"null","<div style=""color:white; font-size:60px;"">+</div>","null","html-keyboard-response","204","357478","0.0-8.0-0.46","fixation","","","","",""
"2080","Stimuli/Hangul_F49.bmp","190","image-keyboard-response","205","359560","0.0-8.0-1.46","test",".","",".","",""
"null","<div style=""color:white; font-size:60px;"">+</div>","null","html-keyboard-response","206","360561","0.0-8.0-0.47","fixation","","","","",""
"1529","Stimuli/Hangul_F48.bmp","190","image-keyboard-response","207","362091","0.0-8.0-1.47","test",".","",".","",""
"null","<div style=""color:white; font-size:60px;"">+</div>","null","html-keyboard-response","208","363094","0.0-8.0-0.48","fixation","","","","",""
"2064","Stimuli/Hangul_M49.bmp","190","image-keyboard-response","209","365157","0.0-8.0-1.48","test",",","",".","",""
"null","<div style=""color:white; font-size:60px;"">+</div>","null","html-keyboard-response","210","366158","0.0-8.0-0.49","fixation","","","","",""
"1340","Stimuli/Hangul_M48.bmp","188","image-keyboard-response","211","367499","0.0-8.0-1.49","test",",","",",","",""
"1746","<p style=""color:white;"">Half way there! Please take a moment to rest.</p> <p style=""color:white;"">When you are ready to continue with block 3 of 4, press the space bar.</p> ","32","html-keyboard-response","212","369246","0.0-9.0","","","","","",""
"null","<div style=""color:white; font-size:60px;"">+</div>","null","html-keyboard-response","213","372248","0.0-10.0-0.0","fixation","","","","",""
"1206","Stimuli/Hangul_F71.bmp","190","image-keyboard-response","214","373454","0.0-10.0-1.0","test",".","",".","",""
"null","<div style=""color:white; font-size:60px;"">+</div>","null","html-keyboard-response","215","374454","0.0-10.0-0.1","fixation","","","","",""
"1385","Stimuli/Hangul_M67.bmp","190","image-keyboard-response","216","375840","0.0-10.0-1.1","test",",","",".","",""
"null","<div style=""color:white; font-size:60px;"">+</div>","null","html-keyboard-response","217","376840","0.0-10.0-0.2","fixation","","","","",""
"2008","Stimuli/Hangul_M59.bmp","188","image-keyboard-response","218","378850","0.0-10.0-1.2","test",",","",",","",""
"null","<div style=""color:white; font-size:60px;"">+</div>","null","html-keyboard-response","219","379852","0.0-10.0-0.3","fixation","","","","",""
"1501","Stimuli/Hangul_M64.bmp","188","image-keyboard-response","220","381354","0.0-10.0-1.3","test",",","",",","",""
"null","<div style=""color:white; font-size:60px;"">+</div>","null","html-keyboard-response","221","382353","0.0-10.0-0.4","fixation","","","","",""
"1034","Stimuli/Hangul_F53.bmp","190","image-keyboard-response","222","383389","0.0-10.0-1.4","test",".","",".","",""
"null","<div style=""color:white; font-size:60px;"">+</div>","null","html-keyboard-response","223","384390","0.0-10.0-0.5","fixation","","","","",""
"1319","Stimuli/Hangul_M56.bmp","190","image-keyboard-response","224","385710","0.0-10.0-1.5","test",",","",".","",""
"null","<div style=""color:white; font-size:60px;"">+</div>","null","html-keyboard-response","225","386710","0.0-10.0-0.6","fixation","","","","",""
"1159","Stimuli/Hangul_F72.bmp","188","image-keyboard-response","226","387871","0.0-10.0-1.6","test",".","",",","",""
"null","<div style=""color:white; font-size:60px;"">+</div>","null","html-keyboard-response","227","388873","0.0-10.0-0.7","fixation","","","","",""
"1186","Stimuli/Hangul_M61.bmp","188","image-keyboard-response","228","390059","0.0-10.0-1.7","test",",","",",","",""
"null","<div style=""color:white; font-size:60px;"">+</div>","null","html-keyboard-response","229","391060","0.0-10.0-0.8","fixation","","","","",""
"1409","Stimuli/Hangul_F51.bmp","188","image-keyboard-response","230","392472","0.0-10.0-1.8","test",".","",",","",""
"null","<div style=""color:white; font-size:60px;"">+</div>","null","html-keyboard-response","231","393475","0.0-10.0-0.9","fixation","","","","",""
"2452","Stimuli/Hangul_F50.bmp","190","image-keyboard-response","232","395928","0.0-10.0-1.9","test",".","",".","",""
"null","<div style=""color:white; font-size:60px;"">+</div>","null","html-keyboard-response","233","396928","0.0-10.0-0.10","fixation","","","","",""
"2425","Stimuli/Hangul_F61.bmp","190","image-keyboard-response","234","399354","0.0-10.0-1.10","test",".","",".","",""
"null","<div style=""color:white; font-size:60px;"">+</div>","null","html-keyboard-response","235","400355","0.0-10.0-0.11","fixation","","","","",""
"2383","Stimuli/Hangul_F65.bmp","190","image-keyboard-response","236","402739","0.0-10.0-1.11","test",".","",".","",""
"null","<div style=""color:white; font-size:60px;"">+</div>","null","html-keyboard-response","237","403740","0.0-10.0-0.12","fixation","","","","",""
"1393","Stimuli/Hangul_F69.bmp","190","image-keyboard-response","238","405134","0.0-10.0-1.12","test",".","",".","",""
"null","<div style=""color:white; font-size:60px;"">+</div>","null","html-keyboard-response","239","406134","0.0-10.0-0.13","fixation","","","","",""
"2022","Stimuli/Hangul_M66.bmp","188","image-keyboard-response","240","408158","0.0-10.0-1.13","test",",","",",","",""
"null","<div style=""color:white; font-size:60px;"">+</div>","null","html-keyboard-response","241","409157","0.0-10.0-0.14","fixation","","","","",""
"2490","Stimuli/Hangul_F52.bmp","190","image-keyboard-response","242","411649","0.0-10.0-1.14","test",".","",".","",""
"null","<div style=""color:white; font-size:60px;"">+</div>","null","html-keyboard-response","243","412649","0.0-10.0-0.15","fixation","","","","",""
"2368","Stimuli/Hangul_M73.bmp","190","image-keyboard-response","244","415019","0.0-10.0-1.15","test",",","",".","",""
"null","<div style=""color:white; font-size:60px;"">+</div>","null","html-keyboard-response","245","416020","0.0-10.0-0.16","fixation","","","","",""
"2771","Stimuli/Hangul_F54.bmp","190","image-keyboard-response","246","418791","0.0-10.0-1.16","test",".","",".","",""
"null","<div style=""color:white; font-size:60px;"">+</div>","null","html-keyboard-response","247","419793","0.0-10.0-0.17","fixation","","","","",""
"1418","Stimuli/Hangul_F56.bmp","190","image-keyboard-response","248","421213","0.0-10.0-1.17","test",".","",".","",""
"null","<div style=""color:white; font-size:60px;"">+</div>","null","html-keyboard-response","249","422213","0.0-10.0-0.18","fixation","","","","",""
"2503","Stimuli/Hangul_M55.bmp","190","image-keyboard-response","250","424716","0.0-10.0-1.18","test",",","",".","",""
"null","<div style=""color:white; font-size:60px;"">+</div>","null","html-keyboard-response","251","425718","0.0-10.0-0.19","fixation","","","","",""
"3966","Stimuli/Hangul_M65.bmp","190","image-keyboard-response","252","429685","0.0-10.0-1.19","test",",","",".","",""
"null","<div style=""color:white; font-size:60px;"">+</div>","null","html-keyboard-response","253","430688","0.0-10.0-0.20","fixation","","","","",""
"2013","Stimuli/Hangul_F67.bmp","190","image-keyboard-response","254","432702","0.0-10.0-1.20","test",".","",".","",""
"null","<div style=""color:white; font-size:60px;"">+</div>","null","html-keyboard-response","255","433703","0.0-10.0-0.21","fixation","","","","",""
"1149","Stimuli/Hangul_M69.bmp","190","image-keyboard-response","256","434853","0.0-10.0-1.21","test",",","",".","",""
"null","<div style=""color:white; font-size:60px;"">+</div>","null","html-keyboard-response","257","435854","0.0-10.0-0.22","fixation","","","","",""
"2975","Stimuli/Hangul_F70.bmp","190","image-keyboard-response","258","438830","0.0-10.0-1.22","test",".","",".","",""
"null","<div style=""color:white; font-size:60px;"">+</div>","null","html-keyboard-response","259","439831","0.0-10.0-0.23","fixation","","","","",""
"2463","Stimuli/Hangul_M52.bmp","188","image-keyboard-response","260","442296","0.0-10.0-1.23","test",",","",",","",""
"null","<div style=""color:white; font-size:60px;"">+</div>","null","html-keyboard-response","261","443296","0.0-10.0-0.24","fixation","","","","",""
"1394","Stimuli/Hangul_M74.bmp","190","image-keyboard-response","262","444692","0.0-10.0-1.24","test",",","",".","",""
"null","<div style=""color:white; font-size:60px;"">+</div>","null","html-keyboard-response","263","445694","0.0-10.0-0.25","fixation","","","","",""
"1521","Stimuli/Hangul_M57.bmp","190","image-keyboard-response","264","447216","0.0-10.0-1.25","test",",","",".","",""
"null","<div style=""color:white; font-size:60px;"">+</div>","null","html-keyboard-response","265","448216","0.0-10.0-0.26","fixation","","","","",""
"1650","Stimuli/Hangul_F73.bmp","190","image-keyboard-response","266","449868","0.0-10.0-1.26","test",".","",".","",""
"null","<div style=""color:white; font-size:60px;"">+</div>","null","html-keyboard-response","267","450870","0.0-10.0-0.27","fixation","","","","",""
"2185","Stimuli/Hangul_M54.bmp","190","image-keyboard-response","268","453055","0.0-10.0-1.27","test",",","",".","",""
"null","<div style=""color:white; font-size:60px;"">+</div>","null","html-keyboard-response","269","454056","0.0-10.0-0.28","fixation","","","","",""
"2185","Stimuli/Hangul_F55.bmp","190","image-keyboard-response","270","456242","0.0-10.0-1.28","test",".","",".","",""
"null","<div style=""color:white; font-size:60px;"">+</div>","null","html-keyboard-response","271","457243","0.0-10.0-0.29","fixation","","","","",""
"1789","Stimuli/Hangul_F62.bmp","188","image-keyboard-response","272","459032","0.0-10.0-1.29","test",".","",",","",""
"null","<div style=""color:white; font-size:60px;"">+</div>","null","html-keyboard-response","273","460033","0.0-10.0-0.30","fixation","","","","",""
"2926","Stimuli/Hangul_F59.bmp","188","image-keyboard-response","274","462960","0.0-10.0-1.30","test",".","",",","",""
"null","<div style=""color:white; font-size:60px;"">+</div>","null","html-keyboard-response","275","463963","0.0-10.0-0.31","fixation","","","","",""
"2550","Stimuli/Hangul_F57.bmp","188","image-keyboard-response","276","466512","0.0-10.0-1.31","test",".","",",","",""
"null","<div style=""color:white; font-size:60px;"">+</div>","null","html-keyboard-response","277","467512","0.0-10.0-0.32","fixation","","","","",""
"1414","Stimuli/Hangul_M70.bmp","190","image-keyboard-response","278","468928","0.0-10.0-1.32","test",",","",".","",""
"null","<div style=""color:white; font-size:60px;"">+</div>","null","html-keyboard-response","279","469929","0.0-10.0-0.33","fixation","","","","",""
"2050","Stimuli/Hangul_F60.bmp","190","image-keyboard-response","280","471980","0.0-10.0-1.33","test",".","",".","",""
"null","<div style=""color:white; font-size:60px;"">+</div>","null","html-keyboard-response","281","472982","0.0-10.0-0.34","fixation","","","","",""
"2549","Stimuli/Hangul_M68.bmp","190","image-keyboard-response","282","475532","0.0-10.0-1.34","test",",","",".","",""
"null","<div style=""color:white; font-size:60px;"">+</div>","null","html-keyboard-response","283","476535","0.0-10.0-0.35","fixation","","","","",""
"1783","Stimuli/Hangul_M58.bmp","190","image-keyboard-response","284","478318","0.0-10.0-1.35","test",",","",".","",""
"null","<div style=""color:white; font-size:60px;"">+</div>","null","html-keyboard-response","285","479319","0.0-10.0-0.36","fixation","","","","",""
"3788","Stimuli/Hangul_M72.bmp","188","image-keyboard-response","286","483108","0.0-10.0-1.36","test",",","",",","",""
"null","<div style=""color:white; font-size:60px;"">+</div>","null","html-keyboard-response","287","484108","0.0-10.0-0.37","fixation","","","","",""
"3135","Stimuli/Hangul_F74.bmp","190","image-keyboard-response","288","487244","0.0-10.0-1.37","test",".","",".","",""
"null","<div style=""color:white; font-size:60px;"">+</div>","null","html-keyboard-response","289","488247","0.0-10.0-0.38","fixation","","","","",""
"2619","Stimuli/Hangul_F58.bmp","188","image-keyboard-response","290","490866","0.0-10.0-1.38","test",".","",",","",""
"null","<div style=""color:white; font-size:60px;"">+</div>","null","html-keyboard-response","291","491868","0.0-10.0-0.39","fixation","","","","",""
"2608","Stimuli/Hangul_F63.bmp","188","image-keyboard-response","292","494477","0.0-10.0-1.39","test",".","",",","",""
"null","<div style=""color:white; font-size:60px;"">+</div>","null","html-keyboard-response","293","495478","0.0-10.0-0.40","fixation","","","","",""
"2415","Stimuli/Hangul_M50.bmp","190","image-keyboard-response","294","497893","0.0-10.0-1.40","test",",","",".","",""
"null","<div style=""color:white; font-size:60px;"">+</div>","null","html-keyboard-response","295","498895","0.0-10.0-0.41","fixation","","","","",""
"3938","Stimuli/Hangul_M71.bmp","190","image-keyboard-response","296","502833","0.0-10.0-1.41","test",",","",".","",""
"null","<div style=""color:white; font-size:60px;"">+</div>","null","html-keyboard-response","297","503836","0.0-10.0-0.42","fixation","","","","",""
"4139","Stimuli/Hangul_M63.bmp","190","image-keyboard-response","298","507975","0.0-10.0-1.42","test",",","",".","",""
"null","<div style=""color:white; font-size:60px;"">+</div>","null","html-keyboard-response","299","508976","0.0-10.0-0.43","fixation","","","","",""
"3058","Stimuli/Hangul_F64.bmp","190","image-keyboard-response","300","512035","0.0-10.0-1.43","test",".","",".","",""
"null","<div style=""color:white; font-size:60px;"">+</div>","null","html-keyboard-response","301","513037","0.0-10.0-0.44","fixation","","","","",""
"1918","Stimuli/Hangul_F66.bmp","190","image-keyboard-response","302","514956","0.0-10.0-1.44","test",".","",".","",""
"null","<div style=""color:white; font-size:60px;"">+</div>","null","html-keyboard-response","303","515957","0.0-10.0-0.45","fixation","","","","",""
"1221","Stimuli/Hangul_F68.bmp","190","image-keyboard-response","304","517179","0.0-10.0-1.45","test",".","",".","",""
"null","<div style=""color:white; font-size:60px;"">+</div>","null","html-keyboard-response","305","518181","0.0-10.0-0.46","fixation","","","","",""
"1309","Stimuli/Hangul_M53.bmp","188","image-keyboard-response","306","519491","0.0-10.0-1.46","test",",","",",","",""
"null","<div style=""color:white; font-size:60px;"">+</div>","null","html-keyboard-response","307","520492","0.0-10.0-0.47","fixation","","","","",""
"2185","Stimuli/Hangul_M60.bmp","188","image-keyboard-response","308","522677","0.0-10.0-1.47","test",",","",",","",""
"null","<div style=""color:white; font-size:60px;"">+</div>","null","html-keyboard-response","309","523678","0.0-10.0-0.48","fixation","","","","",""
"2278","Stimuli/Hangul_M51.bmp","188","image-keyboard-response","310","525956","0.0-10.0-1.48","test",",","",",","",""
"null","<div style=""color:white; font-size:60px;"">+</div>","null","html-keyboard-response","311","526959","0.0-10.0-0.49","fixation","","","","",""
"2126","Stimuli/Hangul_M62.bmp","190","image-keyboard-response","312","529086","0.0-10.0-1.49","test",",","",".","",""
"13777","<p style=""color:white;"">One more block to go! Please take a moment to rest.</p> <p style=""color:white;"">When you are ready to continue with block 4 of 4, press the space bar.</p> ","32","html-keyboard-response","313","542863","0.0-11.0","","","","","",""
"null","<div style=""color:white; font-size:60px;"">+</div>","null","html-keyboard-response","314","545864","0.0-12.0-0.0","fixation","","","","",""
"1736","Stimuli/Hangul_F95.bmp","190","image-keyboard-response","315","547601","0.0-12.0-1.0","test",".","",".","",""
"null","<div style=""color:white; font-size:60px;"">+</div>","null","html-keyboard-response","316","548604","0.0-12.0-0.1","fixation","","","","",""
"1521","Stimuli/Hangul_F99.bmp","188","image-keyboard-response","317","550125","0.0-12.0-1.1","test",".","",",","",""
"null","<div style=""color:white; font-size:60px;"">+</div>","null","html-keyboard-response","318","551126","0.0-12.0-0.2","fixation","","","","",""
"2371","Stimuli/Hangul_F83.bmp","188","image-keyboard-response","319","553499","0.0-12.0-1.2","test",".","",",","",""
"null","<div style=""color:white; font-size:60px;"">+</div>","null","html-keyboard-response","320","554500","0.0-12.0-0.3","fixation","","","","",""
"2376","Stimuli/Hangul_F76.bmp","190","image-keyboard-response","321","556878","0.0-12.0-1.3","test",".","",".","",""
"null","<div style=""color:white; font-size:60px;"">+</div>","null","html-keyboard-response","322","557879","0.0-12.0-0.4","fixation","","","","",""
"1171","Stimuli/Hangul_M99.bmp","190","image-keyboard-response","323","559052","0.0-12.0-1.4","test",",","",".","",""
"null","<div style=""color:white; font-size:60px;"">+</div>","null","html-keyboard-response","324","560051","0.0-12.0-0.5","fixation","","","","",""
"1208","Stimuli/Hangul_F75.bmp","190","image-keyboard-response","325","561261","0.0-12.0-1.5","test",".","",".","",""
"null","<div style=""color:white; font-size:60px;"">+</div>","null","html-keyboard-response","326","562261","0.0-12.0-0.6","fixation","","","","",""
"1490","Stimuli/Hangul_M80.bmp","190","image-keyboard-response","327","563752","0.0-12.0-1.6","test",",","",".","",""
"null","<div style=""color:white; font-size:60px;"">+</div>","null","html-keyboard-response","328","564752","0.0-12.0-0.7","fixation","","","","",""
"2140","Stimuli/Hangul_F96.bmp","190","image-keyboard-response","329","566894","0.0-12.0-1.7","test",".","",".","",""
"null","<div style=""color:white; font-size:60px;"">+</div>","null","html-keyboard-response","330","567894","0.0-12.0-0.8","fixation","","","","",""
"1299","Stimuli/Hangul_F91.bmp","190","image-keyboard-response","331","569194","0.0-12.0-1.8","test",".","",".","",""
"null","<div style=""color:white; font-size:60px;"">+</div>","null","html-keyboard-response","332","570195","0.0-12.0-0.9","fixation","","","","",""
"2567","Stimuli/Hangul_F97.bmp","188","image-keyboard-response","333","572763","0.0-12.0-1.9","test",".","",",","",""
"null","<div style=""color:white; font-size:60px;"">+</div>","null","html-keyboard-response","334","573764","0.0-12.0-0.10","fixation","","","","",""
"2259","Stimuli/Hangul_F94.bmp","188","image-keyboard-response","335","576023","0.0-12.0-1.10","test",".","",",","",""
"null","<div style=""color:white; font-size:60px;"">+</div>","null","html-keyboard-response","336","577024","0.0-12.0-0.11","fixation","","","","",""
"1310","Stimuli/Hangul_M81.bmp","188","image-keyboard-response","337","578335","0.0-12.0-1.11","test",",","",",","",""
"null","<div style=""color:white; font-size:60px;"">+</div>","null","html-keyboard-response","338","579335","0.0-12.0-0.12","fixation","","","","",""
"2390","Stimuli/Hangul_F80.bmp","190","image-keyboard-response","339","581726","0.0-12.0-1.12","test",".","",".","",""
"null","<div style=""color:white; font-size:60px;"">+</div>","null","html-keyboard-response","340","582727","0.0-12.0-0.13","fixation","","","","",""
"2350","Stimuli/Hangul_M86.bmp","190","image-keyboard-response","341","585078","0.0-12.0-1.13","test",",","",".","",""
"null","<div style=""color:white; font-size:60px;"">+</div>","null","html-keyboard-response","342","586079","0.0-12.0-0.14","fixation","","","","",""
"2373","Stimuli/Hangul_F77.bmp","190","image-keyboard-response","343","588452","0.0-12.0-1.14","test",".","",".","",""
"null","<div style=""color:white; font-size:60px;"">+</div>","null","html-keyboard-response","344","589454","0.0-12.0-0.15","fixation","","","","",""
"1401","Stimuli/Hangul_M82.bmp","188","image-keyboard-response","345","590858","0.0-12.0-1.15","test",",","",",","",""
"null","<div style=""color:white; font-size:60px;"">+</div>","null","html-keyboard-response","346","591858","0.0-12.0-0.16","fixation","","","","",""
"2421","Stimuli/Hangul_F89.bmp","188","image-keyboard-response","347","594279","0.0-12.0-1.16","test",".","",",","",""
"null","<div style=""color:white; font-size:60px;"">+</div>","null","html-keyboard-response","348","595281","0.0-12.0-0.17","fixation","","","","",""
"1742","Stimuli/Hangul_F88.bmp","190","image-keyboard-response","349","597023","0.0-12.0-1.17","test",".","",".","",""
"null","<div style=""color:white; font-size:60px;"">+</div>","null","html-keyboard-response","350","598025","0.0-12.0-0.18","fixation","","","","",""
"1288","Stimuli/Hangul_M88.bmp","190","image-keyboard-response","351","599315","0.0-12.0-1.18","test",",","",".","",""
"null","<div style=""color:white; font-size:60px;"">+</div>","null","html-keyboard-response","352","600315","0.0-12.0-0.19","fixation","","","","",""
"1409","Stimuli/Hangul_M77.bmp","188","image-keyboard-response","353","601725","0.0-12.0-1.19","test",",","",",","",""
"null","<div style=""color:white; font-size:60px;"">+</div>","null","html-keyboard-response","354","602726","0.0-12.0-0.20","fixation","","","","",""
"2142","Stimuli/Hangul_F81.bmp","188","image-keyboard-response","355","604870","0.0-12.0-1.20","test",".","",",","",""
"null","<div style=""color:white; font-size:60px;"">+</div>","null","html-keyboard-response","356","605872","0.0-12.0-0.21","fixation","","","","",""
"1664","Stimuli/Hangul_M89.bmp","188","image-keyboard-response","357","607536","0.0-12.0-1.21","test",",","",",","",""
"null","<div style=""color:white; font-size:60px;"">+</div>","null","html-keyboard-response","358","608536","0.0-12.0-0.22","fixation","","","","",""
"1472","Stimuli/Hangul_M85.bmp","190","image-keyboard-response","359","610010","0.0-12.0-1.22","test",",","",".","",""
"null","<div style=""color:white; font-size:60px;"">+</div>","null","html-keyboard-response","360","611011","0.0-12.0-0.23","fixation","","","","",""
"2318","Stimuli/Hangul_M98.bmp","188","image-keyboard-response","361","613330","0.0-12.0-1.23","test",",","",",","",""
"null","<div style=""color:white; font-size:60px;"">+</div>","null","html-keyboard-response","362","614333","0.0-12.0-0.24","fixation","","","","",""
"1282","Stimuli/Hangul_M94.bmp","188","image-keyboard-response","363","615615","0.0-12.0-1.24","test",",","",",","",""
"null","<div style=""color:white; font-size:60px;"">+</div>","null","html-keyboard-response","364","616616","0.0-12.0-0.25","fixation","","","","",""
"1872","Stimuli/Hangul_M91.bmp","188","image-keyboard-response","365","618489","0.0-12.0-1.25","test",",","",",","",""
"null","<div style=""color:white; font-size:60px;"">+</div>","null","html-keyboard-response","366","619490","0.0-12.0-0.26","fixation","","","","",""
"1344","Stimuli/Hangul_M93.bmp","190","image-keyboard-response","367","620835","0.0-12.0-1.26","test",",","",".","",""
"null","<div style=""color:white; font-size:60px;"">+</div>","null","html-keyboard-response","368","621836","0.0-12.0-0.27","fixation","","","","",""
"1567","Stimuli/Hangul_M90.bmp","188","image-keyboard-response","369","623404","0.0-12.0-1.27","test",",","",",","",""
"null","<div style=""color:white; font-size:60px;"">+</div>","null","html-keyboard-response","370","624406","0.0-12.0-0.28","fixation","","","","",""
"3057","Stimuli/Hangul_F86.bmp","190","image-keyboard-response","371","627465","0.0-12.0-1.28","test",".","",".","",""
"null","<div style=""color:white; font-size:60px;"">+</div>","null","html-keyboard-response","372","628467","0.0-12.0-0.29","fixation","","","","",""
"2472","Stimuli/Hangul_F92.bmp","190","image-keyboard-response","373","630940","0.0-12.0-1.29","test",".","",".","",""
"null","<div style=""color:white; font-size:60px;"">+</div>","null","html-keyboard-response","374","631942","0.0-12.0-0.30","fixation","","","","",""
"6983","Stimuli/Hangul_F82.bmp","188","image-keyboard-response","375","638926","0.0-12.0-1.30","test",".","",",","",""
"null","<div style=""color:white; font-size:60px;"">+</div>","null","html-keyboard-response","376","639926","0.0-12.0-0.31","fixation","","","","",""
"1922","Stimuli/Hangul_M75.bmp","188","image-keyboard-response","377","641849","0.0-12.0-1.31","test",",","",",","",""
"null","<div style=""color:white; font-size:60px;"">+</div>","null","html-keyboard-response","378","642850","0.0-12.0-0.32","fixation","","","","",""
"2257","Stimuli/Hangul_M83.bmp","188","image-keyboard-response","379","645108","0.0-12.0-1.32","test",",","",",","",""
"null","<div style=""color:white; font-size:60px;"">+</div>","null","html-keyboard-response","380","646109","0.0-12.0-0.33","fixation","","","","",""
"1929","Stimuli/Hangul_F87.bmp","188","image-keyboard-response","381","648040","0.0-12.0-1.33","test",".","",",","",""
"null","<div style=""color:white; font-size:60px;"">+</div>","null","html-keyboard-response","382","649041","0.0-12.0-0.34","fixation","","","","",""
"1444","Stimuli/Hangul_M97.bmp","188","image-keyboard-response","383","650486","0.0-12.0-1.34","test",",","",",","",""
"null","<div style=""color:white; font-size:60px;"">+</div>","null","html-keyboard-response","384","651488","0.0-12.0-0.35","fixation","","","","",""
"2036","Stimuli/Hangul_F90.bmp","188","image-keyboard-response","385","653525","0.0-12.0-1.35","test",".","",",","",""
"null","<div style=""color:white; font-size:60px;"">+</div>","null","html-keyboard-response","386","654526","0.0-12.0-0.36","fixation","","","","",""
"1231","Stimuli/Hangul_F98.bmp","188","image-keyboard-response","387","655758","0.0-12.0-1.36","test",".","",",","",""
"null","<div style=""color:white; font-size:60px;"">+</div>","null","html-keyboard-response","388","656760","0.0-12.0-0.37","fixation","","","","",""
"1379","Stimuli/Hangul_M79.bmp","190","image-keyboard-response","389","658139","0.0-12.0-1.37","test",",","",".","",""
"null","<div style=""color:white; font-size:60px;"">+</div>","null","html-keyboard-response","390","659140","0.0-12.0-0.38","fixation","","","","",""
"3223","Stimuli/Hangul_M87.bmp","188","image-keyboard-response","391","662364","0.0-12.0-1.38","test",",","",",","",""
"null","<div style=""color:white; font-size:60px;"">+</div>","null","html-keyboard-response","392","663364","0.0-12.0-0.39","fixation","","","","",""
"2382","Stimuli/Hangul_F79.bmp","188","image-keyboard-response","393","665747","0.0-12.0-1.39","test",".","",",","",""
"null","<div style=""color:white; font-size:60px;"">+</div>","null","html-keyboard-response","394","666747","0.0-12.0-0.40","fixation","","","","",""
"2131","Stimuli/Hangul_F85.bmp","188","image-keyboard-response","395","668880","0.0-12.0-1.40","test",".","",",","",""
"null","<div style=""color:white; font-size:60px;"">+</div>","null","html-keyboard-response","396","669881","0.0-12.0-0.41","fixation","","","","",""
"1189","Stimuli/Hangul_F78.bmp","188","image-keyboard-response","397","671072","0.0-12.0-1.41","test",".","",",","",""
"null","<div style=""color:white; font-size:60px;"">+</div>","null","html-keyboard-response","398","672073","0.0-12.0-0.42","fixation","","","","",""
"1103","Stimuli/Hangul_F84.bmp","190","image-keyboard-response","399","673176","0.0-12.0-1.42","test",".","",".","",""
"null","<div style=""color:white; font-size:60px;"">+</div>","null","html-keyboard-response","400","674179","0.0-12.0-0.43","fixation","","","","",""
"1279","Stimuli/Hangul_M76.bmp","190","image-keyboard-response","401","675457","0.0-12.0-1.43","test",",","",".","",""
"null","<div style=""color:white; font-size:60px;"">+</div>","null","html-keyboard-response","402","676457","0.0-12.0-0.44","fixation","","","","",""
"1265","Stimuli/Hangul_M92.bmp","190","image-keyboard-response","403","677722","0.0-12.0-1.44","test",",","",".","",""
"null","<div style=""color:white; font-size:60px;"">+</div>","null","html-keyboard-response","404","678723","0.0-12.0-0.45","fixation","","","","",""
"1332","Stimuli/Hangul_M84.bmp","188","image-keyboard-response","405","680056","0.0-12.0-1.45","test",",","",",","",""
"null","<div style=""color:white; font-size:60px;"">+</div>","null","html-keyboard-response","406","681059","0.0-12.0-0.46","fixation","","","","",""
"1544","Stimuli/Hangul_M78.bmp","188","image-keyboard-response","407","682603","0.0-12.0-1.46","test",",","",",","",""
"null","<div style=""color:white; font-size:60px;"">+</div>","null","html-keyboard-response","408","683603","0.0-12.0-0.47","fixation","","","","",""
"2527","Stimuli/Hangul_F93.bmp","188","image-keyboard-response","409","686132","0.0-12.0-1.47","test",".","",",","",""
"null","<div style=""color:white; font-size:60px;"">+</div>","null","html-keyboard-response","410","687132","0.0-12.0-0.48","fixation","","","","",""
"1438","Stimuli/Hangul_M95.bmp","190","image-keyboard-response","411","688571","0.0-12.0-1.48","test",",","",".","",""
"null","<div style=""color:white; font-size:60px;"">+</div>","null","html-keyboard-response","412","689572","0.0-12.0-0.49","fixation","","","","",""
"2330","Stimuli/Hangul_M96.bmp","190","image-keyboard-response","413","691902","0.0-12.0-1.49","test",",","",".","",""
"1989","<p style=""color:white;"">Phase I of the experiment is complete.</p> <p style=""color:white;"">Press the space bar to proceed to Phase II of the experiment.</p> ","32","html-keyboard-response","414","693893","0.0-13.0","","","","","",""
"4669","<p style=""color:white;"">Now we are interested in how well you can predict patterns in the series of figures. You will be asked to predict whether the next figure in the series is more male-like or female-like. When you see the <q>Next Figure</q> prompt, press the corresponding response keys to indicate your prediction: </p><p style=""color:white;""> Male &#8594 <q>,</q> (comma)</p><p style=""color:white;""> Female &#8594 <q>.</q> (period)</p><p style=""color:white;"">The actual figure will then appear on the screen. After you see the figure, please guess the assigned gender with response keys. </p><p style=""color:white;"">As before, you will receive 2 cents for correctly classifying each figure.</p><p style=""color:white;"">Press either response keys to continue.</p>","188","html-keyboard-response","415","700563","0.0-14.0","","","","","",""
"2511","<p style=""color:white;"">PREDICTION BONUS</p> <p style=""color:white;"">Your prediction accuracy is the total number of correct predictions you make over the 200 trials.</p> <p style=""color:white;"">In addition to the 2 cents per correct figure classification, you have the chance to receive a bonus of 40 dollars IF your accuracy is above average relative to previous participants.</p><p style=""color:white;"">If your accuracy is below average relative to previous participants, then you will not receive the 40 dollar bonus.</p><p style=""color:white;"">Press the space bar to continue.</p>","32","html-keyboard-response","416","703074","0.0-15.0","","","","","",""
"1933","<p style=""color:white;"">Here are some examples.</p> <p style=""color:white;"">For each, predict whether the next figure looks more male-like or female-like. Then, when the figure appears, guess whether it looks more male-like or female-like and indicate your choice.</p> <p style=""color:white;"">Press the space bar to continue.</p>","32","html-keyboard-response","417","705009","0.0-16.0","","","","","",""
"3706","<p style=""color:white;""> Next Figure: Male or Female? </p>","188","html-keyboard-response","418","710717","0.0-17.0-0.0","prediction_train","","","",",",""
"null","<div style=""color:white; font-size:60px;"">+</div>","null","html-keyboard-response","419","711719","0.0-17.0-1.0","fixation","","","","",""
"733","Stimuli/Hangul_E0.bmp","188","image-keyboard-response","420","712454","0.0-17.0-2.0","c2_train",",","","","",","
"736","<p style=""color:white;""> Next Figure: Male or Female? </p>","188","html-keyboard-response","421","713190","0.0-17.0-0.1","prediction_train","","","",",",""
"null","<div style=""color:white; font-size:60px;"">+</div>","null","html-keyboard-response","422","714191","0.0-17.0-1.1","fixation","","","","",""
"871","Stimuli/Hangul_E1.bmp","190","image-keyboard-response","423","715063","0.0-17.0-2.1","c2_train",",","","","","."
"807","<p style=""color:white;""> Next Figure: Male or Female? </p>","188","html-keyboard-response","424","715870","0.0-17.0-0.2","prediction_train","","","",",",""
"null","<div style=""color:white; font-size:60px;"">+</div>","null","html-keyboard-response","425","716871","0.0-17.0-1.2","fixation","","","","",""
"549","Stimuli/Hangul_E2.bmp","188","image-keyboard-response","426","717421","0.0-17.0-2.2","c2_train",".","","","",","
"2478","<p style=""color:white;"">Let us begin! Press the space bar when you are ready to start block 1 of 4.</p> ","32","html-keyboard-response","427","719899","0.0-18.0","","","","","",""
"1396","<p style=""color:white;""> Next Figure: Male or Female? </p>","188","html-keyboard-response","428","723297","0.0-19.0-0.0","prediction","","","",",",""
"null","<div style=""color:white; font-size:60px;"">+</div>","null","html-keyboard-response","429","724298","0.0-19.0-1.0","fixation","","","","",""
"363","Stimuli/Hangul_F0.bmp","188","image-keyboard-response","430","724662","0.0-19.0-2.0","c2_test",".","","","",","
"601","<p style=""color:white;""> Next Figure: Male or Female? </p>","188","html-keyboard-response","431","725264","0.0-19.0-0.1","prediction","","","",",",""
"null","<div style=""color:white; font-size:60px;"">+</div>","null","html-keyboard-response","432","726266","0.0-19.0-1.1","fixation","","","","",""
"347","Stimuli/Hangul_F15.bmp","190","image-keyboard-response","433","726613","0.0-19.0-2.1","c2_test",".","","","","."
"432","<p style=""color:white;""> Next Figure: Male or Female? </p>","190","html-keyboard-response","434","727047","0.0-19.0-0.2","prediction","","","",".",""
"null","<div style=""color:white; font-size:60px;"">+</div>","null","html-keyboard-response","435","728047","0.0-19.0-1.2","fixation","","","","",""
"305","Stimuli/Hangul_M10.bmp","190","image-keyboard-response","436","728353","0.0-19.0-2.2","c2_test",",","","","","."
"469","<p style=""color:white;""> Next Figure: Male or Female? </p>","190","html-keyboard-response","437","728823","0.0-19.0-0.3","prediction","","","",".",""
"null","<div style=""color:white; font-size:60px;"">+</div>","null","html-keyboard-response","438","729823","0.0-19.0-1.3","fixation","","","","",""
"279","Stimuli/Hangul_M14.bmp","188","image-keyboard-response","439","730103","0.0-19.0-2.3","c2_test",",","","","",","
"220","<p style=""color:white;""> Next Figure: Male or Female? </p>","188","html-keyboard-response","440","730323","0.0-19.0-0.4","prediction","","","",",",""
"null","<div style=""color:white; font-size:60px;"">+</div>","null","html-keyboard-response","441","731325","0.0-19.0-1.4","fixation","","","","",""
"311","Stimuli/Hangul_M21.bmp","188","image-keyboard-response","442","731637","0.0-19.0-2.4","c2_test",",","","","",","
"162","<p style=""color:white;""> Next Figure: Male or Female? </p>","188","html-keyboard-response","443","731799","0.0-19.0-0.5","prediction","","","",",",""
"null","<div style=""color:white; font-size:60px;"">+</div>","null","html-keyboard-response","444","732801","0.0-19.0-1.5","fixation","","","","",""
"1061","Stimuli/Hangul_F16.bmp","190","image-keyboard-response","445","733864","0.0-19.0-2.5","c2_test",".","","","","."
"173","<p style=""color:white;""> Next Figure: Male or Female? </p>","190","html-keyboard-response","446","734035","0.0-19.0-0.6","prediction","","","",".",""
"null","<div style=""color:white; font-size:60px;"">+</div>","null","html-keyboard-response","447","735037","0.0-19.0-1.6","fixation","","","","",""
"349","Stimuli/Hangul_F10.bmp","188","image-keyboard-response","448","735386","0.0-19.0-2.6","c2_test",".","","","",","
"181","<p style=""color:white;""> Next Figure: Male or Female? </p>","188","html-keyboard-response","449","735567","0.0-19.0-0.7","prediction","","","",",",""
"null","<div style=""color:white; font-size:60px;"">+</div>","null","html-keyboard-response","450","736568","0.0-19.0-1.7","fixation","","","","",""
"350","Stimuli/Hangul_F14.bmp","188","image-keyboard-response","451","736919","0.0-19.0-2.7","c2_test",".","","","",","
"159","<p style=""color:white;""> Next Figure: Male or Female? </p>","188","html-keyboard-response","452","737079","0.0-19.0-0.8","prediction","","","",",",""
"null","<div style=""color:white; font-size:60px;"">+</div>","null","html-keyboard-response","453","738080","0.0-19.0-1.8","fixation","","","","",""
"435","Stimuli/Hangul_F21.bmp","188","image-keyboard-response","454","738514","0.0-19.0-2.8","c2_test",".","","","",","
"186","<p style=""color:white;""> Next Figure: Male or Female? </p>","188","html-keyboard-response","455","738702","0.0-19.0-0.9","prediction","","","",",",""
"null","<div style=""color:white; font-size:60px;"">+</div>","null","html-keyboard-response","456","739702","0.0-19.0-1.9","fixation","","","","",""
"766","Stimuli/Hangul_M8.bmp","188","image-keyboard-response","457","740470","0.0-19.0-2.9","c2_test",",","","","",","
"174","<p style=""color:white;""> Next Figure: Male or Female? </p>","188","html-keyboard-response","458","740644","0.0-19.0-0.10","prediction","","","",",",""
"null","<div style=""color:white; font-size:60px;"">+</div>","null","html-keyboard-response","459","741645","0.0-19.0-1.10","fixation","","","","",""
"448","Stimuli/Hangul_M18.bmp","190","image-keyboard-response","460","742095","0.0-19.0-2.10","c2_test",",","","","","."
"165","<p style=""color:white;""> Next Figure: Male or Female? </p>","190","html-keyboard-response","461","742259","0.0-19.0-0.11","prediction","","","",".",""
"null","<div style=""color:white; font-size:60px;"">+</div>","null","html-keyboard-response","462","743260","0.0-19.0-1.11","fixation","","","","",""
"4590","Stimuli/Hangul_M23.bmp","190","image-keyboard-response","463","747850","0.0-19.0-2.11","c2_test",",","","","","."
"321","<p style=""color:white;""> Next Figure: Male or Female? </p>","190","html-keyboard-response","464","748172","0.0-19.0-0.12","prediction","","","",".",""
"null","<div style=""color:white; font-size:60px;"">+</div>","null","html-keyboard-response","465","749173","0.0-19.0-1.12","fixation","","","","",""
"445","Stimuli/Hangul_F20.bmp","188","image-keyboard-response","466","749619","0.0-19.0-2.12","c2_test",".","","","",","
"167","<p style=""color:white;""> Next Figure: Male or Female? </p>","188","html-keyboard-response","467","749788","0.0-19.0-0.13","prediction","","","",",",""
"null","<div style=""color:white; font-size:60px;"">+</div>","null","html-keyboard-response","468","750788","0.0-19.0-1.13","fixation","","","","",""
"246","Stimuli/Hangul_M15.bmp","188","image-keyboard-response","469","751035","0.0-19.0-2.13","c2_test",",","","","",","
"158","<p style=""color:white;""> Next Figure: Male or Female? </p>","188","html-keyboard-response","470","751194","0.0-19.0-0.14","prediction","","","",",",""
"null","<div style=""color:white; font-size:60px;"">+</div>","null","html-keyboard-response","471","752194","0.0-19.0-1.14","fixation","","","","",""
"201","Stimuli/Hangul_F7.bmp","190","image-keyboard-response","472","752395","0.0-19.0-2.14","c2_test",".","","","","."
"158","<p style=""color:white;""> Next Figure: Male or Female? </p>","190","html-keyboard-response","473","752554","0.0-19.0-0.15","prediction","","","",".",""
"null","<div style=""color:white; font-size:60px;"">+</div>","null","html-keyboard-response","474","753554","0.0-19.0-1.15","fixation","","","","",""
"220","Stimuli/Hangul_F6.bmp","190","image-keyboard-response","475","753774","0.0-19.0-2.15","c2_test",".","","","","."
"182","<p style=""color:white;""> Next Figure: Male or Female? </p>","190","html-keyboard-response","476","753957","0.0-19.0-0.16","prediction","","","",".",""
"null","<div style=""color:white; font-size:60px;"">+</div>","null","html-keyboard-response","477","754960","0.0-19.0-1.16","fixation","","","","",""
"221","Stimuli/Hangul_M19.bmp","188","image-keyboard-response","478","755181","0.0-19.0-2.16","c2_test",",","","","",","
"157","<p style=""color:white;""> Next Figure: Male or Female? </p>","188","html-keyboard-response","479","755340","0.0-19.0-0.17","prediction","","","",",",""
"null","<div style=""color:white; font-size:60px;"">+</div>","null","html-keyboard-response","480","756341","0.0-19.0-1.17","fixation","","","","",""
"210","Stimuli/Hangul_M5.bmp","188","image-keyboard-response","481","756551","0.0-19.0-2.17","c2_test",",","","","",","
"148","<p style=""color:white;""> Next Figure: Male or Female? </p>","188","html-keyboard-response","482","756699","0.0-19.0-0.18","prediction","","","",",",""
"null","<div style=""color:white; font-size:60px;"">+</div>","null","html-keyboard-response","483","757701","0.0-19.0-1.18","fixation","","","","",""
"245","Stimuli/Hangul_F1.bmp","188","image-keyboard-response","484","757946","0.0-19.0-2.18","c2_test",".","","","",","
"162","<p style=""color:white;""> Next Figure: Male or Female? </p>","188","html-keyboard-response","485","758109","0.0-19.0-0.19","prediction","","","",",",""
"null","<div style=""color:white; font-size:60px;"">+</div>","null","html-keyboard-response","486","759111","0.0-19.0-1.19","fixation","","","","",""
"225","Stimuli/Hangul_F22.bmp","188","image-keyboard-response","487","759338","0.0-19.0-2.19","c2_test",".","","","",","
"163","<p style=""color:white;""> Next Figure: Male or Female? </p>","188","html-keyboard-response","488","759500","0.0-19.0-0.20","prediction","","","",",",""
"null","<div style=""color:white; font-size:60px;"">+</div>","null","html-keyboard-response","489","760501","0.0-19.0-1.20","fixation","","","","",""
"175","Stimuli/Hangul_F5.bmp","190","image-keyboard-response","490","760677","0.0-19.0-2.20","c2_test",".","","","","."
"196","<p style=""color:white;""> Next Figure: Male or Female? </p>","190","html-keyboard-response","491","760875","0.0-19.0-0.21","prediction","","","",".",""
"null","<div style=""color:white; font-size:60px;"">+</div>","null","html-keyboard-response","492","761875","0.0-19.0-1.21","fixation","","","","",""
"196","Stimuli/Hangul_F11.bmp","190","image-keyboard-response","493","762071","0.0-19.0-2.21","c2_test",".","","","","."
"166","<p style=""color:white;""> Next Figure: Male or Female? </p>","190","html-keyboard-response","494","762239","0.0-19.0-0.22","prediction","","","",".",""
"null","<div style=""color:white; font-size:60px;"">+</div>","null","html-keyboard-response","495","763240","0.0-19.0-1.22","fixation","","","","",""
"136","Stimuli/Hangul_M17.bmp","190","image-keyboard-response","496","763376","0.0-19.0-2.22","c2_test",",","","","","."
"175","<p style=""color:white;""> Next Figure: Male or Female? </p>","190","html-keyboard-response","497","763552","0.0-19.0-0.23","prediction","","","",".",""
"null","<div style=""color:white; font-size:60px;"">+</div>","null","html-keyboard-response","498","764555","0.0-19.0-1.23","fixation","","","","",""
"208","Stimuli/Hangul_F2.bmp","190","image-keyboard-response","499","764764","0.0-19.0-2.23","c2_test",".","","","","."
"340","<p style=""color:white;""> Next Figure: Male or Female? </p>","190","html-keyboard-response","500","765104","0.0-19.0-0.24","prediction","","","",".",""
"null","<div style=""color:white; font-size:60px;"">+</div>","null","html-keyboard-response","501","766105","0.0-19.0-1.24","fixation","","","","",""
"218","Stimuli/Hangul_F18.bmp","188","image-keyboard-response","502","766324","0.0-19.0-2.24","c2_test",".","","","",","
"206","<p style=""color:white;""> Next Figure: Male or Female? </p>","188","html-keyboard-response","503","766530","0.0-19.0-0.25","prediction","","","",",",""
"null","<div style=""color:white; font-size:60px;"">+</div>","null","html-keyboard-response","504","767532","0.0-19.0-1.25","fixation","","","","",""
"387","Stimuli/Hangul_F19.bmp","188","image-keyboard-response","505","767920","0.0-19.0-2.25","c2_test",".","","","",","
"191","<p style=""color:white;""> Next Figure: Male or Female? </p>","188","html-keyboard-response","506","768112","0.0-19.0-0.26","prediction","","","",",",""
"null","<div style=""color:white; font-size:60px;"">+</div>","null","html-keyboard-response","507","769112","0.0-19.0-1.26","fixation","","","","",""
"225","Stimuli/Hangul_M16.bmp","188","image-keyboard-response","508","769339","0.0-19.0-2.26","c2_test",",","","","",","
"180","<p style=""color:white;""> Next Figure: Male or Female? </p>","188","html-keyboard-response","509","769519","0.0-19.0-0.27","prediction","","","",",",""
"null","<div style=""color:white; font-size:60px;"">+</div>","null","html-keyboard-response","510","770522","0.0-19.0-1.27","fixation","","","","",""
"178","Stimuli/Hangul_F8.bmp","190","image-keyboard-response","511","770701","0.0-19.0-2.27","c2_test",".","","","","."
"179","<p style=""color:white;""> Next Figure: Male or Female? </p>","190","html-keyboard-response","512","770879","0.0-19.0-0.28","prediction","","","",".",""
"null","<div style=""color:white; font-size:60px;"">+</div>","null","html-keyboard-response","513","771881","0.0-19.0-1.28","fixation","","","","",""
"197","Stimuli/Hangul_M7.bmp","188","image-keyboard-response","514","772078","0.0-19.0-2.28","c2_test",",","","","",","
"179","<p style=""color:white;""> Next Figure: Male or Female? </p>","188","html-keyboard-response","515","772258","0.0-19.0-0.29","prediction","","","",",",""
"null","<div style=""color:white; font-size:60px;"">+</div>","null","html-keyboard-response","516","773259","0.0-19.0-1.29","fixation","","","","",""
"222","Stimuli/Hangul_M0.bmp","188","image-keyboard-response","517","773482","0.0-19.0-2.29","c2_test",",","","","",","
"178","<p style=""color:white;""> Next Figure: Male or Female? </p>","188","html-keyboard-response","518","773661","0.0-19.0-0.30","prediction","","","",",",""
"null","<div style=""color:white; font-size:60px;"">+</div>","null","html-keyboard-response","519","774661","0.0-19.0-1.30","fixation","","","","",""
"254","Stimuli/Hangul_M6.bmp","188","image-keyboard-response","520","774916","0.0-19.0-2.30","c2_test",",","","","",","
"169","<p style=""color:white;""> Next Figure: Male or Female? </p>","188","html-keyboard-response","521","775086","0.0-19.0-0.31","prediction","","","",",",""
"null","<div style=""color:white; font-size:60px;"">+</div>","null","html-keyboard-response","522","776086","0.0-19.0-1.31","fixation","","","","",""
"198","Stimuli/Hangul_M1.bmp","190","image-keyboard-response","523","776285","0.0-19.0-2.31","c2_test",",","","","","."
"184","<p style=""color:white;""> Next Figure: Male or Female? </p>","190","html-keyboard-response","524","776470","0.0-19.0-0.32","prediction","","","",".",""
"null","<div style=""color:white; font-size:60px;"">+</div>","null","html-keyboard-response","525","777471","0.0-19.0-1.32","fixation","","","","",""
"124","Stimuli/Hangul_M3.bmp","190","image-keyboard-response","526","777594","0.0-19.0-2.32","c2_test",",","","","","."
"165","<p style=""color:white;""> Next Figure: Male or Female? </p>","190","html-keyboard-response","527","777760","0.0-19.0-0.33","prediction","","","",".",""
"null","<div style=""color:white; font-size:60px;"">+</div>","null","html-keyboard-response","528","778760","0.0-19.0-1.33","fixation","","","","",""
"178","Stimuli/Hangul_M12.bmp","190","image-keyboard-response","529","778939","0.0-19.0-2.33","c2_test",",","","","","."
"167","<p style=""color:white;""> Next Figure: Male or Female? </p>","190","html-keyboard-response","530","779106","0.0-19.0-0.34","prediction","","","",".",""
"null","<div style=""color:white; font-size:60px;"">+</div>","null","html-keyboard-response","531","780107","0.0-19.0-1.34","fixation","","","","",""
"64","Stimuli/Hangul_F23.bmp","188","image-keyboard-response","532","780172","0.0-19.0-2.34","c2_test",".","","","",","
"166","<p style=""color:white;""> Next Figure: Male or Female? </p>","188","html-keyboard-response","533","780338","0.0-19.0-0.35","prediction","","","",",",""
"null","<div style=""color:white; font-size:60px;"">+</div>","null","html-keyboard-response","534","781341","0.0-19.0-1.35","fixation","","","","",""
"125","Stimuli/Hangul_M11.bmp","188","image-keyboard-response","535","781466","0.0-19.0-2.35","c2_test",",","","","",","
"173","<p style=""color:white;""> Next Figure: Male or Female? </p>","188","html-keyboard-response","536","781640","0.0-19.0-0.36","prediction","","","",",",""
"null","<div style=""color:white; font-size:60px;"">+</div>","null","html-keyboard-response","537","782643","0.0-19.0-1.36","fixation","","","","",""
"64","Stimuli/Hangul_F17.bmp","188","image-keyboard-response","538","782707","0.0-19.0-2.36","c2_test",".","","","",","
"171","<p style=""color:white;""> Next Figure: Male or Female? </p>","188","html-keyboard-response","539","782880","0.0-19.0-0.37","prediction","","","",",",""
"null","<div style=""color:white; font-size:60px;"">+</div>","null","html-keyboard-response","540","783881","0.0-19.0-1.37","fixation","","","","",""
"97","Stimuli/Hangul_M13.bmp","188","image-keyboard-response","541","783977","0.0-19.0-2.37","c2_test",",","","","",","
"170","<p style=""color:white;""> Next Figure: Male or Female? </p>","188","html-keyboard-response","542","784147","0.0-19.0-0.38","prediction","","","",",",""
"null","<div style=""color:white; font-size:60px;"">+</div>","null","html-keyboard-response","543","785149","0.0-19.0-1.38","fixation","","","","",""
"192","Stimuli/Hangul_F12.bmp","188","image-keyboard-response","544","785341","0.0-19.0-2.38","c2_test",".","","","",","
"173","<p style=""color:white;""> Next Figure: Male or Female? </p>","188","html-keyboard-response","545","785515","0.0-19.0-0.39","prediction","","","",",",""
"null","<div style=""color:white; font-size:60px;"">+</div>","null","html-keyboard-response","546","786516","0.0-19.0-1.39","fixation","","","","",""
"220","Stimuli/Hangul_F3.bmp","188","image-keyboard-response","547","786736","0.0-19.0-2.39","c2_test",".","","","",","
"179","<p style=""color:white;""> Next Figure: Male or Female? </p>","188","html-keyboard-response","548","786916","0.0-19.0-0.40","prediction","","","",",",""
"null","<div style=""color:white; font-size:60px;"">+</div>","null","html-keyboard-response","549","787917","0.0-19.0-1.40","fixation","","","","",""
"277","Stimuli/Hangul_M4.bmp","190","image-keyboard-response","550","788195","0.0-19.0-2.40","c2_test",",","","","","."
"186","<p style=""color:white;""> Next Figure: Male or Female? </p>","190","html-keyboard-response","551","788382","0.0-19.0-0.41","prediction","","","",".",""
"null","<div style=""color:white; font-size:60px;"">+</div>","null","html-keyboard-response","552","789382","0.0-19.0-1.41","fixation","","","","",""
"276","Stimuli/Hangul_F13.bmp","190","image-keyboard-response","553","789660","0.0-19.0-2.41","c2_test",".","","","","."
"195","<p style=""color:white;""> Next Figure: Male or Female? </p>","190","html-keyboard-response","554","789855","0.0-19.0-0.42","prediction","","","",".",""
"null","<div style=""color:white; font-size:60px;"">+</div>","null","html-keyboard-response","555","790856","0.0-19.0-1.42","fixation","","","","",""
"286","Stimuli/Hangul_F24.bmp","190","image-keyboard-response","556","791142","0.0-19.0-2.42","c2_test",".","","","","."
"172","<p style=""color:white;""> Next Figure: Male or Female? </p>","190","html-keyboard-response","557","791315","0.0-19.0-0.43","prediction","","","",".",""
"null","<div style=""color:white; font-size:60px;"">+</div>","null","html-keyboard-response","558","792318","0.0-19.0-1.43","fixation","","","","",""
"216","Stimuli/Hangul_M9.bmp","190","image-keyboard-response","559","792533","0.0-19.0-2.43","c2_test",",","","","","."
"160","<p style=""color:white;""> Next Figure: Male or Female? </p>","190","html-keyboard-response","560","792695","0.0-19.0-0.44","prediction","","","",".",""
"null","<div style=""color:white; font-size:60px;"">+</div>","null","html-keyboard-response","561","793696","0.0-19.0-1.44","fixation","","","","",""
"130","Stimuli/Hangul_M22.bmp","188","image-keyboard-response","562","793827","0.0-19.0-2.44","c2_test",",","","","",","
"160","<p style=""color:white;""> Next Figure: Male or Female? </p>","188","html-keyboard-response","563","793987","0.0-19.0-0.45","prediction","","","",",",""
"null","<div style=""color:white; font-size:60px;"">+</div>","null","html-keyboard-response","564","794988","0.0-19.0-1.45","fixation","","","","",""
"204","Stimuli/Hangul_M24.bmp","188","image-keyboard-response","565","795193","0.0-19.0-2.45","c2_test",",","","","",","
"167","<p style=""color:white;""> Next Figure: Male or Female? </p>","188","html-keyboard-response","566","795360","0.0-19.0-0.46","prediction","","","",",",""
"null","<div style=""color:white; font-size:60px;"">+</div>","null","html-keyboard-response","567","796360","0.0-19.0-1.46","fixation","","","","",""
"162","Stimuli/Hangul_M20.bmp","188","image-keyboard-response","568","796522","0.0-19.0-2.46","c2_test",",","","","",","
"200","<p style=""color:white;""> Next Figure: Male or Female? </p>","188","html-keyboard-response","569","796722","0.0-19.0-0.47","prediction","","","",",",""
"null","<div style=""color:white; font-size:60px;"">+</div>","null","html-keyboard-response","570","797724","0.0-19.0-1.47","fixation","","","","",""
"228","Stimuli/Hangul_F4.bmp","188","image-keyboard-response","571","797952","0.0-19.0-2.47","c2_test",".","","","",","
"243","<p style=""color:white;""> Next Figure: Male or Female? </p>","188","html-keyboard-response","572","798195","0.0-19.0-0.48","prediction","","","",",",""
"null","<div style=""color:white; font-size:60px;"">+</div>","null","html-keyboard-response","573","799196","0.0-19.0-1.48","fixation","","","","",""
"514","Stimuli/Hangul_M2.bmp","188","image-keyboard-response","574","799711","0.0-19.0-2.48","c2_test",",","","","",","
"256","<p style=""color:white;""> Next Figure: Male or Female? </p>","188","html-keyboard-response","575","799969","0.0-19.0-0.49","prediction","","","",",",""
"null","<div style=""color:white; font-size:60px;"">+</div>","null","html-keyboard-response","576","800970","0.0-19.0-1.49","fixation","","","","",""
"329","Stimuli/Hangul_F9.bmp","188","image-keyboard-response","577","801300","0.0-19.0-2.49","c2_test",".","","","",","
"1998","<p style=""color:white;"">Good job, block 1 complete! Please take a moment to rest.</p> <p style=""color:white;"">When you are ready to continue with block 2 of 4, press the space bar.</p> ","32","html-keyboard-response","578","803299","0.0-20.0","","","","","",""
"345","<p style=""color:white;""> Next Figure: Male or Female? </p>","188","html-keyboard-response","579","805646","0.0-21.0-0.0","prediction","","","",",",""
"null","<div style=""color:white; font-size:60px;"">+</div>","null","html-keyboard-response","580","806646","0.0-21.0-1.0","fixation","","","","",""
"309","Stimuli/Hangul_M46.bmp","190","image-keyboard-response","581","806956","0.0-21.0-2.0","c2_test",",","","","","."
"481","<p style=""color:white;""> Next Figure: Male or Female? </p>","190","html-keyboard-response","582","807437","0.0-21.0-0.1","prediction","","","",".",""
"null","<div style=""color:white; font-size:60px;"">+</div>","null","html-keyboard-response","583","808440","0.0-21.0-1.1","fixation","","","","",""
"319","Stimuli/Hangul_F28.bmp","190","image-keyboard-response","584","808760","0.0-21.0-2.1","c2_test",".","","","","."
"212","<p style=""color:white;""> Next Figure: Male or Female? </p>","190","html-keyboard-response","585","808972","0.0-21.0-0.2","prediction","","","",".",""
"null","<div style=""color:white; font-size:60px;"">+</div>","null","html-keyboard-response","586","809974","0.0-21.0-1.2","fixation","","","","",""
"268","Stimuli/Hangul_F42.bmp","188","image-keyboard-response","587","810243","0.0-21.0-2.2","c2_test",".","","","",","
"256","<p style=""color:white;""> Next Figure: Male or Female? </p>","188","html-keyboard-response","588","810500","0.0-21.0-0.3","prediction","","","",",",""
"null","<div style=""color:white; font-size:60px;"">+</div>","null","html-keyboard-response","589","811502","0.0-21.0-1.3","fixation","","","","",""
"230","Stimuli/Hangul_M49.bmp","188","image-keyboard-response","590","811732","0.0-21.0-2.3","c2_test",",","","","",","
"220","<p style=""color:white;""> Next Figure: Male or Female? </p>","188","html-keyboard-response","591","811953","0.0-21.0-0.4","prediction","","","",",",""
"null","<div style=""color:white; font-size:60px;"">+</div>","null","html-keyboard-response","592","812954","0.0-21.0-1.4","fixation","","","","",""
"255","Stimuli/Hangul_M42.bmp","190","image-keyboard-response","593","813210","0.0-21.0-2.4","c2_test",",","","","","."
"169","<p style=""color:white;""> Next Figure: Male or Female? </p>","190","html-keyboard-response","594","813379","0.0-21.0-0.5","prediction","","","",".",""
"null","<div style=""color:white; font-size:60px;"">+</div>","null","html-keyboard-response","595","814381","0.0-21.0-1.5","fixation","","","","",""
"267","Stimuli/Hangul_F30.bmp","190","image-keyboard-response","596","814650","0.0-21.0-2.5","c2_test",".","","","","."
"225","<p style=""color:white;""> Next Figure: Male or Female? </p>","190","html-keyboard-response","597","814876","0.0-21.0-0.6","prediction","","","",".",""
"null","<div style=""color:white; font-size:60px;"">+</div>","null","html-keyboard-response","598","815876","0.0-21.0-1.6","fixation","","","","",""
"377","Stimuli/Hangul_M38.bmp","190","image-keyboard-response","599","816252","0.0-21.0-2.6","c2_test",",","","","","."
"923","<p style=""color:white;""> Next Figure: Male or Female? </p>","190","html-keyboard-response","600","817176","0.0-21.0-0.7","prediction","","","",".",""
"null","<div style=""color:white; font-size:60px;"">+</div>","null","html-keyboard-response","601","818177","0.0-21.0-1.7","fixation","","","","",""
"404","Stimuli/Hangul_F32.bmp","188","image-keyboard-response","602","818581","0.0-21.0-2.7","c2_test",".","","","",","
"316","<p style=""color:white;""> Next Figure: Male or Female? </p>","188","html-keyboard-response","603","818897","0.0-21.0-0.8","prediction","","","",",",""
"null","<div style=""color:white; font-size:60px;"">+</div>","null","html-keyboard-response","604","819898","0.0-21.0-1.8","fixation","","","","",""
"208","Stimuli/Hangul_M48.bmp","188","image-keyboard-response","605","820107","0.0-21.0-2.8","c2_test",",","","","",","
"366","<p style=""color:white;""> Next Figure: Male or Female? </p>","188","html-keyboard-response","606","820474","0.0-21.0-0.9","prediction","","","",",",""
"null","<div style=""color:white; font-size:60px;"">+</div>","null","html-keyboard-response","607","821475","0.0-21.0-1.9","fixation","","","","",""
"183","Stimuli/Hangul_F46.bmp","188","image-keyboard-response","608","821659","0.0-21.0-2.9","c2_test",".","","","",","
"195","<p style=""color:white;""> Next Figure: Male or Female? </p>","188","html-keyboard-response","609","821854","0.0-21.0-0.10","prediction","","","",",",""
"null","<div style=""color:white; font-size:60px;"">+</div>","null","html-keyboard-response","610","822855","0.0-21.0-1.10","fixation","","","","",""
"228","Stimuli/Hangul_F40.bmp","188","image-keyboard-response","611","823085","0.0-21.0-2.10","c2_test",".","","","",","
"171","<p style=""color:white;""> Next Figure: Male or Female? </p>","188","html-keyboard-response","612","823257","0.0-21.0-0.11","prediction","","","",",",""
"null","<div style=""color:white; font-size:60px;"">+</div>","null","html-keyboard-response","613","824257","0.0-21.0-1.11","fixation","","","","",""
"135","Stimuli/Hangul_F29.bmp","190","image-keyboard-response","614","824393","0.0-21.0-2.11","c2_test",".","","","","."
"175","<p style=""color:white;""> Next Figure: Male or Female? </p>","190","html-keyboard-response","615","824567","0.0-21.0-0.12","prediction","","","",".",""
"null","<div style=""color:white; font-size:60px;"">+</div>","null","html-keyboard-response","616","825569","0.0-21.0-1.12","fixation","","","","",""
"175","Stimuli/Hangul_F34.bmp","190","image-keyboard-response","617","825746","0.0-21.0-2.12","c2_test",".","","","","."
"169","<p style=""color:white;""> Next Figure: Male or Female? </p>","190","html-keyboard-response","618","825915","0.0-21.0-0.13","prediction","","","",".",""
"null","<div style=""color:white; font-size:60px;"">+</div>","null","html-keyboard-response","619","826916","0.0-21.0-1.13","fixation","","","","",""
"109","Stimuli/Hangul_M28.bmp","188","image-keyboard-response","620","827026","0.0-21.0-2.13","c2_test",",","","","",","
"168","<p style=""color:white;""> Next Figure: Male or Female? </p>","188","html-keyboard-response","621","827194","0.0-21.0-0.14","prediction","","","",",",""
"null","<div style=""color:white; font-size:60px;"">+</div>","null","html-keyboard-response","622","828196","0.0-21.0-1.14","fixation","","","","",""
"162","Stimuli/Hangul_M39.bmp","188","image-keyboard-response","623","828358","0.0-21.0-2.14","c2_test",",","","","",","
"176","<p style=""color:white;""> Next Figure: Male or Female? </p>","188","html-keyboard-response","624","828536","0.0-21.0-0.15","prediction","","","",",",""
"null","<div style=""color:white; font-size:60px;"">+</div>","null","html-keyboard-response","625","829536","0.0-21.0-1.15","fixation","","","","",""
"237","Stimuli/Hangul_F27.bmp","188","image-keyboard-response","626","829773","0.0-21.0-2.15","c2_test",".","","","",","
"188","<p style=""color:white;""> Next Figure: Male or Female? </p>","188","html-keyboard-response","627","829963","0.0-21.0-0.16","prediction","","","",",",""
"null","<div style=""color:white; font-size:60px;"">+</div>","null","html-keyboard-response","628","830964","0.0-21.0-1.16","fixation","","","","",""
"550","Stimuli/Hangul_M44.bmp","190","image-keyboard-response","629","831514","0.0-21.0-2.16","c2_test",",","","","","."
"191","<p style=""color:white;""> Next Figure: Male or Female? </p>","190","html-keyboard-response","630","831707","0.0-21.0-0.17","prediction","","","",".",""
"null","<div style=""color:white; font-size:60px;"">+</div>","null","html-keyboard-response","631","832708","0.0-21.0-1.17","fixation","","","","",""
"225","Stimuli/Hangul_M31.bmp","188","image-keyboard-response","632","832934","0.0-21.0-2.17","c2_test",",","","","",","
"176","<p style=""color:white;""> Next Figure: Male or Female? </p>","188","html-keyboard-response","633","833109","0.0-21.0-0.18","prediction","","","",",",""
"null","<div style=""color:white; font-size:60px;"">+</div>","null","html-keyboard-response","634","834109","0.0-21.0-1.18","fixation","","","","",""
"44","Stimuli/Hangul_F49.bmp","188","image-keyboard-response","635","834154","0.0-21.0-2.18","c2_test",".","","","",","
"182","<p style=""color:white;""> Next Figure: Male or Female? </p>","188","html-keyboard-response","636","834336","0.0-21.0-0.19","prediction","","","",",",""
"null","<div style=""color:white; font-size:60px;"">+</div>","null","html-keyboard-response","637","835338","0.0-21.0-1.19","fixation","","","","",""
"307","Stimuli/Hangul_M25.bmp","188","image-keyboard-response","638","835646","0.0-21.0-2.19","c2_test",",","","","",","
"178","<p style=""color:white;""> Next Figure: Male or Female? </p>","188","html-keyboard-response","639","835825","0.0-21.0-0.20","prediction","","","",",",""
"null","<div style=""color:white; font-size:60px;"">+</div>","null","html-keyboard-response","640","836827","0.0-21.0-1.20","fixation","","","","",""
"279","Stimuli/Hangul_F47.bmp","188","image-keyboard-response","641","837108","0.0-21.0-2.20","c2_test",".","","","",","
"179","<p style=""color:white;""> Next Figure: Male or Female? </p>","188","html-keyboard-response","642","837286","0.0-21.0-0.21","prediction","","","",",",""
"null","<div style=""color:white; font-size:60px;"">+</div>","null","html-keyboard-response","643","838286","0.0-21.0-1.21","fixation","","","","",""
"174","Stimuli/Hangul_M29.bmp","190","image-keyboard-response","644","838461","0.0-21.0-2.21","c2_test",",","","","","."
"374","<p style=""color:white;""> Next Figure: Male or Female? </p>","190","html-keyboard-response","645","838836","0.0-21.0-0.22","prediction","","","",".",""
"null","<div style=""color:white; font-size:60px;"">+</div>","null","html-keyboard-response","646","839837","0.0-21.0-1.22","fixation","","","","",""
"246","Stimuli/Hangul_M27.bmp","190","image-keyboard-response","647","840085","0.0-21.0-2.22","c2_test",",","","","","."
"205","<p style=""color:white;""> Next Figure: Male or Female? </p>","190","html-keyboard-response","648","840291","0.0-21.0-0.23","prediction","","","",".",""
"null","<div style=""color:white; font-size:60px;"">+</div>","null","html-keyboard-response","649","841292","0.0-21.0-1.23","fixation","","","","",""
"240","Stimuli/Hangul_M45.bmp","190","image-keyboard-response","650","841534","0.0-21.0-2.23","c2_test",",","","","","."
"180","<p style=""color:white;""> Next Figure: Male or Female? </p>","190","html-keyboard-response","651","841714","0.0-21.0-0.24","prediction","","","",".",""
"null","<div style=""color:white; font-size:60px;"">+</div>","null","html-keyboard-response","652","842717","0.0-21.0-1.24","fixation","","","","",""
"338","Stimuli/Hangul_M32.bmp","188","image-keyboard-response","653","843055","0.0-21.0-2.24","c2_test",",","","","",","
"199","<p style=""color:white;""> Next Figure: Male or Female? </p>","188","html-keyboard-response","654","843254","0.0-21.0-0.25","prediction","","","",",",""
"null","<div style=""color:white; font-size:60px;"">+</div>","null","html-keyboard-response","655","844256","0.0-21.0-1.25","fixation","","","","",""
"320","Stimuli/Hangul_F45.bmp","190","image-keyboard-response","656","844577","0.0-21.0-2.25","c2_test",".","","","","."
"500","<p style=""color:white;""> Next Figure: Male or Female? </p>","190","html-keyboard-response","657","845077","0.0-21.0-0.26","prediction","","","",".",""
"null","<div style=""color:white; font-size:60px;"">+</div>","null","html-keyboard-response","658","846078","0.0-21.0-1.26","fixation","","","","",""
"357","Stimuli/Hangul_M43.bmp","188","image-keyboard-response","659","846437","0.0-21.0-2.26","c2_test",",","","","",","
"190","<p style=""color:white;""> Next Figure: Male or Female? </p>","188","html-keyboard-response","660","846628","0.0-21.0-0.27","prediction","","","",",",""
"null","<div style=""color:white; font-size:60px;"">+</div>","null","html-keyboard-response","661","847629","0.0-21.0-1.27","fixation","","","","",""
"59","Stimuli/Hangul_F33.bmp","190","image-keyboard-response","662","847689","0.0-21.0-2.27","c2_test",".","","","","."
"190","<p style=""color:white;""> Next Figure: Male or Female? </p>","190","html-keyboard-response","663","847880","0.0-21.0-0.28","prediction","","","",".",""
"null","<div style=""color:white; font-size:60px;"">+</div>","null","html-keyboard-response","664","848882","0.0-21.0-1.28","fixation","","","","",""
"40","Stimuli/Hangul_M33.bmp","188","image-keyboard-response","665","848923","0.0-21.0-2.28","c2_test",",","","","",","
"205","<p style=""color:white;""> Next Figure: Male or Female? </p>","188","html-keyboard-response","666","849130","0.0-21.0-0.29","prediction","","","",",",""
"null","<div style=""color:white; font-size:60px;"">+</div>","null","html-keyboard-response","667","850131","0.0-21.0-1.29","fixation","","","","",""
"298","Stimuli/Hangul_M47.bmp","190","image-keyboard-response","668","850430","0.0-21.0-2.29","c2_test",",","","","","."
"202","<p style=""color:white;""> Next Figure: Male or Female? </p>","190","html-keyboard-response","669","850631","0.0-21.0-0.30","prediction","","","",".",""
"null","<div style=""color:white; font-size:60px;"">+</div>","null","html-keyboard-response","670","851633","0.0-21.0-1.30","fixation","","","","",""
"281","Stimuli/Hangul_M41.bmp","188","image-keyboard-response","671","851915","0.0-21.0-2.30","c2_test",",","","","",","
"182","<p style=""color:white;""> Next Figure: Male or Female? </p>","188","html-keyboard-response","672","852096","0.0-21.0-0.31","prediction","","","",",",""
"null","<div style=""color:white; font-size:60px;"">+</div>","null","html-keyboard-response","673","853098","0.0-21.0-1.31","fixation","","","","",""
"230","Stimuli/Hangul_F31.bmp","190","image-keyboard-response","674","853329","0.0-21.0-2.31","c2_test",".","","","","."
"194","<p style=""color:white;""> Next Figure: Male or Female? </p>","190","html-keyboard-response","675","853524","0.0-21.0-0.32","prediction","","","",".",""
"null","<div style=""color:white; font-size:60px;"">+</div>","null","html-keyboard-response","676","854525","0.0-21.0-1.32","fixation","","","","",""
"136","Stimuli/Hangul_F38.bmp","190","image-keyboard-response","677","854660","0.0-21.0-2.32","c2_test",".","","","","."
"211","<p style=""color:white;""> Next Figure: Male or Female? </p>","190","html-keyboard-response","678","854873","0.0-21.0-0.33","prediction","","","",".",""
"null","<div style=""color:white; font-size:60px;"">+</div>","null","html-keyboard-response","679","855874","0.0-21.0-1.33","fixation","","","","",""
"205","Stimuli/Hangul_M40.bmp","188","image-keyboard-response","680","856080","0.0-21.0-2.33","c2_test",",","","","",","
"188","<p style=""color:white;""> Next Figure: Male or Female? </p>","188","html-keyboard-response","681","856268","0.0-21.0-0.34","prediction","","","",",",""
"null","<div style=""color:white; font-size:60px;"">+</div>","null","html-keyboard-response","682","857270","0.0-21.0-1.34","fixation","","","","",""
"245","Stimuli/Hangul_F35.bmp","190","image-keyboard-response","683","857514","0.0-21.0-2.34","c2_test",".","","","","."
"202","<p style=""color:white;""> Next Figure: Male or Female? </p>","190","html-keyboard-response","684","857718","0.0-21.0-0.35","prediction","","","",".",""
"null","<div style=""color:white; font-size:60px;"">+</div>","null","html-keyboard-response","685","858720","0.0-21.0-1.35","fixation","","","","",""
"278","Stimuli/Hangul_F25.bmp","188","image-keyboard-response","686","858999","0.0-21.0-2.35","c2_test",".","","","",","
"225","<p style=""color:white;""> Next Figure: Male or Female? </p>","188","html-keyboard-response","687","859224","0.0-21.0-0.36","prediction","","","",",",""
"null","<div style=""color:white; font-size:60px;"">+</div>","null","html-keyboard-response","688","860226","0.0-21.0-1.36","fixation","","","","",""
"240","Stimuli/Hangul_M34.bmp","188","image-keyboard-response","689","860468","0.0-21.0-2.36","c2_test",",","","","",","
"182","<p style=""color:white;""> Next Figure: Male or Female? </p>","188","html-keyboard-response","690","860650","0.0-21.0-0.37","prediction","","","",",",""
"null","<div style=""color:white; font-size:60px;"">+</div>","null","html-keyboard-response","691","861651","0.0-21.0-1.37","fixation","","","","",""
"195","Stimuli/Hangul_F48.bmp","188","image-keyboard-response","692","861846","0.0-21.0-2.37","c2_test",".","","","",","
"197","<p style=""color:white;""> Next Figure: Male or Female? </p>","188","html-keyboard-response","693","862044","0.0-21.0-0.38","prediction","","","",",",""
