"rt","stimulus","key_press","trial_type","trial_index","time_elapsed","internal_node_id","test_part","correct_response","C1_train","C1","A","C2"
"2982.905000000086","<p style=""color:white;"">Welcome to the experiment! Press any key to begin.</p>","32","html-keyboard-response","0","3005","0.0-0.0","","","","","",""
"23633.859999999913","<p style=""color:white;"">You will see a series of abstract figures. They are adaptations of signs in the Korean alphabet, but that is not important for this study. </p><p style=""color:white;"">Abstract figures sometimes have a more masculine or feminine shape. Here, each figure has already been assigned a gender as <q>Male</q> or <q>Female</q> by a panel of respondents in a pilot study. The respondents were not given specific instructions on how to do this, but were only told to use their intuition and to take into account the entire configuration of the stimulus. </p><p style=""color:white;"">Your task now is to guess the assigned gender of each figure. Please press the corresponding response keys to indicate your choice: </p><p style=""color:white;""> Male &#8594 <q>,</q> (comma)</p><p style=""color:white;""> Female &#8594 <q>.</q> (period)</p><p style=""color:white;"">Press either response keys to continue.</p>","188","html-keyboard-response","1","26643","0.0-1.0","","","","","",""
"7926.8449999999575","<p style=""color:white;"">Your choice is correct if it matches the gender assigned by the majority of respondents in the pilot study.</p> <p style=""color:white;"">For each correct choice you will receive 2 cents. There will be 200 trials divided into 4 blocks of 50 trials. You will be able to take a break after every 50 trials.</p> <p style=""color:white;"">Press the space bar to continue.</p>","32","html-keyboard-response","2","34574","0.0-2.0","","","","","",""
"4927.095000000001","<p style=""color:white;"">Here are some examples.</p> <p style=""color:white;"">For each, guess whether the assigned figure is male-like or female-like and indicate your choice by pressing either response keys.</p> <p style=""color:white;"">Press the space bar to continue.</p>","32","html-keyboard-response","3","39504","0.0-3.0","","","","","",""
"null","<div style=""color:white; font-size:60px;"">+</div>","null","html-keyboard-response","4","42529","0.0-4.0-0.0","fixation","","","","",""
"4242.430000000022","Stimuli/Hangul_E1.bmp","188","image-keyboard-response","5","46777","0.0-4.0-1.0","c1_train",",",",","","",""
"null","<div style=""color:white; font-size:60px;"">+</div>","null","html-keyboard-response","6","47790","0.0-4.0-0.1","fixation","","","","",""
"3467.6299999998882","Stimuli/Hangul_E2.bmp","190","image-keyboard-response","7","51262","0.0-4.0-1.1","c1_train",".",".","","",""
"null","<div style=""color:white; font-size:60px;"">+</div>","null","html-keyboard-response","8","52284","0.0-4.0-0.2","fixation","","","","",""
"2904.0899999999965","Stimuli/Hangul_E0.bmp","190","image-keyboard-response","9","55191","0.0-4.0-1.2","c1_train",",",".","","",""
"2438.7750000000815","<p style=""color:white;"">Let us begin! Press the space bar when you are ready to start block 1 of 4.</p> ","32","html-keyboard-response","10","57627","0.0-5.0","","","","","",""
"null","<div style=""color:white; font-size:60px;"">+</div>","null","html-keyboard-response","11","60651","0.0-6.0-0.0","fixation","","","","",""
"2944.4100000000617","Stimuli/Hangul_F4.bmp","188","image-keyboard-response","12","63599","0.0-6.0-1.0","test",".","",",","",""
"null","<div style=""color:white; font-size:60px;"">+</div>","null","html-keyboard-response","13","64610","0.0-6.0-0.1","fixation","","","","",""
"2272.420000000013","Stimuli/Hangul_M0.bmp","190","image-keyboard-response","14","66886","0.0-6.0-1.1","test",",","",".","",""
"null","<div style=""color:white; font-size:60px;"">+</div>","null","html-keyboard-response","15","67902","0.0-6.0-0.2","fixation","","","","",""
"2817.9849999998987","Stimuli/Hangul_F5.bmp","188","image-keyboard-response","16","70723","0.0-6.0-1.2","test",".","",",","",""
"null","<div style=""color:white; font-size:60px;"">+</div>","null","html-keyboard-response","17","71744","0.0-6.0-0.3","fixation","","","","",""
"3660.8449999998847","Stimuli/Hangul_F15.bmp","188","image-keyboard-response","18","75415","0.0-6.0-1.3","test",".","",",","",""
"null","<div style=""color:white; font-size:60px;"">+</div>","null","html-keyboard-response","19","76431","0.0-6.0-0.4","fixation","","","","",""
"3541.4150000001537","Stimuli/Hangul_M2.bmp","188","image-keyboard-response","20","79977","0.0-6.0-1.4","test",",","",",","",""
"null","<div style=""color:white; font-size:60px;"">+</div>","null","html-keyboard-response","21","80984","0.0-6.0-0.5","fixation","","","","",""
"3748.9850000001898","Stimuli/Hangul_M7.bmp","188","image-keyboard-response","22","84738","0.0-6.0-1.5","test",",","",",","",""
"null","<div style=""color:white; font-size:60px;"">+</div>","null","html-keyboard-response","23","85747","0.0-6.0-0.6","fixation","","","","",""
"4577.909999999974","Stimuli/Hangul_F14.bmp","190","image-keyboard-response","24","90328","0.0-6.0-1.6","test",".","",".","",""
"null","<div style=""color:white; font-size:60px;"">+</div>","null","html-keyboard-response","25","91346","0.0-6.0-0.7","fixation","","","","",""
"4994.149999999994","Stimuli/Hangul_M19.bmp","190","image-keyboard-response","26","96347","0.0-6.0-1.7","test",",","",".","",""
"null","<div style=""color:white; font-size:60px;"">+</div>","null","html-keyboard-response","27","97352","0.0-6.0-0.8","fixation","","","","",""
"3718.560000000027","Stimuli/Hangul_M15.bmp","190","image-keyboard-response","28","101080","0.0-6.0-1.8","test",",","",".","",""
"null","<div style=""color:white; font-size:60px;"">+</div>","null","html-keyboard-response","29","102083","0.0-6.0-0.9","fixation","","","","",""
"2467.920000000042","Stimuli/Hangul_M21.bmp","188","image-keyboard-response","30","104559","0.0-6.0-1.9","test",",","",",","",""
"null","<div style=""color:white; font-size:60px;"">+</div>","null","html-keyboard-response","31","105578","0.0-6.0-0.10","fixation","","","","",""
"2641.4849999998696","Stimuli/Hangul_F1.bmp","188","image-keyboard-response","32","108224","0.0-6.0-1.10","test",".","",",","",""
"null","<div style=""color:white; font-size:60px;"">+</div>","null","html-keyboard-response","33","109238","0.0-6.0-0.11","fixation","","","","",""
"3890.9100000000617","Stimuli/Hangul_M12.bmp","190","image-keyboard-response","34","113132","0.0-6.0-1.11","test",",","",".","",""
"null","<div style=""color:white; font-size:60px;"">+</div>","null","html-keyboard-response","35","114138","0.0-6.0-0.12","fixation","","","","",""
"3592.0450000001","Stimuli/Hangul_F6.bmp","188","image-keyboard-response","36","117737","0.0-6.0-1.12","test",".","",",","",""
"null","<div style=""color:white; font-size:60px;"">+</div>","null","html-keyboard-response","37","118744","0.0-6.0-0.13","fixation","","","","",""
"5009.739999999962","Stimuli/Hangul_M18.bmp","190","image-keyboard-response","38","123758","0.0-6.0-1.13","test",",","",".","",""
"null","<div style=""color:white; font-size:60px;"">+</div>","null","html-keyboard-response","39","124774","0.0-6.0-0.14","fixation","","","","",""
"2383.755000000063","Stimuli/Hangul_F21.bmp","188","image-keyboard-response","40","127168","0.0-6.0-1.14","test",".","",",","",""
"null","<div style=""color:white; font-size:60px;"">+</div>","null","html-keyboard-response","41","128178","0.0-6.0-0.15","fixation","","","","",""
"3881.984999999986","Stimuli/Hangul_F0.bmp","188","image-keyboard-response","42","132066","0.0-6.0-1.15","test",".","",",","",""
"null","<div style=""color:white; font-size:60px;"">+</div>","null","html-keyboard-response","43","133073","0.0-6.0-0.16","fixation","","","","",""
"2726.974999999831","Stimuli/Hangul_F13.bmp","188","image-keyboard-response","44","135803","0.0-6.0-1.16","test",".","",",","",""
"null","<div style=""color:white; font-size:60px;"">+</div>","null","html-keyboard-response","45","136824","0.0-6.0-0.17","fixation","","","","",""
"2492.245000000141","Stimuli/Hangul_F3.bmp","190","image-keyboard-response","46","139319","0.0-6.0-1.17","test",".","",".","",""
"null","<div style=""color:white; font-size:60px;"">+</div>","null","html-keyboard-response","47","140332","0.0-6.0-0.18","fixation","","","","",""
"2280.970000000001","Stimuli/Hangul_M24.bmp","188","image-keyboard-response","48","142618","0.0-6.0-1.18","test",",","",",","",""
"null","<div style=""color:white; font-size:60px;"">+</div>","null","html-keyboard-response","49","143624","0.0-6.0-0.19","fixation","","","","",""
"2134.475000000064","Stimuli/Hangul_F22.bmp","188","image-keyboard-response","50","145762","0.0-6.0-1.19","test",".","",",","",""
"null","<div style=""color:white; font-size:60px;"">+</div>","null","html-keyboard-response","51","146772","0.0-6.0-0.20","fixation","","","","",""
"1927.669999999809","Stimuli/Hangul_F2.bmp","188","image-keyboard-response","52","148701","0.0-6.0-1.20","test",".","",",","",""
"null","<div style=""color:white; font-size:60px;"">+</div>","null","html-keyboard-response","53","149713","0.0-6.0-0.21","fixation","","","","",""
"2905.0399999998917","Stimuli/Hangul_M4.bmp","188","image-keyboard-response","54","152629","0.0-6.0-1.21","test",",","",",","",""
"null","<div style=""color:white; font-size:60px;"">+</div>","null","html-keyboard-response","55","153638","0.0-6.0-0.22","fixation","","","","",""
"2736.675000000105","Stimuli/Hangul_M5.bmp","188","image-keyboard-response","56","156377","0.0-6.0-1.22","test",",","",",","",""
"null","<div style=""color:white; font-size:60px;"">+</div>","null","html-keyboard-response","57","157393","0.0-6.0-0.23","fixation","","","","",""
"2033.3050000001676","Stimuli/Hangul_M23.bmp","188","image-keyboard-response","58","159431","0.0-6.0-1.23","test",",","",",","",""
"null","<div style=""color:white; font-size:60px;"">+</div>","null","html-keyboard-response","59","160448","0.0-6.0-0.24","fixation","","","","",""
"1899.3000000000175","Stimuli/Hangul_M10.bmp","190","image-keyboard-response","60","162350","0.0-6.0-1.24","test",",","",".","",""
"null","<div style=""color:white; font-size:60px;"">+</div>","null","html-keyboard-response","61","163375","0.0-6.0-0.25","fixation","","","","",""
"3102.1849999999686","Stimuli/Hangul_F20.bmp","188","image-keyboard-response","62","166481","0.0-6.0-1.25","test",".","",",","",""
"null","<div style=""color:white; font-size:60px;"">+</div>","null","html-keyboard-response","63","167503","0.0-6.0-0.26","fixation","","","","",""
"2733.9850000000733","Stimuli/Hangul_M16.bmp","190","image-keyboard-response","64","170240","0.0-6.0-1.26","test",",","",".","",""
"null","<div style=""color:white; font-size:60px;"">+</div>","null","html-keyboard-response","65","171250","0.0-6.0-0.27","fixation","","","","",""
"4836.080000000016","Stimuli/Hangul_F8.bmp","188","image-keyboard-response","66","176089","0.0-6.0-1.27","test",".","",",","",""
"null","<div style=""color:white; font-size:60px;"">+</div>","null","html-keyboard-response","67","177097","0.0-6.0-0.28","fixation","","","","",""
"2899.750000000058","Stimuli/Hangul_F19.bmp","188","image-keyboard-response","68","180012","0.0-6.0-1.28","test",".","",",","",""
"null","<div style=""color:white; font-size:60px;"">+</div>","null","html-keyboard-response","69","181023","0.0-6.0-0.29","fixation","","","","",""
"2310.414999999921","Stimuli/Hangul_M14.bmp","190","image-keyboard-response","70","183337","0.0-6.0-1.29","test",",","",".","",""
"null","<div style=""color:white; font-size:60px;"">+</div>","null","html-keyboard-response","71","184348","0.0-6.0-0.30","fixation","","","","",""
"3074.395000000077","Stimuli/Hangul_M8.bmp","188","image-keyboard-response","72","187428","0.0-6.0-1.30","test",",","",",","",""
"null","<div style=""color:white; font-size:60px;"">+</div>","null","html-keyboard-response","73","188439","0.0-6.0-0.31","fixation","","","","",""
"2719.4299999998766","Stimuli/Hangul_M6.bmp","190","image-keyboard-response","74","191163","0.0-6.0-1.31","test",",","",".","",""
"null","<div style=""color:white; font-size:60px;"">+</div>","null","html-keyboard-response","75","192173","0.0-6.0-0.32","fixation","","","","",""
"2244.0599999999977","Stimuli/Hangul_M13.bmp","190","image-keyboard-response","76","194424","0.0-6.0-1.32","test",",","",".","",""
"null","<div style=""color:white; font-size:60px;"">+</div>","null","html-keyboard-response","77","195433","0.0-6.0-0.33","fixation","","","","",""
"3812.560000000056","Stimuli/Hangul_M17.bmp","190","image-keyboard-response","78","199250","0.0-6.0-1.33","test",",","",".","",""
"null","<div style=""color:white; font-size:60px;"">+</div>","null","html-keyboard-response","79","200257","0.0-6.0-0.34","fixation","","","","",""
"2561.5999999999767","Stimuli/Hangul_M1.bmp","190","image-keyboard-response","80","202822","0.0-6.0-1.34","test",",","",".","",""
"null","<div style=""color:white; font-size:60px;"">+</div>","null","html-keyboard-response","81","203832","0.0-6.0-0.35","fixation","","","","",""
"2311.8699999999953","Stimuli/Hangul_F12.bmp","188","image-keyboard-response","82","206148","0.0-6.0-1.35","test",".","",",","",""
"null","<div style=""color:white; font-size:60px;"">+</div>","null","html-keyboard-response","83","207156","0.0-6.0-0.36","fixation","","","","",""
"2232.7649999999558","Stimuli/Hangul_F16.bmp","188","image-keyboard-response","84","209393","0.0-6.0-1.36","test",".","",",","",""
"null","<div style=""color:white; font-size:60px;"">+</div>","null","html-keyboard-response","85","210397","0.0-6.0-0.37","fixation","","","","",""
"2897.3850000000093","Stimuli/Hangul_M11.bmp","188","image-keyboard-response","86","213304","0.0-6.0-1.37","test",",","",",","",""
"null","<div style=""color:white; font-size:60px;"">+</div>","null","html-keyboard-response","87","214314","0.0-6.0-0.38","fixation","","","","",""
"1985.3450000000303","Stimuli/Hangul_M3.bmp","188","image-keyboard-response","88","216311","0.0-6.0-1.38","test",",","",",","",""
"null","<div style=""color:white; font-size:60px;"">+</div>","null","html-keyboard-response","89","217318","0.0-6.0-0.39","fixation","","","","",""
"2160.0650000000023","Stimuli/Hangul_F7.bmp","188","image-keyboard-response","90","219480","0.0-6.0-1.39","test",".","",",","",""
"null","<div style=""color:white; font-size:60px;"">+</div>","null","html-keyboard-response","91","220487","0.0-6.0-0.40","fixation","","","","",""
"2285.5250000000233","Stimuli/Hangul_F17.bmp","190","image-keyboard-response","92","222781","0.0-6.0-1.40","test",".","",".","",""
"null","<div style=""color:white; font-size:60px;"">+</div>","null","html-keyboard-response","93","223786","0.0-6.0-0.41","fixation","","","","",""
"3040.3449999998556","Stimuli/Hangul_F9.bmp","188","image-keyboard-response","94","226831","0.0-6.0-1.41","test",".","",",","",""
"null","<div style=""color:white; font-size:60px;"">+</div>","null","html-keyboard-response","95","227839","0.0-6.0-0.42","fixation","","","","",""
"1976.4099999999744","Stimuli/Hangul_M20.bmp","188","image-keyboard-response","96","229821","0.0-6.0-1.42","test",",","",",","",""
"null","<div style=""color:white; font-size:60px;"">+</div>","null","html-keyboard-response","97","230826","0.0-6.0-0.43","fixation","","","","",""
"2316.039999999921","Stimuli/Hangul_F24.bmp","188","image-keyboard-response","98","233144","0.0-6.0-1.43","test",".","",",","",""
"null","<div style=""color:white; font-size:60px;"">+</div>","null","html-keyboard-response","99","234147","0.0-6.0-0.44","fixation","","","","",""
"2052.619999999937","Stimuli/Hangul_F11.bmp","190","image-keyboard-response","100","236209","0.0-6.0-1.44","test",".","",".","",""
"null","<div style=""color:white; font-size:60px;"">+</div>","null","html-keyboard-response","101","237221","0.0-6.0-0.45","fixation","","","","",""
"3224.1900000001187","Stimuli/Hangul_F18.bmp","190","image-keyboard-response","102","240448","0.0-6.0-1.45","test",".","",".","",""
"null","<div style=""color:white; font-size:60px;"">+</div>","null","html-keyboard-response","103","241456","0.0-6.0-0.46","fixation","","","","",""
"2240.884999999951","Stimuli/Hangul_M22.bmp","188","image-keyboard-response","104","243700","0.0-6.0-1.46","test",",","",",","",""
"null","<div style=""color:white; font-size:60px;"">+</div>","null","html-keyboard-response","105","244720","0.0-6.0-0.47","fixation","","","","",""
"1911.1500000001397","Stimuli/Hangul_F10.bmp","188","image-keyboard-response","106","246633","0.0-6.0-1.47","test",".","",",","",""
"null","<div style=""color:white; font-size:60px;"">+</div>","null","html-keyboard-response","107","247650","0.0-6.0-0.48","fixation","","","","",""
"3439.75","Stimuli/Hangul_M9.bmp","188","image-keyboard-response","108","251093","0.0-6.0-1.48","test",",","",",","",""
"null","<div style=""color:white; font-size:60px;"">+</div>","null","html-keyboard-response","109","252108","0.0-6.0-0.49","fixation","","","","",""
"2312.5449999999837","Stimuli/Hangul_F23.bmp","190","image-keyboard-response","110","254425","0.0-6.0-1.49","test",".","",".","",""
"4219.090000000026","<p style=""color:white;"">Good job, block 1 complete! Please take a moment to rest.</p> <p style=""color:white;"">When you are ready to continue with block 2 of 4, press the space bar.</p> ","32","html-keyboard-response","111","258652","0.0-7.0","","","","","",""
"null","<div style=""color:white; font-size:60px;"">+</div>","null","html-keyboard-response","112","261670","0.0-8.0-0.0","fixation","","","","",""
"3675.4550000000745","Stimuli/Hangul_F28.bmp","190","image-keyboard-response","113","265349","0.0-8.0-1.0","test",".","",".","",""
"null","<div style=""color:white; font-size:60px;"">+</div>","null","html-keyboard-response","114","266367","0.0-8.0-0.1","fixation","","","","",""
"2586.060000000114","Stimuli/Hangul_M41.bmp","190","image-keyboard-response","115","268961","0.0-8.0-1.1","test",",","",".","",""
"null","<div style=""color:white; font-size:60px;"">+</div>","null","html-keyboard-response","116","269967","0.0-8.0-0.2","fixation","","","","",""
"3251.9649999999674","Stimuli/Hangul_F27.bmp","188","image-keyboard-response","117","273223","0.0-8.0-1.2","test",".","",",","",""
"null","<div style=""color:white; font-size:60px;"">+</div>","null","html-keyboard-response","118","274236","0.0-8.0-0.3","fixation","","","","",""
"2572.634999999951","Stimuli/Hangul_M36.bmp","188","image-keyboard-response","119","276814","0.0-8.0-1.3","test",",","",",","",""
"null","<div style=""color:white; font-size:60px;"">+</div>","null","html-keyboard-response","120","277827","0.0-8.0-0.4","fixation","","","","",""
"2807.804999999935","Stimuli/Hangul_M39.bmp","188","image-keyboard-response","121","280645","0.0-8.0-1.4","test",",","",",","",""
"null","<div style=""color:white; font-size:60px;"">+</div>","null","html-keyboard-response","122","281659","0.0-8.0-0.5","fixation","","","","",""
"2709.1900000000605","Stimuli/Hangul_M25.bmp","188","image-keyboard-response","123","284374","0.0-8.0-1.5","test",",","",",","",""
"null","<div style=""color:white; font-size:60px;"">+</div>","null","html-keyboard-response","124","285392","0.0-8.0-0.6","fixation","","","","",""
"2824.105000000156","Stimuli/Hangul_M34.bmp","188","image-keyboard-response","125","288227","0.0-8.0-1.6","test",",","",",","",""
"null","<div style=""color:white; font-size:60px;"">+</div>","null","html-keyboard-response","126","289232","0.0-8.0-0.7","fixation","","","","",""
"2418.4899999999907","Stimuli/Hangul_F36.bmp","188","image-keyboard-response","127","291654","0.0-8.0-1.7","test",".","",",","",""
"null","<div style=""color:white; font-size:60px;"">+</div>","null","html-keyboard-response","128","292673","0.0-8.0-0.8","fixation","","","","",""
"2482.5599999999395","Stimuli/Hangul_M37.bmp","190","image-keyboard-response","129","295166","0.0-8.0-1.8","test",",","",".","",""
"null","<div style=""color:white; font-size:60px;"">+</div>","null","html-keyboard-response","130","296185","0.0-8.0-0.9","fixation","","","","",""
"3621.0550000001094","Stimuli/Hangul_M49.bmp","188","image-keyboard-response","131","299806","0.0-8.0-1.9","test",",","",",","",""
"null","<div style=""color:white; font-size:60px;"">+</div>","null","html-keyboard-response","132","300816","0.0-8.0-0.10","fixation","","","","",""
"2992.9299999998766","Stimuli/Hangul_F40.bmp","188","image-keyboard-response","133","303815","0.0-8.0-1.10","test",".","",",","",""
"null","<div style=""color:white; font-size:60px;"">+</div>","null","html-keyboard-response","134","304823","0.0-8.0-0.11","fixation","","","","",""
"2909.6599999997998","Stimuli/Hangul_F41.bmp","188","image-keyboard-response","135","307736","0.0-8.0-1.11","test",".","",",","",""
"null","<div style=""color:white; font-size:60px;"">+</div>","null","html-keyboard-response","136","308741","0.0-8.0-0.12","fixation","","","","",""
"3264.1250000001746","Stimuli/Hangul_M29.bmp","188","image-keyboard-response","137","312008","0.0-8.0-1.12","test",",","",",","",""
"null","<div style=""color:white; font-size:60px;"">+</div>","null","html-keyboard-response","138","313023","0.0-8.0-0.13","fixation","","","","",""
"2630.920000000042","Stimuli/Hangul_F43.bmp","188","image-keyboard-response","139","315658","0.0-8.0-1.13","test",".","",",","",""
"null","<div style=""color:white; font-size:60px;"">+</div>","null","html-keyboard-response","140","316666","0.0-8.0-0.14","fixation","","","","",""
"2328.440000000235","Stimuli/Hangul_M30.bmp","188","image-keyboard-response","141","318997","0.0-8.0-1.14","test",",","",",","",""
"null","<div style=""color:white; font-size:60px;"">+</div>","null","html-keyboard-response","142","320002","0.0-8.0-0.15","fixation","","","","",""
"3621.4699999995646","Stimuli/Hangul_F33.bmp","188","image-keyboard-response","143","323626","0.0-8.0-1.15","test",".","",",","",""
"null","<div style=""color:white; font-size:60px;"">+</div>","null","html-keyboard-response","144","324633","0.0-8.0-0.16","fixation","","","","",""
"4232.904999999795","Stimuli/Hangul_F31.bmp","190","image-keyboard-response","145","328869","0.0-8.0-1.16","test",".","",".","",""
"null","<div style=""color:white; font-size:60px;"">+</div>","null","html-keyboard-response","146","329873","0.0-8.0-0.17","fixation","","","","",""
"2032.4600000003702","Stimuli/Hangul_F39.bmp","188","image-keyboard-response","147","331913","0.0-8.0-1.17","test",".","",",","",""
"null","<div style=""color:white; font-size:60px;"">+</div>","null","html-keyboard-response","148","332928","0.0-8.0-0.18","fixation","","","","",""
"2979.8550000000396","Stimuli/Hangul_M46.bmp","188","image-keyboard-response","149","335914","0.0-8.0-1.18","test",",","",",","",""
"null","<div style=""color:white; font-size:60px;"">+</div>","null","html-keyboard-response","150","336927","0.0-8.0-0.19","fixation","","","","",""
"2609.25499999983","Stimuli/Hangul_M44.bmp","190","image-keyboard-response","151","339544","0.0-8.0-1.19","test",",","",".","",""
"null","<div style=""color:white; font-size:60px;"">+</div>","null","html-keyboard-response","152","340552","0.0-8.0-0.20","fixation","","","","",""
"3124.5150000004214","Stimuli/Hangul_M33.bmp","188","image-keyboard-response","153","343679","0.0-8.0-1.20","test",",","",",","",""
"null","<div style=""color:white; font-size:60px;"">+</div>","null","html-keyboard-response","154","344685","0.0-8.0-0.21","fixation","","","","",""
"2042.6000000002678","Stimuli/Hangul_F34.bmp","188","image-keyboard-response","155","346731","0.0-8.0-1.21","test",".","",",","",""
"null","<div style=""color:white; font-size:60px;"">+</div>","null","html-keyboard-response","156","347750","0.0-8.0-0.22","fixation","","","","",""
"3286.384999999893","Stimuli/Hangul_F42.bmp","190","image-keyboard-response","157","351044","0.0-8.0-1.22","test",".","",".","",""
"null","<div style=""color:white; font-size:60px;"">+</div>","null","html-keyboard-response","158","352051","0.0-8.0-0.23","fixation","","","","",""
"2884.615000000398","Stimuli/Hangul_F48.bmp","190","image-keyboard-response","159","354946","0.0-8.0-1.23","test",".","",".","",""
"null","<div style=""color:white; font-size:60px;"">+</div>","null","html-keyboard-response","160","355978","0.0-8.0-0.24","fixation","","","","",""
"2637.6850000001723","Stimuli/Hangul_F46.bmp","188","image-keyboard-response","161","358621","0.0-8.0-1.24","test",".","",",","",""
"null","<div style=""color:white; font-size:60px;"">+</div>","null","html-keyboard-response","162","359629","0.0-8.0-0.25","fixation","","","","",""
"2737.1899999998277","Stimuli/Hangul_M27.bmp","188","image-keyboard-response","163","362382","0.0-8.0-1.25","test",",","",",","",""
"null","<div style=""color:white; font-size:60px;"">+</div>","null","html-keyboard-response","164","363399","0.0-8.0-0.26","fixation","","","","",""
"3214.1599999999744","Stimuli/Hangul_M28.bmp","188","image-keyboard-response","165","366622","0.0-8.0-1.26","test",",","",",","",""
"null","<div style=""color:white; font-size:60px;"">+</div>","null","html-keyboard-response","166","367641","0.0-8.0-0.27","fixation","","","","",""
"2123.175000000163","Stimuli/Hangul_M26.bmp","188","image-keyboard-response","167","369773","0.0-8.0-1.27","test",",","",",","",""
"null","<div style=""color:white; font-size:60px;"">+</div>","null","html-keyboard-response","168","370778","0.0-8.0-0.28","fixation","","","","",""
"2830.150000000198","Stimuli/Hangul_F35.bmp","188","image-keyboard-response","169","373614","0.0-8.0-1.28","test",".","",",","",""
"null","<div style=""color:white; font-size:60px;"">+</div>","null","html-keyboard-response","170","374626","0.0-8.0-0.29","fixation","","","","",""
"3252.5599999998813","Stimuli/Hangul_M38.bmp","190","image-keyboard-response","171","377882","0.0-8.0-1.29","test",",","",".","",""
"null","<div style=""color:white; font-size:60px;"">+</div>","null","html-keyboard-response","172","378899","0.0-8.0-0.30","fixation","","","","",""
"3851.254999999597","Stimuli/Hangul_F29.bmp","190","image-keyboard-response","173","382753","0.0-8.0-1.30","test",".","",".","",""
"null","<div style=""color:white; font-size:60px;"">+</div>","null","html-keyboard-response","174","383759","0.0-8.0-0.31","fixation","","","","",""
"2801.9950000002864","Stimuli/Hangul_F32.bmp","188","image-keyboard-response","175","386567","0.0-8.0-1.31","test",".","",",","",""
"null","<div style=""color:white; font-size:60px;"">+</div>","null","html-keyboard-response","176","387584","0.0-8.0-0.32","fixation","","","","",""
"4419.369999999646","Stimuli/Hangul_M31.bmp","190","image-keyboard-response","177","392013","0.0-8.0-1.32","test",",","",".","",""
"null","<div style=""color:white; font-size:60px;"">+</div>","null","html-keyboard-response","178","393020","0.0-8.0-0.33","fixation","","","","",""
"2347.600000000035","Stimuli/Hangul_F45.bmp","188","image-keyboard-response","179","395370","0.0-8.0-1.33","test",".","",",","",""
"null","<div style=""color:white; font-size:60px;"">+</div>","null","html-keyboard-response","180","396375","0.0-8.0-0.34","fixation","","","","",""
"3327.1049999998068","Stimuli/Hangul_M40.bmp","188","image-keyboard-response","181","399706","0.0-8.0-1.34","test",",","",",","",""
"null","<div style=""color:white; font-size:60px;"">+</div>","null","html-keyboard-response","182","400711","0.0-8.0-0.35","fixation","","","","",""
"11706.795000000042","Stimuli/Hangul_M42.bmp","190","image-keyboard-response","183","412421","0.0-8.0-1.35","test",",","",".","",""
"null","<div style=""color:white; font-size:60px;"">+</div>","null","html-keyboard-response","184","413438","0.0-8.0-0.36","fixation","","","","",""
"4694.84999999986","Stimuli/Hangul_M43.bmp","190","image-keyboard-response","185","418143","0.0-8.0-1.36","test",",","",".","",""
"null","<div style=""color:white; font-size:60px;"">+</div>","null","html-keyboard-response","186","419160","0.0-8.0-0.37","fixation","","","","",""
"4909.944999999891","Stimuli/Hangul_F37.bmp","188","image-keyboard-response","187","424067","0.0-8.0-1.37","test",".","",",","",""
"null","<div style=""color:white; font-size:60px;"">+</div>","null","html-keyboard-response","188","425071","0.0-8.0-0.38","fixation","","","","",""
"3424.440000000235","Stimuli/Hangul_F49.bmp","190","image-keyboard-response","189","428502","0.0-8.0-1.38","test",".","",".","",""
"null","<div style=""color:white; font-size:60px;"">+</div>","null","html-keyboard-response","190","429516","0.0-8.0-0.39","fixation","","","","",""
"3406.9199999998673","Stimuli/Hangul_F25.bmp","188","image-keyboard-response","191","432931","0.0-8.0-1.39","test",".","",",","",""
"null","<div style=""color:white; font-size:60px;"">+</div>","null","html-keyboard-response","192","433947","0.0-8.0-0.40","fixation","","","","",""
"2717.8349999999045","Stimuli/Hangul_M32.bmp","188","image-keyboard-response","193","436673","0.0-8.0-1.40","test",",","",",","",""
"null","<div style=""color:white; font-size:60px;"">+</div>","null","html-keyboard-response","194","437682","0.0-8.0-0.41","fixation","","","","",""
"2449.230000000156","Stimuli/Hangul_F26.bmp","188","image-keyboard-response","195","440134","0.0-8.0-1.41","test",".","",",","",""
"null","<div style=""color:white; font-size:60px;"">+</div>","null","html-keyboard-response","196","441153","0.0-8.0-0.42","fixation","","","","",""
"3209.1350000000093","Stimuli/Hangul_M48.bmp","188","image-keyboard-response","197","444366","0.0-8.0-1.42","test",",","",",","",""
"null","<div style=""color:white; font-size:60px;"">+</div>","null","html-keyboard-response","198","445370","0.0-8.0-0.43","fixation","","","","",""
"2177.0050000000047","Stimuli/Hangul_F44.bmp","188","image-keyboard-response","199","447560","0.0-8.0-1.43","test",".","",",","",""
"null","<div style=""color:white; font-size:60px;"">+</div>","null","html-keyboard-response","200","448570","0.0-8.0-0.44","fixation","","","","",""
"3244.990000000107","Stimuli/Hangul_M45.bmp","188","image-keyboard-response","201","451817","0.0-8.0-1.44","test",",","",",","",""
"null","<div style=""color:white; font-size:60px;"">+</div>","null","html-keyboard-response","202","452823","0.0-8.0-0.45","fixation","","","","",""
"3102.769999999902","Stimuli/Hangul_M47.bmp","190","image-keyboard-response","203","455933","0.0-8.0-1.45","test",",","",".","",""
"null","<div style=""color:white; font-size:60px;"">+</div>","null","html-keyboard-response","204","456944","0.0-8.0-0.46","fixation","","","","",""
"3166.0050000000047","Stimuli/Hangul_F47.bmp","188","image-keyboard-response","205","460114","0.0-8.0-1.46","test",".","",",","",""
"null","<div style=""color:white; font-size:60px;"">+</div>","null","html-keyboard-response","206","461121","0.0-8.0-0.47","fixation","","","","",""
"2670.0150000001304","Stimuli/Hangul_F38.bmp","188","image-keyboard-response","207","463801","0.0-8.0-1.47","test",".","",",","",""
"null","<div style=""color:white; font-size:60px;"">+</div>","null","html-keyboard-response","208","464807","0.0-8.0-0.48","fixation","","","","",""
"2450.8050000004005","Stimuli/Hangul_M35.bmp","188","image-keyboard-response","209","467260","0.0-8.0-1.48","test",",","",",","",""
"null","<div style=""color:white; font-size:60px;"">+</div>","null","html-keyboard-response","210","468267","0.0-8.0-0.49","fixation","","","","",""
"2790.6849999999395","Stimuli/Hangul_F30.bmp","188","image-keyboard-response","211","471069","0.0-8.0-1.49","test",".","",",","",""
"1582.074999999837","<p style=""color:white;"">Half way there! Please take a moment to rest.</p> <p style=""color:white;"">When you are ready to continue with block 3 of 4, press the space bar.</p> ","32","html-keyboard-response","212","472654","0.0-9.0","","","","","",""
"null","<div style=""color:white; font-size:60px;"">+</div>","null","html-keyboard-response","213","475678","0.0-10.0-0.0","fixation","","","","",""
"2579.9949999999953","Stimuli/Hangul_M58.bmp","188","image-keyboard-response","214","478265","0.0-10.0-1.0","test",",","",",","",""
"null","<div style=""color:white; font-size:60px;"">+</div>","null","html-keyboard-response","215","479275","0.0-10.0-0.1","fixation","","","","",""
"3835.8700000003446","Stimuli/Hangul_M74.bmp","188","image-keyboard-response","216","483120","0.0-10.0-1.1","test",",","",",","",""
"null","<div style=""color:white; font-size:60px;"">+</div>","null","html-keyboard-response","217","484132","0.0-10.0-0.2","fixation","","","","",""
"2268.4399999998277","Stimuli/Hangul_F70.bmp","190","image-keyboard-response","218","486403","0.0-10.0-1.2","test",".","",".","",""
"null","<div style=""color:white; font-size:60px;"">+</div>","null","html-keyboard-response","219","487416","0.0-10.0-0.3","fixation","","","","",""
"3654.4600000001956","Stimuli/Hangul_F68.bmp","188","image-keyboard-response","220","491075","0.0-10.0-1.3","test",".","",",","",""
"null","<div style=""color:white; font-size:60px;"">+</div>","null","html-keyboard-response","221","492094","0.0-10.0-0.4","fixation","","","","",""
"3187.8849999997765","Stimuli/Hangul_F65.bmp","188","image-keyboard-response","222","495287","0.0-10.0-1.4","test",".","",",","",""
"null","<div style=""color:white; font-size:60px;"">+</div>","null","html-keyboard-response","223","496307","0.0-10.0-0.5","fixation","","","","",""
"2378.3400000002002","Stimuli/Hangul_F62.bmp","188","image-keyboard-response","224","498689","0.0-10.0-1.5","test",".","",",","",""
"null","<div style=""color:white; font-size:60px;"">+</div>","null","html-keyboard-response","225","499700","0.0-10.0-0.6","fixation","","","","",""
"9288.21000000008","Stimuli/Hangul_F59.bmp","190","image-keyboard-response","226","508993","0.0-10.0-1.6","test",".","",".","",""
"null","<div style=""color:white; font-size:60px;"">+</div>","null","html-keyboard-response","227","510002","0.0-10.0-0.7","fixation","","","","",""
"4144.285000000382","Stimuli/Hangul_M60.bmp","190","image-keyboard-response","228","514153","0.0-10.0-1.7","test",",","",".","",""
"null","<div style=""color:white; font-size:60px;"">+</div>","null","html-keyboard-response","229","515158","0.0-10.0-0.8","fixation","","","","",""
"2519.644999999902","Stimuli/Hangul_M59.bmp","190","image-keyboard-response","230","517681","0.0-10.0-1.8","test",",","",".","",""
"null","<div style=""color:white; font-size:60px;"">+</div>","null","html-keyboard-response","231","518701","0.0-10.0-0.9","fixation","","","","",""
"4383.475000000093","Stimuli/Hangul_M56.bmp","190","image-keyboard-response","232","523090","0.0-10.0-1.9","test",",","",".","",""
"null","<div style=""color:white; font-size:60px;"">+</div>","null","html-keyboard-response","233","524108","0.0-10.0-0.10","fixation","","","","",""
"4611.0650000000605","Stimuli/Hangul_M50.bmp","188","image-keyboard-response","234","528727","0.0-10.0-1.10","test",",","",",","",""
"null","<div style=""color:white; font-size:60px;"">+</div>","null","html-keyboard-response","235","529732","0.0-10.0-0.11","fixation","","","","",""
"4279.994999999879","Stimuli/Hangul_F50.bmp","188","image-keyboard-response","236","534024","0.0-10.0-1.11","test",".","",",","",""
"null","<div style=""color:white; font-size:60px;"">+</div>","null","html-keyboard-response","237","535037","0.0-10.0-0.12","fixation","","","","",""
"4401.1450000002515","Stimuli/Hangul_F67.bmp","188","image-keyboard-response","238","539441","0.0-10.0-1.12","test",".","",",","",""
"null","<div style=""color:white; font-size:60px;"">+</div>","null","html-keyboard-response","239","540462","0.0-10.0-0.13","fixation","","","","",""
"2562.210000000079","Stimuli/Hangul_M64.bmp","188","image-keyboard-response","240","543024","0.0-10.0-1.13","test",",","",",","",""
"null","<div style=""color:white; font-size:60px;"">+</div>","null","html-keyboard-response","241","544028","0.0-10.0-0.14","fixation","","","","",""
"3166.7550000002375","Stimuli/Hangul_M52.bmp","190","image-keyboard-response","242","547198","0.0-10.0-1.14","test",",","",".","",""
"null","<div style=""color:white; font-size:60px;"">+</div>","null","html-keyboard-response","243","548208","0.0-10.0-0.15","fixation","","","","",""
"1992.680000000284","Stimuli/Hangul_M69.bmp","188","image-keyboard-response","244","550208","0.0-10.0-1.15","test",",","",",","",""
"null","<div style=""color:white; font-size:60px;"">+</div>","null","html-keyboard-response","245","551217","0.0-10.0-0.16","fixation","","","","",""
"2184.530000000028","Stimuli/Hangul_M73.bmp","188","image-keyboard-response","246","553408","0.0-10.0-1.16","test",",","",",","",""
"null","<div style=""color:white; font-size:60px;"">+</div>","null","html-keyboard-response","247","554414","0.0-10.0-0.17","fixation","","","","",""
"2331.795000000042","Stimuli/Hangul_F55.bmp","188","image-keyboard-response","248","556749","0.0-10.0-1.17","test",".","",",","",""
"null","<div style=""color:white; font-size:60px;"">+</div>","null","html-keyboard-response","249","557769","0.0-10.0-0.18","fixation","","","","",""
"2956.6599999997998","Stimuli/Hangul_M72.bmp","190","image-keyboard-response","250","560728","0.0-10.0-1.18","test",",","",".","",""
"null","<div style=""color:white; font-size:60px;"">+</div>","null","html-keyboard-response","251","561747","0.0-10.0-0.19","fixation","","","","",""
"3247.8500000002095","Stimuli/Hangul_F57.bmp","190","image-keyboard-response","252","565009","0.0-10.0-1.19","test",".","",".","",""
"null","<div style=""color:white; font-size:60px;"">+</div>","null","html-keyboard-response","253","566014","0.0-10.0-0.20","fixation","","","","",""
"3093.094999999623","Stimuli/Hangul_M66.bmp","190","image-keyboard-response","254","569111","0.0-10.0-1.20","test",",","",".","",""
"null","<div style=""color:white; font-size:60px;"">+</div>","null","html-keyboard-response","255","570123","0.0-10.0-0.21","fixation","","","","",""
"2405.4749999999767","Stimuli/Hangul_F58.bmp","190","image-keyboard-response","256","572534","0.0-10.0-1.21","test",".","",".","",""
"null","<div style=""color:white; font-size:60px;"">+</div>","null","html-keyboard-response","257","573547","0.0-10.0-0.22","fixation","","","","",""
"1926.6850000004051","Stimuli/Hangul_M63.bmp","188","image-keyboard-response","258","575483","0.0-10.0-1.22","test",",","",",","",""
"null","<div style=""color:white; font-size:60px;"">+</div>","null","html-keyboard-response","259","576497","0.0-10.0-0.23","fixation","","","","",""
"2128.649999999674","Stimuli/Hangul_M51.bmp","188","image-keyboard-response","260","578628","0.0-10.0-1.23","test",",","",",","",""
"null","<div style=""color:white; font-size:60px;"">+</div>","null","html-keyboard-response","261","579641","0.0-10.0-0.24","fixation","","","","",""
"2299.8200000001816","Stimuli/Hangul_F66.bmp","188","image-keyboard-response","262","581944","0.0-10.0-1.24","test",".","",",","",""
"null","<div style=""color:white; font-size:60px;"">+</div>","null","html-keyboard-response","263","582950","0.0-10.0-0.25","fixation","","","","",""
"2474.394999999786","Stimuli/Hangul_M71.bmp","190","image-keyboard-response","264","585427","0.0-10.0-1.25","test",",","",".","",""
"null","<div style=""color:white; font-size:60px;"">+</div>","null","html-keyboard-response","265","586435","0.0-10.0-0.26","fixation","","","","",""
"2655.5350000002654","Stimuli/Hangul_M57.bmp","188","image-keyboard-response","266","589093","0.0-10.0-1.26","test",",","",",","",""
"null","<div style=""color:white; font-size:60px;"">+</div>","null","html-keyboard-response","267","590111","0.0-10.0-0.27","fixation","","","","",""
"2492.1049999997485","Stimuli/Hangul_M68.bmp","190","image-keyboard-response","268","592611","0.0-10.0-1.27","test",",","",".","",""
"null","<div style=""color:white; font-size:60px;"">+</div>","null","html-keyboard-response","269","593622","0.0-10.0-0.28","fixation","","","","",""
"2199.755000000121","Stimuli/Hangul_F73.bmp","190","image-keyboard-response","270","595832","0.0-10.0-1.28","test",".","",".","",""
"null","<div style=""color:white; font-size:60px;"">+</div>","null","html-keyboard-response","271","596840","0.0-10.0-0.29","fixation","","","","",""
"2615.5650000000605","Stimuli/Hangul_F71.bmp","188","image-keyboard-response","272","599460","0.0-10.0-1.29","test",".","",",","",""
"null","<div style=""color:white; font-size:60px;"">+</div>","null","html-keyboard-response","273","600467","0.0-10.0-0.30","fixation","","","","",""
"3600.95000000007","Stimuli/Hangul_M70.bmp","190","image-keyboard-response","274","604075","0.0-10.0-1.30","test",",","",".","",""
"null","<div style=""color:white; font-size:60px;"">+</div>","null","html-keyboard-response","275","605086","0.0-10.0-0.31","fixation","","","","",""
"2985.4150000001537","Stimuli/Hangul_F53.bmp","190","image-keyboard-response","276","608075","0.0-10.0-1.31","test",".","",".","",""
"null","<div style=""color:white; font-size:60px;"">+</div>","null","html-keyboard-response","277","609086","0.0-10.0-0.32","fixation","","","","",""
"2285.849999999744","Stimuli/Hangul_F51.bmp","190","image-keyboard-response","278","611378","0.0-10.0-1.32","test",".","",".","",""
"null","<div style=""color:white; font-size:60px;"">+</div>","null","html-keyboard-response","279","612384","0.0-10.0-0.33","fixation","","","","",""
"3856.710000000079","Stimuli/Hangul_F61.bmp","190","image-keyboard-response","280","616244","0.0-10.0-1.33","test",".","",".","",""
"null","<div style=""color:white; font-size:60px;"">+</div>","null","html-keyboard-response","281","617248","0.0-10.0-0.34","fixation","","","","",""
"4661.680000000168","Stimuli/Hangul_M62.bmp","188","image-keyboard-response","282","621913","0.0-10.0-1.34","test",",","",",","",""
"null","<div style=""color:white; font-size:60px;"">+</div>","null","html-keyboard-response","283","622920","0.0-10.0-0.35","fixation","","","","",""
"2260.4499999997206","Stimuli/Hangul_F72.bmp","190","image-keyboard-response","284","625191","0.0-10.0-1.35","test",".","",".","",""
"null","<div style=""color:white; font-size:60px;"">+</div>","null","html-keyboard-response","285","626201","0.0-10.0-0.36","fixation","","","","",""
"3404.960000000312","Stimuli/Hangul_M65.bmp","190","image-keyboard-response","286","629610","0.0-10.0-1.36","test",",","",".","",""
"null","<div style=""color:white; font-size:60px;"">+</div>","null","html-keyboard-response","287","630622","0.0-10.0-0.37","fixation","","","","",""
"2039.7350000003353","Stimuli/Hangul_M54.bmp","188","image-keyboard-response","288","632664","0.0-10.0-1.37","test",",","",",","",""
"null","<div style=""color:white; font-size:60px;"">+</div>","null","html-keyboard-response","289","633671","0.0-10.0-0.38","fixation","","","","",""
"2989.855000000214","Stimuli/Hangul_M55.bmp","190","image-keyboard-response","290","636667","0.0-10.0-1.38","test",",","",".","",""
"null","<div style=""color:white; font-size:60px;"">+</div>","null","html-keyboard-response","291","637672","0.0-10.0-0.39","fixation","","","","",""
"3349.6350000001257","Stimuli/Hangul_F56.bmp","188","image-keyboard-response","292","641032","0.0-10.0-1.39","test",".","",",","",""
"null","<div style=""color:white; font-size:60px;"">+</div>","null","html-keyboard-response","293","642037","0.0-10.0-0.40","fixation","","","","",""
"2237.7900000001537","Stimuli/Hangul_M67.bmp","190","image-keyboard-response","294","644278","0.0-10.0-1.40","test",",","",".","",""
"null","<div style=""color:white; font-size:60px;"">+</div>","null","html-keyboard-response","295","645293","0.0-10.0-0.41","fixation","","","","",""
"1957.559999999823","Stimuli/Hangul_F64.bmp","190","image-keyboard-response","296","647261","0.0-10.0-1.41","test",".","",".","",""
"null","<div style=""color:white; font-size:60px;"">+</div>","null","html-keyboard-response","297","648275","0.0-10.0-0.42","fixation","","","","",""
"2138.289999999921","Stimuli/Hangul_M53.bmp","188","image-keyboard-response","298","650416","0.0-10.0-1.42","test",",","",",","",""
"null","<div style=""color:white; font-size:60px;"">+</div>","null","html-keyboard-response","299","651433","0.0-10.0-0.43","fixation","","","","",""
"1029.5550000000512","Stimuli/Hangul_F69.bmp","190","image-keyboard-response","300","652468","0.0-10.0-1.43","test",".","",".","",""
"null","<div style=""color:white; font-size:60px;"">+</div>","null","html-keyboard-response","301","653484","0.0-10.0-0.44","fixation","","","","",""
"2115.564999999595","Stimuli/Hangul_F60.bmp","190","image-keyboard-response","302","655603","0.0-10.0-1.44","test",".","",".","",""
"null","<div style=""color:white; font-size:60px;"">+</div>","null","html-keyboard-response","303","656616","0.0-10.0-0.45","fixation","","","","",""
"2147.8600000001024","Stimuli/Hangul_M61.bmp","188","image-keyboard-response","304","658766","0.0-10.0-1.45","test",",","",",","",""
"null","<div style=""color:white; font-size:60px;"">+</div>","null","html-keyboard-response","305","659770","0.0-10.0-0.46","fixation","","","","",""
"3800.5200000002515","Stimuli/Hangul_F74.bmp","190","image-keyboard-response","306","663572","0.0-10.0-1.46","test",".","",".","",""
"null","<div style=""color:white; font-size:60px;"">+</div>","null","html-keyboard-response","307","664580","0.0-10.0-0.47","fixation","","","","",""
"3246.814999999944","Stimuli/Hangul_F63.bmp","190","image-keyboard-response","308","667830","0.0-10.0-1.47","test",".","",".","",""
"null","<div style=""color:white; font-size:60px;"">+</div>","null","html-keyboard-response","309","668839","0.0-10.0-0.48","fixation","","","","",""
"3129.9099999996834","Stimuli/Hangul_F52.bmp","190","image-keyboard-response","310","671976","0.0-10.0-1.48","test",".","",".","",""
"null","<div style=""color:white; font-size:60px;"">+</div>","null","html-keyboard-response","311","672993","0.0-10.0-0.49","fixation","","","","",""
"2639.2050000004238","Stimuli/Hangul_F54.bmp","190","image-keyboard-response","312","675636","0.0-10.0-1.49","test",".","",".","",""
"1278.684999999823","<p style=""color:white;"">One more block to go! Please take a moment to rest.</p> <p style=""color:white;"">When you are ready to continue with block 4 of 4, press the space bar.</p> ","32","html-keyboard-response","313","676927","0.0-11.0","","","","","",""
"null","<div style=""color:white; font-size:60px;"">+</div>","null","html-keyboard-response","314","679963","0.0-12.0-0.0","fixation","","","","",""
"2804.750000000233","Stimuli/Hangul_F88.bmp","188","image-keyboard-response","315","682776","0.0-12.0-1.0","test",".","",",","",""
"null","<div style=""color:white; font-size:60px;"">+</div>","null","html-keyboard-response","316","683796","0.0-12.0-0.1","fixation","","","","",""
"3060.6450000000186","Stimuli/Hangul_M86.bmp","188","image-keyboard-response","317","686859","0.0-12.0-1.1","test",",","",",","",""
"null","<div style=""color:white; font-size:60px;"">+</div>","null","html-keyboard-response","318","687871","0.0-12.0-0.2","fixation","","","","",""
"2279.4499999999534","Stimuli/Hangul_F92.bmp","190","image-keyboard-response","319","690161","0.0-12.0-1.2","test",".","",".","",""
"null","<div style=""color:white; font-size:60px;"">+</div>","null","html-keyboard-response","320","691181","0.0-12.0-0.3","fixation","","","","",""
"2028.7850000000326","Stimuli/Hangul_F94.bmp","188","image-keyboard-response","321","693214","0.0-12.0-1.3","test",".","",",","",""
"null","<div style=""color:white; font-size:60px;"">+</div>","null","html-keyboard-response","322","694226","0.0-12.0-0.4","fixation","","","","",""
"2297.234999999986","Stimuli/Hangul_F97.bmp","188","image-keyboard-response","323","696527","0.0-12.0-1.4","test",".","",",","",""
"null","<div style=""color:white; font-size:60px;"">+</div>","null","html-keyboard-response","324","697540","0.0-12.0-0.5","fixation","","","","",""
"2212.8749999996508","Stimuli/Hangul_F96.bmp","188","image-keyboard-response","325","699758","0.0-12.0-1.5","test",".","",",","",""
"null","<div style=""color:white; font-size:60px;"">+</div>","null","html-keyboard-response","326","700764","0.0-12.0-0.6","fixation","","","","",""
"2149.8350000001956","Stimuli/Hangul_F87.bmp","188","image-keyboard-response","327","702924","0.0-12.0-1.6","test",".","",",","",""
"null","<div style=""color:white; font-size:60px;"">+</div>","null","html-keyboard-response","328","703943","0.0-12.0-0.7","fixation","","","","",""
"3190.3649999998743","Stimuli/Hangul_F76.bmp","188","image-keyboard-response","329","707139","0.0-12.0-1.7","test",".","",",","",""
"null","<div style=""color:white; font-size:60px;"">+</div>","null","html-keyboard-response","330","708146","0.0-12.0-0.8","fixation","","","","",""
"3133.7099999999627","Stimuli/Hangul_M85.bmp","188","image-keyboard-response","331","711287","0.0-12.0-1.8","test",",","",",","",""
"null","<div style=""color:white; font-size:60px;"">+</div>","null","html-keyboard-response","332","712305","0.0-12.0-0.9","fixation","","","","",""
"2261.410000000149","Stimuli/Hangul_M84.bmp","190","image-keyboard-response","333","714577","0.0-12.0-1.9","test",",","",".","",""
"null","<div style=""color:white; font-size:60px;"">+</div>","null","html-keyboard-response","334","715585","0.0-12.0-0.10","fixation","","","","",""
"3784.0049999998882","Stimuli/Hangul_F93.bmp","188","image-keyboard-response","335","719375","0.0-12.0-1.10","test",".","",",","",""
"null","<div style=""color:white; font-size:60px;"">+</div>","null","html-keyboard-response","336","720389","0.0-12.0-0.11","fixation","","","","",""
"2611.235000000219","Stimuli/Hangul_M95.bmp","188","image-keyboard-response","337","723006","0.0-12.0-1.11","test",",","",",","",""
"null","<div style=""color:white; font-size:60px;"">+</div>","null","html-keyboard-response","338","724012","0.0-12.0-0.12","fixation","","","","",""
"2295.0499999996973","Stimuli/Hangul_M78.bmp","190","image-keyboard-response","339","726310","0.0-12.0-1.12","test",",","",".","",""
"null","<div style=""color:white; font-size:60px;"">+</div>","null","html-keyboard-response","340","727315","0.0-12.0-0.13","fixation","","","","",""
"1922.2000000000698","Stimuli/Hangul_F82.bmp","190","image-keyboard-response","341","729244","0.0-12.0-1.13","test",".","",".","",""
"null","<div style=""color:white; font-size:60px;"">+</div>","null","html-keyboard-response","342","730256","0.0-12.0-0.14","fixation","","","","",""
"3950.4999999998836","Stimuli/Hangul_F79.bmp","190","image-keyboard-response","343","734209","0.0-12.0-1.14","test",".","",".","",""
"null","<div style=""color:white; font-size:60px;"">+</div>","null","html-keyboard-response","344","735216","0.0-12.0-0.15","fixation","","","","",""
"2249.6900000000605","Stimuli/Hangul_M89.bmp","190","image-keyboard-response","345","737471","0.0-12.0-1.15","test",",","",".","",""
"null","<div style=""color:white; font-size:60px;"">+</div>","null","html-keyboard-response","346","738482","0.0-12.0-0.16","fixation","","","","",""
"1946.3199999999488","Stimuli/Hangul_M93.bmp","190","image-keyboard-response","347","740432","0.0-12.0-1.16","test",",","",".","",""
"null","<div style=""color:white; font-size:60px;"">+</div>","null","html-keyboard-response","348","741437","0.0-12.0-0.17","fixation","","","","",""
"3157.335000000312","Stimuli/Hangul_M87.bmp","188","image-keyboard-response","349","744603","0.0-12.0-1.17","test",",","",",","",""
"null","<div style=""color:white; font-size:60px;"">+</div>","null","html-keyboard-response","350","745611","0.0-12.0-0.18","fixation","","","","",""
"2105.359999999986","Stimuli/Hangul_M80.bmp","188","image-keyboard-response","351","747726","0.0-12.0-1.18","test",",","",",","",""
"null","<div style=""color:white; font-size:60px;"">+</div>","null","html-keyboard-response","352","748738","0.0-12.0-0.19","fixation","","","","",""
"2753.145000000135","Stimuli/Hangul_F91.bmp","188","image-keyboard-response","353","751493","0.0-12.0-1.19","test",".","",",","",""
"null","<div style=""color:white; font-size:60px;"">+</div>","null","html-keyboard-response","354","752504","0.0-12.0-0.20","fixation","","","","",""
"2208.509999999893","Stimuli/Hangul_M82.bmp","188","image-keyboard-response","355","754716","0.0-12.0-1.20","test",",","",",","",""
"null","<div style=""color:white; font-size:60px;"">+</div>","null","html-keyboard-response","356","755720","0.0-12.0-0.21","fixation","","","","",""
"2156.7849999996834","Stimuli/Hangul_M97.bmp","188","image-keyboard-response","357","757885","0.0-12.0-1.21","test",",","",",","",""
"null","<div style=""color:white; font-size:60px;"">+</div>","null","html-keyboard-response","358","758891","0.0-12.0-0.22","fixation","","","","",""
"2408.7100000001956","Stimuli/Hangul_M77.bmp","190","image-keyboard-response","359","761305","0.0-12.0-1.22","test",",","",".","",""
"null","<div style=""color:white; font-size:60px;"">+</div>","null","html-keyboard-response","360","762323","0.0-12.0-0.23","fixation","","","","",""
"2013.625","Stimuli/Hangul_M81.bmp","190","image-keyboard-response","361","764339","0.0-12.0-1.23","test",",","",".","",""
"null","<div style=""color:white; font-size:60px;"">+</div>","null","html-keyboard-response","362","765351","0.0-12.0-0.24","fixation","","","","",""
"2354.144999999786","Stimuli/Hangul_F95.bmp","188","image-keyboard-response","363","767712","0.0-12.0-1.24","test",".","",",","",""
"null","<div style=""color:white; font-size:60px;"">+</div>","null","html-keyboard-response","364","768726","0.0-12.0-0.25","fixation","","","","",""
"3177.5750000001863","Stimuli/Hangul_M79.bmp","188","image-keyboard-response","365","771908","0.0-12.0-1.25","test",",","",",","",""
"null","<div style=""color:white; font-size:60px;"">+</div>","null","html-keyboard-response","366","772934","0.0-12.0-0.26","fixation","","","","",""
"2105.1849999999395","Stimuli/Hangul_F98.bmp","190","image-keyboard-response","367","775047","0.0-12.0-1.26","test",".","",".","",""
"null","<div style=""color:white; font-size:60px;"">+</div>","null","html-keyboard-response","368","776061","0.0-12.0-0.27","fixation","","","","",""
"3261.94000000041","Stimuli/Hangul_M91.bmp","188","image-keyboard-response","369","779328","0.0-12.0-1.27","test",",","",",","",""
"null","<div style=""color:white; font-size:60px;"">+</div>","null","html-keyboard-response","370","780336","0.0-12.0-0.28","fixation","","","","",""
"2918.8099999997066","Stimuli/Hangul_F86.bmp","188","image-keyboard-response","371","783249","0.0-12.0-1.28","test",".","",",","",""
"null","<div style=""color:white; font-size:60px;"">+</div>","null","html-keyboard-response","372","784258","0.0-12.0-0.29","fixation","","","","",""
"1899.2299999999814","Stimuli/Hangul_M99.bmp","190","image-keyboard-response","373","786162","0.0-12.0-1.29","test",",","",".","",""
"null","<div style=""color:white; font-size:60px;"">+</div>","null","html-keyboard-response","374","787179","0.0-12.0-0.30","fixation","","","","",""
"3661.145000000135","Stimuli/Hangul_M96.bmp","188","image-keyboard-response","375","790842","0.0-12.0-1.30","test",",","",",","",""
"null","<div style=""color:white; font-size:60px;"">+</div>","null","html-keyboard-response","376","791856","0.0-12.0-0.31","fixation","","","","",""
"2892.900000000256","Stimuli/Hangul_F99.bmp","188","image-keyboard-response","377","794757","0.0-12.0-1.31","test",".","",",","",""
"null","<div style=""color:white; font-size:60px;"">+</div>","null","html-keyboard-response","378","795772","0.0-12.0-0.32","fixation","","","","",""
"2140.274999999674","Stimuli/Hangul_M76.bmp","188","image-keyboard-response","379","797915","0.0-12.0-1.32","test",",","",",","",""
"null","<div style=""color:white; font-size:60px;"">+</div>","null","html-keyboard-response","380","798932","0.0-12.0-0.33","fixation","","","","",""
"100.89999999990687","Stimuli/Hangul_M83.bmp","190","image-keyboard-response","381","799038","0.0-12.0-1.33","test",",","",".","",""
"null","<div style=""color:white; font-size:60px;"">+</div>","null","html-keyboard-response","382","800045","0.0-12.0-0.34","fixation","","","","",""
"2232.765000000247","Stimuli/Hangul_M98.bmp","190","image-keyboard-response","383","802281","0.0-12.0-1.34","test",",","",".","",""
"null","<div style=""color:white; font-size:60px;"">+</div>","null","html-keyboard-response","384","803289","0.0-12.0-0.35","fixation","","","","",""
"2421.4950000001118","Stimuli/Hangul_M90.bmp","188","image-keyboard-response","385","805715","0.0-12.0-1.35","test",",","",",","",""
"null","<div style=""color:white; font-size:60px;"">+</div>","null","html-keyboard-response","386","806725","0.0-12.0-0.36","fixation","","","","",""
"3125.044999999809","Stimuli/Hangul_F78.bmp","190","image-keyboard-response","387","809856","0.0-12.0-1.36","test",".","",".","",""
"null","<div style=""color:white; font-size:60px;"">+</div>","null","html-keyboard-response","388","810877","0.0-12.0-0.37","fixation","","","","",""
"3653.9050000001444","Stimuli/Hangul_F75.bmp","188","image-keyboard-response","389","814534","0.0-12.0-1.37","test",".","",",","",""
"null","<div style=""color:white; font-size:60px;"">+</div>","null","html-keyboard-response","390","815547","0.0-12.0-0.38","fixation","","","","",""
"3645.3100000002887","Stimuli/Hangul_F80.bmp","190","image-keyboard-response","391","819197","0.0-12.0-1.38","test",".","",".","",""
"null","<div style=""color:white; font-size:60px;"">+</div>","null","html-keyboard-response","392","820208","0.0-12.0-0.39","fixation","","","","",""
"3646.879999999772","Stimuli/Hangul_F83.bmp","190","image-keyboard-response","393","823885","0.0-12.0-1.39","test",".","",".","",""
"null","<div style=""color:white; font-size:60px;"">+</div>","null","html-keyboard-response","394","824894","0.0-12.0-0.40","fixation","","","","",""
"3158.0399999998044","Stimuli/Hangul_M88.bmp","188","image-keyboard-response","395","828063","0.0-12.0-1.40","test",",","",",","",""
"null","<div style=""color:white; font-size:60px;"">+</div>","null","html-keyboard-response","396","829072","0.0-12.0-0.41","fixation","","","","",""
"4127.254999999888","Stimuli/Hangul_F90.bmp","190","image-keyboard-response","397","833207","0.0-12.0-1.41","test",".","",".","",""
"null","<div style=""color:white; font-size:60px;"">+</div>","null","html-keyboard-response","398","834222","0.0-12.0-0.42","fixation","","","","",""
"4638.14999999979","Stimuli/Hangul_M92.bmp","190","image-keyboard-response","399","838870","0.0-12.0-1.42","test",",","",".","",""
"null","<div style=""color:white; font-size:60px;"">+</div>","null","html-keyboard-response","400","839889","0.0-12.0-0.43","fixation","","","","",""
"2902.2700000000186","Stimuli/Hangul_F77.bmp","190","image-keyboard-response","401","842794","0.0-12.0-1.43","test",".","",".","",""
"null","<div style=""color:white; font-size:60px;"">+</div>","null","html-keyboard-response","402","843821","0.0-12.0-0.44","fixation","","","","",""
"2758.579999999609","Stimuli/Hangul_F84.bmp","188","image-keyboard-response","403","846584","0.0-12.0-1.44","test",".","",",","",""
"null","<div style=""color:white; font-size:60px;"">+</div>","null","html-keyboard-response","404","847592","0.0-12.0-0.45","fixation","","","","",""
"2166.394999999786","Stimuli/Hangul_M75.bmp","188","image-keyboard-response","405","849766","0.0-12.0-1.45","test",",","",",","",""
"null","<div style=""color:white; font-size:60px;"">+</div>","null","html-keyboard-response","406","850779","0.0-12.0-0.46","fixation","","","","",""
"2114.810000000056","Stimuli/Hangul_F81.bmp","188","image-keyboard-response","407","852896","0.0-12.0-1.46","test",".","",",","",""
"null","<div style=""color:white; font-size:60px;"">+</div>","null","html-keyboard-response","408","853906","0.0-12.0-0.47","fixation","","","","",""
"2478.055000000051","Stimuli/Hangul_F85.bmp","188","image-keyboard-response","409","856386","0.0-12.0-1.47","test",".","",",","",""
"null","<div style=""color:white; font-size:60px;"">+</div>","null","html-keyboard-response","410","857400","0.0-12.0-0.48","fixation","","","","",""
"2356.1749999998137","Stimuli/Hangul_M94.bmp","188","image-keyboard-response","411","859766","0.0-12.0-1.48","test",",","",",","",""
"null","<div style=""color:white; font-size:60px;"">+</div>","null","html-keyboard-response","412","860789","0.0-12.0-0.49","fixation","","","","",""
"3445.064999999944","Stimuli/Hangul_F89.bmp","190","image-keyboard-response","413","864238","0.0-12.0-1.49","test",".","",".","",""
"2897.9399999998277","<p style=""color:white;"">Phase I of the experiment is complete.</p> <p style=""color:white;"">Press the space bar to proceed to Phase II of the experiment.</p> ","32","html-keyboard-response","414","867141","0.0-13.0","","","","","",""
"15279.509999999893","<p style=""color:white;"">Now we are interested in how well you can predict patterns in the series of figures. You will be asked to predict whether the next figure in the series is more male-like or female-like. When you see the <q>Next Figure</q> prompt, press the corresponding response keys to indicate your prediction: </p><p style=""color:white;""> Male &#8594 <q>,</q> (comma)</p><p style=""color:white;""> Female &#8594 <q>.</q> (period)</p><p style=""color:white;"">The actual figure will then appear on the screen. After you see the figure, please guess the assigned gender with response keys. </p><p style=""color:white;"">As before, you will receive 2 cents for correctly classifying each figure.</p><p style=""color:white;"">Press either response keys to continue.</p>","188","html-keyboard-response","415","884431","0.0-14.0","","","","","",""
"9563.500000000233","<p style=""color:white;"">PREDICTION BONUS</p> <p style=""color:white;"">Your prediction accuracy is the total number of correct predictions you make over the 200 trials.</p> <p style=""color:white;"">In addition to the 2 cents per correct figure classification, you have the chance to receive a bonus of 40 dollars IF your accuracy is above average relative to previous participants.</p><p style=""color:white;"">If your accuracy is below average relative to previous participants, then you will not receive the 40 dollar bonus.</p><p style=""color:white;"">Press the space bar to continue.</p>","32","html-keyboard-response","416","894001","0.0-15.0","","","","","",""
"3759.019999999902","<p style=""color:white;"">Here are some examples.</p> <p style=""color:white;"">For each, predict whether the next figure looks more male-like or female-like. Then, when the figure appears, guess whether it looks more male-like or female-like and indicate your choice.</p> <p style=""color:white;"">Press the space bar to continue.</p>","32","html-keyboard-response","417","897765","0.0-16.0","","","","","",""
"5269.929999999935","<p style=""color:white;""> Next Figure: Male or Female? </p>","188","html-keyboard-response","418","905032","0.0-17.0-0.0","prediction_train","","","",",",""
"null","<div style=""color:white; font-size:60px;"">+</div>","null","html-keyboard-response","419","906038","0.0-17.0-1.0","fixation","","","","",""
"3437.0849999999627","Stimuli/Hangul_E2.bmp","188","image-keyboard-response","420","909488","0.0-17.0-2.0","c2_train",".","","","",","
"2232.5300000002608","<p style=""color:white;""> Next Figure: Male or Female? </p>","188","html-keyboard-response","421","911728","0.0-17.0-0.1","prediction_train","","","",",",""
"null","<div style=""color:white; font-size:60px;"">+</div>","null","html-keyboard-response","422","912739","0.0-17.0-1.1","fixation","","","","",""
"1139.970000000205","Stimuli/Hangul_E1.bmp","190","image-keyboard-response","423","913883","0.0-17.0-2.1","c2_train",",","","","","."
"2153.5149999998976","<p style=""color:white;""> Next Figure: Male or Female? </p>","190","html-keyboard-response","424","916043","0.0-17.0-0.2","prediction_train","","","",".",""
"null","<div style=""color:white; font-size:60px;"">+</div>","null","html-keyboard-response","425","917058","0.0-17.0-1.2","fixation","","","","",""
"1578.6850000004051","Stimuli/Hangul_E0.bmp","190","image-keyboard-response","426","918640","0.0-17.0-2.2","c2_train",",","","","","."
"1572.4000000000233","<p style=""color:white;"">Let us begin! Press the space bar when you are ready to start block 1 of 4.</p> ","32","html-keyboard-response","427","920216","0.0-18.0","","","","","",""
"389.2449999997625","<p style=""color:white;""> Next Figure: Male or Female? </p>","188","html-keyboard-response","428","922628","0.0-19.0-0.0","prediction","","","",",",""
"null","<div style=""color:white; font-size:60px;"">+</div>","null","html-keyboard-response","429","923632","0.0-19.0-1.0","fixation","","","","",""
"913.9249999998137","Stimuli/Hangul_F6.bmp","188","image-keyboard-response","430","924556","0.0-19.0-2.0","c2_test",".","","","",","
"1456.8899999998976","<p style=""color:white;""> Next Figure: Male or Female? </p>","188","html-keyboard-response","431","926016","0.0-19.0-0.1","prediction","","","",",",""
"null","<div style=""color:white; font-size:60px;"">+</div>","null","html-keyboard-response","432","927023","0.0-19.0-1.1","fixation","","","","",""
"881.4900000002235","Stimuli/Hangul_M17.bmp","188","image-keyboard-response","433","927909","0.0-19.0-2.1","c2_test",",","","","",","
"583.2500000001164","<p style=""color:white;""> Next Figure: Male or Female? </p>","190","html-keyboard-response","434","928499","0.0-19.0-0.2","prediction","","","",".",""
"null","<div style=""color:white; font-size:60px;"">+</div>","null","html-keyboard-response","435","929511","0.0-19.0-1.2","fixation","","","","",""
"840.0499999998137","Stimuli/Hangul_M8.bmp","190","image-keyboard-response","436","930356","0.0-19.0-2.2","c2_test",",","","","","."
"889.8750000002328","<p style=""color:white;""> Next Figure: Male or Female? </p>","190","html-keyboard-response","437","931248","0.0-19.0-0.3","prediction","","","",".",""
"null","<div style=""color:white; font-size:60px;"">+</div>","null","html-keyboard-response","438","932258","0.0-19.0-1.3","fixation","","","","",""
"1011.4550000003073","Stimuli/Hangul_F12.bmp","190","image-keyboard-response","439","933272","0.0-19.0-2.3","c2_test",".","","","","."
"853.9300000001676","<p style=""color:white;""> Next Figure: Male or Female? </p>","190","html-keyboard-response","440","934131","0.0-19.0-0.4","prediction","","","",".",""
"null","<div style=""color:white; font-size:60px;"">+</div>","null","html-keyboard-response","441","935149","0.0-19.0-1.4","fixation","","","","",""
"806.5400000000373","Stimuli/Hangul_M9.bmp","190","image-keyboard-response","442","935962","0.0-19.0-2.4","c2_test",",","","","","."
"692.1149999998743","<p style=""color:white;""> Next Figure: Male or Female? </p>","190","html-keyboard-response","443","936658","0.0-19.0-0.5","prediction","","","",".",""
"null","<div style=""color:white; font-size:60px;"">+</div>","null","html-keyboard-response","444","937664","0.0-19.0-1.5","fixation","","","","",""
"2281.884999999893","Stimuli/Hangul_F1.bmp","188","image-keyboard-response","445","939949","0.0-19.0-2.5","c2_test",".","","","",","
"1227.7799999996787","<p style=""color:white;""> Next Figure: Male or Female? </p>","188","html-keyboard-response","446","941182","0.0-19.0-0.6","prediction","","","",",",""
"null","<div style=""color:white; font-size:60px;"">+</div>","null","html-keyboard-response","447","942187","0.0-19.0-1.6","fixation","","","","",""
"912.3249999997206","Stimuli/Hangul_F21.bmp","188","image-keyboard-response","448","943102","0.0-19.0-2.6","c2_test",".","","","",","
"852.7199999998556","<p style=""color:white;""> Next Figure: Male or Female? </p>","188","html-keyboard-response","449","943960","0.0-19.0-0.7","prediction","","","",",",""
"null","<div style=""color:white; font-size:60px;"">+</div>","null","html-keyboard-response","450","944978","0.0-19.0-1.7","fixation","","","","",""
"757.194999999716","Stimuli/Hangul_M11.bmp","188","image-keyboard-response","451","945743","0.0-19.0-2.7","c2_test",",","","","",","
"486.5250000002561","<p style=""color:white;""> Next Figure: Male or Female? </p>","188","html-keyboard-response","452","946238","0.0-19.0-0.8","prediction","","","",",",""
"null","<div style=""color:white; font-size:60px;"">+</div>","null","html-keyboard-response","453","947257","0.0-19.0-1.8","fixation","","","","",""
"1909.7900000001537","Stimuli/Hangul_F15.bmp","190","image-keyboard-response","454","949172","0.0-19.0-2.8","c2_test",".","","","","."
"1090.9799999999814","<p style=""color:white;""> Next Figure: Male or Female? </p>","190","html-keyboard-response","455","950271","0.0-19.0-0.9","prediction","","","",".",""
"null","<div style=""color:white; font-size:60px;"">+</div>","null","html-keyboard-response","456","951282","0.0-19.0-1.9","fixation","","","","",""
"1222.1949999998324","Stimuli/Hangul_M2.bmp","190","image-keyboard-response","457","952509","0.0-19.0-2.9","c2_test",",","","","","."
"1142.045000000042","<p style=""color:white;""> Next Figure: Male or Female? </p>","188","html-keyboard-response","458","953654","0.0-19.0-0.10","prediction","","","",",",""
"null","<div style=""color:white; font-size:60px;"">+</div>","null","html-keyboard-response","459","954662","0.0-19.0-1.10","fixation","","","","",""
"2480.609999999986","Stimuli/Hangul_M1.bmp","190","image-keyboard-response","460","957146","0.0-19.0-2.10","c2_test",",","","","","."
"822.2999999998137","<p style=""color:white;""> Next Figure: Male or Female? </p>","190","html-keyboard-response","461","957972","0.0-19.0-0.11","prediction","","","",".",""
"null","<div style=""color:white; font-size:60px;"">+</div>","null","html-keyboard-response","462","958978","0.0-19.0-1.11","fixation","","","","",""
"2077.214999999851","Stimuli/Hangul_F0.bmp","188","image-keyboard-response","463","961058","0.0-19.0-2.11","c2_test",".","","","",","
"906.9399999999441","<p style=""color:white;""> Next Figure: Male or Female? </p>","188","html-keyboard-response","464","961968","0.0-19.0-0.12","prediction","","","",",",""
"null","<div style=""color:white; font-size:60px;"">+</div>","null","html-keyboard-response","465","962972","0.0-19.0-1.12","fixation","","","","",""
"1228.2100000001956","Stimuli/Hangul_M15.bmp","188","image-keyboard-response","466","964209","0.0-19.0-2.12","c2_test",",","","","",","
"670.7099999997299","<p style=""color:white;""> Next Figure: Male or Female? </p>","188","html-keyboard-response","467","964882","0.0-19.0-0.13","prediction","","","",",",""
"null","<div style=""color:white; font-size:60px;"">+</div>","null","html-keyboard-response","468","965898","0.0-19.0-1.13","fixation","","","","",""
"984.9150000000373","Stimuli/Hangul_F20.bmp","188","image-keyboard-response","469","966889","0.0-19.0-2.13","c2_test",".","","","",","
"970.6550000000279","<p style=""color:white;""> Next Figure: Male or Female? </p>","188","html-keyboard-response","470","967881","0.0-19.0-0.14","prediction","","","",",",""
"null","<div style=""color:white; font-size:60px;"">+</div>","null","html-keyboard-response","471","968899","0.0-19.0-1.14","fixation","","","","",""
"1418.0700000000652","Stimuli/Hangul_F16.bmp","190","image-keyboard-response","472","970323","0.0-19.0-2.14","c2_test",".","","","","."
"738.3050000004005","<p style=""color:white;""> Next Figure: Male or Female? </p>","190","html-keyboard-response","473","971064","0.0-19.0-0.15","prediction","","","",".",""
"null","<div style=""color:white; font-size:60px;"">+</div>","null","html-keyboard-response","474","972078","0.0-19.0-1.15","fixation","","","","",""
"746.2050000000745","Stimuli/Hangul_M20.bmp","190","image-keyboard-response","475","972833","0.0-19.0-2.15","c2_test",",","","","","."
"698.9250000002794","<p style=""color:white;""> Next Figure: Male or Female? </p>","190","html-keyboard-response","476","973538","0.0-19.0-0.16","prediction","","","",".",""
"null","<div style=""color:white; font-size:60px;"">+</div>","null","html-keyboard-response","477","974558","0.0-19.0-1.16","fixation","","","","",""
"839.3950000000186","Stimuli/Hangul_M5.bmp","190","image-keyboard-response","478","975402","0.0-19.0-2.16","c2_test",",","","","","."
"542.0400000002701","<p style=""color:white;""> Next Figure: Male or Female? </p>","190","html-keyboard-response","479","975950","0.0-19.0-0.17","prediction","","","",".",""
"null","<div style=""color:white; font-size:60px;"">+</div>","null","html-keyboard-response","480","976958","0.0-19.0-1.17","fixation","","","","",""
"761.2299999999814","Stimuli/Hangul_M7.bmp","188","image-keyboard-response","481","977723","0.0-19.0-2.17","c2_test",",","","","",","
"566.5450000001583","<p style=""color:white;""> Next Figure: Male or Female? </p>","188","html-keyboard-response","482","978293","0.0-19.0-0.18","prediction","","","",",",""
"null","<div style=""color:white; font-size:60px;"">+</div>","null","html-keyboard-response","483","979306","0.0-19.0-1.18","fixation","","","","",""
"957.1899999999441","Stimuli/Hangul_M6.bmp","188","image-keyboard-response","484","980272","0.0-19.0-2.18","c2_test",",","","","",","
"536.8749999997672","<p style=""color:white;""> Next Figure: Male or Female? </p>","188","html-keyboard-response","485","980818","0.0-19.0-0.19","prediction","","","",",",""
"null","<div style=""color:white; font-size:60px;"">+</div>","null","html-keyboard-response","486","981828","0.0-19.0-1.19","fixation","","","","",""
"1636.6800000001676","Stimuli/Hangul_M16.bmp","190","image-keyboard-response","487","983469","0.0-19.0-2.19","c2_test",",","","","","."
"1437.684999999823","<p style=""color:white;""> Next Figure: Male or Female? </p>","190","html-keyboard-response","488","984913","0.0-19.0-0.20","prediction","","","",".",""
"null","<div style=""color:white; font-size:60px;"">+</div>","null","html-keyboard-response","489","985924","0.0-19.0-1.20","fixation","","","","",""
"888.1400000001304","Stimuli/Hangul_M19.bmp","190","image-keyboard-response","490","986822","0.0-19.0-2.20","c2_test",",","","","","."
"528.4950000001118","<p style=""color:white;""> Next Figure: Male or Female? </p>","190","html-keyboard-response","491","987354","0.0-19.0-0.21","prediction","","","",".",""
"null","<div style=""color:white; font-size:60px;"">+</div>","null","html-keyboard-response","492","988371","0.0-19.0-1.21","fixation","","","","",""
"869.9250000000466","Stimuli/Hangul_F22.bmp","190","image-keyboard-response","493","989243","0.0-19.0-2.21","c2_test",".","","","","."
"659.1399999996647","<p style=""color:white;""> Next Figure: Male or Female? </p>","188","html-keyboard-response","494","989906","0.0-19.0-0.22","prediction","","","",",",""
"null","<div style=""color:white; font-size:60px;"">+</div>","null","html-keyboard-response","495","990924","0.0-19.0-1.22","fixation","","","","",""
"1115.589999999851","Stimuli/Hangul_F4.bmp","188","image-keyboard-response","496","992044","0.0-19.0-2.22","c2_test",".","","","",","
"1012.4799999999814","<p style=""color:white;""> Next Figure: Male or Female? </p>","188","html-keyboard-response","497","993063","0.0-19.0-0.23","prediction","","","",",",""
"null","<div style=""color:white; font-size:60px;"">+</div>","null","html-keyboard-response","498","994081","0.0-19.0-1.23","fixation","","","","",""
"1778.2050000000745","Stimuli/Hangul_M23.bmp","188","image-keyboard-response","499","995865","0.0-19.0-2.23","c2_test",",","","","",","
"617.3499999998603","<p style=""color:white;""> Next Figure: Male or Female? </p>","190","html-keyboard-response","500","996501","0.0-19.0-0.24","prediction","","","",".",""
"null","<div style=""color:white; font-size:60px;"">+</div>","null","html-keyboard-response","501","997504","0.0-19.0-1.24","fixation","","","","",""
"1081.4100000003818","Stimuli/Hangul_F9.bmp","190","image-keyboard-response","502","998594","0.0-19.0-2.24","c2_test",".","","","","."
"528.7050000000745","<p style=""color:white;""> Next Figure: Male or Female? </p>","190","html-keyboard-response","503","999126","0.0-19.0-0.25","prediction","","","",".",""
"null","<div style=""color:white; font-size:60px;"">+</div>","null","html-keyboard-response","504","1000134","0.0-19.0-1.25","fixation","","","","",""
"4148.075000000186","Stimuli/Hangul_F24.bmp","188","image-keyboard-response","505","1004288","0.0-19.0-2.25","c2_test",".","","","",","
"606.5849999999627","<p style=""color:white;""> Next Figure: Male or Female? </p>","188","html-keyboard-response","506","1004897","0.0-19.0-0.26","prediction","","","",",",""
"null","<div style=""color:white; font-size:60px;"">+</div>","null","html-keyboard-response","507","1005912","0.0-19.0-1.26","fixation","","","","",""
"1649.9900000004563","Stimuli/Hangul_M10.bmp","188","image-keyboard-response","508","1007566","0.0-19.0-2.26","c2_test",",","","","",","
"477.7050000000745","<p style=""color:white;""> Next Figure: Male or Female? </p>","188","html-keyboard-response","509","1008050","0.0-19.0-0.27","prediction","","","",",",""
"null","<div style=""color:white; font-size:60px;"">+</div>","null","html-keyboard-response","510","1009066","0.0-19.0-1.27","fixation","","","","",""
"914.0649999999441","Stimuli/Hangul_M24.bmp","188","image-keyboard-response","511","1009983","0.0-19.0-2.27","c2_test",",","","","",","
"495.3900000001304","<p style=""color:white;""> Next Figure: Male or Female? </p>","188","html-keyboard-response","512","1010484","0.0-19.0-0.28","prediction","","","",",",""
"null","<div style=""color:white; font-size:60px;"">+</div>","null","html-keyboard-response","513","1011494","0.0-19.0-1.28","fixation","","","","",""
"935.8649999999907","Stimuli/Hangul_M21.bmp","188","image-keyboard-response","514","1012434","0.0-19.0-2.28","c2_test",",","","","",","
"811.6549999997951","<p style=""color:white;""> Next Figure: Male or Female? </p>","188","html-keyboard-response","515","1013249","0.0-19.0-0.29","prediction","","","",",",""
"null","<div style=""color:white; font-size:60px;"">+</div>","null","html-keyboard-response","516","1014262","0.0-19.0-1.29","fixation","","","","",""
"2084.7650000001304","Stimuli/Hangul_F23.bmp","188","image-keyboard-response","517","1016352","0.0-19.0-2.29","c2_test",".","","","",","
"526.8500000000931","<p style=""color:white;""> Next Figure: Male or Female? </p>","190","html-keyboard-response","518","1016881","0.0-19.0-0.30","prediction","","","",".",""
"null","<div style=""color:white; font-size:60px;"">+</div>","null","html-keyboard-response","519","1017885","0.0-19.0-1.30","fixation","","","","",""
"2077.439999999944","Stimuli/Hangul_F18.bmp","188","image-keyboard-response","520","1019966","0.0-19.0-2.30","c2_test",".","","","",","
"652.3900000003632","<p style=""color:white;""> Next Figure: Male or Female? </p>","190","html-keyboard-response","521","1020621","0.0-19.0-0.31","prediction","","","",".",""
"null","<div style=""color:white; font-size:60px;"">+</div>","null","html-keyboard-response","522","1021636","0.0-19.0-1.31","fixation","","","","",""
"1888.1000000000931","Stimuli/Hangul_F13.bmp","188","image-keyboard-response","523","1023528","0.0-19.0-2.31","c2_test",".","","","",","
"1070.655000000028","<p style=""color:white;""> Next Figure: Male or Female? </p>","190","html-keyboard-response","524","1024604","0.0-19.0-0.32","prediction","","","",".",""
"null","<div style=""color:white; font-size:60px;"">+</div>","null","html-keyboard-response","525","1025618","0.0-19.0-1.32","fixation","","","","",""
"1539.5699999998324","Stimuli/Hangul_F7.bmp","188","image-keyboard-response","526","1027167","0.0-19.0-2.32","c2_test",".","","","",","
"726.5749999997206","<p style=""color:white;""> Next Figure: Male or Female? </p>","190","html-keyboard-response","527","1027896","0.0-19.0-0.33","prediction","","","",".",""
"null","<div style=""color:white; font-size:60px;"">+</div>","null","html-keyboard-response","528","1028909","0.0-19.0-1.33","fixation","","","","",""
"1200.1700000001583","Stimuli/Hangul_F14.bmp","190","image-keyboard-response","529","1030118","0.0-19.0-2.33","c2_test",".","","","","."
"620.5900000000838","<p style=""color:white;""> Next Figure: Male or Female? </p>","190","html-keyboard-response","530","1030745","0.0-19.0-0.34","prediction","","","",".",""
"null","<div style=""color:white; font-size:60px;"">+</div>","null","html-keyboard-response","531","1031754","0.0-19.0-1.34","fixation","","","","",""
"1975.450000000419","Stimuli/Hangul_F8.bmp","188","image-keyboard-response","532","1033735","0.0-19.0-2.34","c2_test",".","","","",","
"533.3899999998976","<p style=""color:white;""> Next Figure: Male or Female? </p>","188","html-keyboard-response","533","1034276","0.0-19.0-0.35","prediction","","","",",",""
"null","<div style=""color:white; font-size:60px;"">+</div>","null","html-keyboard-response","534","1035287","0.0-19.0-1.35","fixation","","","","",""
"2537.965000000084","Stimuli/Hangul_F17.bmp","188","image-keyboard-response","535","1037833","0.0-19.0-2.35","c2_test",".","","","",","
"772.2550000003539","<p style=""color:white;""> Next Figure: Male or Female? </p>","188","html-keyboard-response","536","1038608","0.0-19.0-0.36","prediction","","","",",",""
"null","<div style=""color:white; font-size:60px;"">+</div>","null","html-keyboard-response","537","1039620","0.0-19.0-1.36","fixation","","","","",""
"1182.8850000002421","Stimuli/Hangul_F11.bmp","190","image-keyboard-response","538","1040807","0.0-19.0-2.36","c2_test",".","","","","."
"567.9899999999907","<p style=""color:white;""> Next Figure: Male or Female? </p>","190","html-keyboard-response","539","1041381","0.0-19.0-0.37","prediction","","","",".",""
"null","<div style=""color:white; font-size:60px;"">+</div>","null","html-keyboard-response","540","1042385","0.0-19.0-1.37","fixation","","","","",""
"1150.5449999999255","Stimuli/Hangul_M13.bmp","190","image-keyboard-response","541","1043538","0.0-19.0-2.37","c2_test",",","","","","."
"664.9599999999627","<p style=""color:white;""> Next Figure: Male or Female? </p>","190","html-keyboard-response","542","1044207","0.0-19.0-0.38","prediction","","","",".",""
"null","<div style=""color:white; font-size:60px;"">+</div>","null","html-keyboard-response","543","1045216","0.0-19.0-1.38","fixation","","","","",""
"1424.7900000000373","Stimuli/Hangul_M3.bmp","188","image-keyboard-response","544","1046649","0.0-19.0-2.38","c2_test",",","","","",","
"596.0100000002421","<p style=""color:white;""> Next Figure: Male or Female? </p>","188","html-keyboard-response","545","1047248","0.0-19.0-0.39","prediction","","","",",",""
"null","<div style=""color:white; font-size:60px;"">+</div>","null","html-keyboard-response","546","1048258","0.0-19.0-1.39","fixation","","","","",""
"834.0800000000745","Stimuli/Hangul_F3.bmp","188","image-keyboard-response","547","1049094","0.0-19.0-2.39","c2_test",".","","","",","
"797.3950000000186","<p style=""color:white;""> Next Figure: Male or Female? </p>","190","html-keyboard-response","548","1049896","0.0-19.0-0.40","prediction","","","",".",""
"null","<div style=""color:white; font-size:60px;"">+</div>","null","html-keyboard-response","549","1050909","0.0-19.0-1.40","fixation","","","","",""
"1046.2050000000745","Stimuli/Hangul_F10.bmp","190","image-keyboard-response","550","1051964","0.0-19.0-2.40","c2_test",".","","","","."
"486.80999999982305","<p style=""color:white;""> Next Figure: Male or Female? </p>","190","html-keyboard-response","551","1052456","0.0-19.0-0.41","prediction","","","",".",""
"null","<div style=""color:white; font-size:60px;"">+</div>","null","html-keyboard-response","552","1053463","0.0-19.0-1.41","fixation","","","","",""
"564.2999999998137","Stimuli/Hangul_F19.bmp","188","image-keyboard-response","553","1054033","0.0-19.0-2.41","c2_test",".","","","",","
"843.1899999999441","<p style=""color:white;""> Next Figure: Male or Female? </p>","188","html-keyboard-response","554","1054879","0.0-19.0-0.42","prediction","","","",",",""
"null","<div style=""color:white; font-size:60px;"">+</div>","null","html-keyboard-response","555","1055884","0.0-19.0-1.42","fixation","","","","",""
"1218.2549999996554","Stimuli/Hangul_M12.bmp","188","image-keyboard-response","556","1057107","0.0-19.0-2.42","c2_test",",","","","",","
"566.6549999995623","<p style=""color:white;""> Next Figure: Male or Female? </p>","188","html-keyboard-response","557","1057679","0.0-19.0-0.43","prediction","","","",",",""
"null","<div style=""color:white; font-size:60px;"">+</div>","null","html-keyboard-response","558","1058694","0.0-19.0-1.43","fixation","","","","",""
"931.5099999997765","Stimuli/Hangul_M4.bmp","188","image-keyboard-response","559","1059628","0.0-19.0-2.43","c2_test",",","","","",","
"608.8449999997392","<p style=""color:white;""> Next Figure: Male or Female? </p>","188","html-keyboard-response","560","1060243","0.0-19.0-0.44","prediction","","","",",",""
"null","<div style=""color:white; font-size:60px;"">+</div>","null","html-keyboard-response","561","1061249","0.0-19.0-1.44","fixation","","","","",""
"933.7599999997765","Stimuli/Hangul_M0.bmp","190","image-keyboard-response","562","1062190","0.0-19.0-2.44","c2_test",",","","","","."
"637.5","<p style=""color:white;""> Next Figure: Male or Female? </p>","190","html-keyboard-response","563","1062832","0.0-19.0-0.45","prediction","","","",".",""
"null","<div style=""color:white; font-size:60px;"">+</div>","null","html-keyboard-response","564","1063848","0.0-19.0-1.45","fixation","","","","",""
"927.0649999999441","Stimuli/Hangul_F5.bmp","190","image-keyboard-response","565","1064777","0.0-19.0-2.45","c2_test",".","","","","."
"814.7399999999907","<p style=""color:white;""> Next Figure: Male or Female? </p>","190","html-keyboard-response","566","1065595","0.0-19.0-0.46","prediction","","","",".",""
"null","<div style=""color:white; font-size:60px;"">+</div>","null","html-keyboard-response","567","1066606","0.0-19.0-1.46","fixation","","","","",""
"3903.2700000002515","Stimuli/Hangul_M22.bmp","188","image-keyboard-response","568","1070511","0.0-19.0-2.46","c2_test",",","","","",","
"949.9999999997672","<p style=""color:white;""> Next Figure: Male or Female? </p>","188","html-keyboard-response","569","1071464","0.0-19.0-0.47","prediction","","","",",",""
"null","<div style=""color:white; font-size:60px;"">+</div>","null","html-keyboard-response","570","1072478","0.0-19.0-1.47","fixation","","","","",""
"1241.2849999999162","Stimuli/Hangul_M14.bmp","188","image-keyboard-response","571","1073724","0.0-19.0-2.47","c2_test",",","","","",","
"553.1599999999162","<p style=""color:white;""> Next Figure: Male or Female? </p>","188","html-keyboard-response","572","1074283","0.0-19.0-0.48","prediction","","","",",",""
"null","<div style=""color:white; font-size:60px;"">+</div>","null","html-keyboard-response","573","1075303","0.0-19.0-1.48","fixation","","","","",""
"981.6199999998789","Stimuli/Hangul_M18.bmp","188","image-keyboard-response","574","1076289","0.0-19.0-2.48","c2_test",",","","","",","
"540.464999999851","<p style=""color:white;""> Next Figure: Male or Female? </p>","188","html-keyboard-response","575","1076832","0.0-19.0-0.49","prediction","","","",",",""
"null","<div style=""color:white; font-size:60px;"">+</div>","null","html-keyboard-response","576","1077852","0.0-19.0-1.49","fixation","","","","",""
"1098.2400000002235","Stimuli/Hangul_F2.bmp","190","image-keyboard-response","577","1078956","0.0-19.0-2.49","c2_test",".","","","","."
"1438.0399999998044","<p style=""color:white;"">Good job, block 1 complete! Please take a moment to rest.</p> <p style=""color:white;"">When you are ready to continue with block 2 of 4, press the space bar.</p> ","32","html-keyboard-response","578","1080402","0.0-20.0","","","","","",""
"468.65500000026077","<p style=""color:white;""> Next Figure: Male or Female? </p>","188","html-keyboard-response","579","1082886","0.0-21.0-0.0","prediction","","","",",",""
"null","<div style=""color:white; font-size:60px;"">+</div>","null","html-keyboard-response","580","1083906","0.0-21.0-1.0","fixation","","","","",""
"1475.0049999996554","Stimuli/Hangul_F35.bmp","188","image-keyboard-response","581","1085390","0.0-21.0-2.0","c2_test",".","","","",","
"1316.5649999999441","<p style=""color:white;""> Next Figure: Male or Female? </p>","188","html-keyboard-response","582","1086710","0.0-21.0-0.1","prediction","","","",",",""
"null","<div style=""color:white; font-size:60px;"">+</div>","null","html-keyboard-response","583","1087720","0.0-21.0-1.1","fixation","","","","",""
"1922.2949999996927","Stimuli/Hangul_F49.bmp","188","image-keyboard-response","584","1089650","0.0-21.0-2.1","c2_test",".","","","",","
"659.4399999997113","<p style=""color:white;""> Next Figure: Male or Female? </p>","188","html-keyboard-response","585","1090315","0.0-21.0-0.2","prediction","","","",",",""
"null","<div style=""color:white; font-size:60px;"">+</div>","null","html-keyboard-response","586","1091323","0.0-21.0-1.2","fixation","","","","",""
"1209.6799999999348","Stimuli/Hangul_F26.bmp","188","image-keyboard-response","587","1092540","0.0-21.0-2.2","c2_test",".","","","",","
"546.3250000001863","<p style=""color:white;""> Next Figure: Male or Female? </p>","188","html-keyboard-response","588","1093089","0.0-21.0-0.3","prediction","","","",",",""
"null","<div style=""color:white; font-size:60px;"">+</div>","null","html-keyboard-response","589","1094098","0.0-21.0-1.3","fixation","","","","",""
"2227.075000000419","Stimuli/Hangul_M30.bmp","188","image-keyboard-response","590","1096329","0.0-21.0-2.3","c2_test",",","","","",","
"719.3799999998882","<p style=""color:white;""> Next Figure: Male or Female? </p>","188","html-keyboard-response","591","1097053","0.0-21.0-0.4","prediction","","","",",",""
"null","<div style=""color:white; font-size:60px;"">+</div>","null","html-keyboard-response","592","1098058","0.0-21.0-1.4","fixation","","","","",""
"1338.8549999999814","Stimuli/Hangul_F40.bmp","190","image-keyboard-response","593","1099402","0.0-21.0-2.4","c2_test",".","","","","."
"870.2700000000186","<p style=""color:white;""> Next Figure: Male or Female? </p>","190","html-keyboard-response","594","1100278","0.0-21.0-0.5","prediction","","","",".",""
"null","<div style=""color:white; font-size:60px;"">+</div>","null","html-keyboard-response","595","1101296","0.0-21.0-1.5","fixation","","","","",""
"1994.2000000001863","Stimuli/Hangul_M34.bmp","190","image-keyboard-response","596","1103300","0.0-21.0-2.5","c2_test",",","","","","."
"645.3449999999721","<p style=""color:white;""> Next Figure: Male or Female? </p>","190","html-keyboard-response","597","1103950","0.0-21.0-0.6","prediction","","","",".",""
"null","<div style=""color:white; font-size:60px;"">+</div>","null","html-keyboard-response","598","1104971","0.0-21.0-1.6","fixation","","","","",""
"1983.8549999999814","Stimuli/Hangul_M47.bmp","190","image-keyboard-response","599","1106963","0.0-21.0-2.6","c2_test",",","","","","."
"628.3450000002049","<p style=""color:white;""> Next Figure: Male or Female? </p>","190","html-keyboard-response","600","1107594","0.0-21.0-0.7","prediction","","","",".",""
"null","<div style=""color:white; font-size:60px;"">+</div>","null","html-keyboard-response","601","1108607","0.0-21.0-1.7","fixation","","","","",""
"888.2549999998882","Stimuli/Hangul_M45.bmp","190","image-keyboard-response","602","1109499","0.0-21.0-2.7","c2_test",",","","","","."
"646.2050000000745","<p style=""color:white;""> Next Figure: Male or Female? </p>","190","html-keyboard-response","603","1110153","0.0-21.0-0.8","prediction","","","",".",""
"null","<div style=""color:white; font-size:60px;"">+</div>","null","html-keyboard-response","604","1111158","0.0-21.0-1.8","fixation","","","","",""
"1605.179999999702","Stimuli/Hangul_F44.bmp","190","image-keyboard-response","605","1112768","0.0-21.0-2.8","c2_test",".","","","","."
"1321.440000000177","<p style=""color:white;""> Next Figure: Male or Female? </p>","188","html-keyboard-response","606","1114092","0.0-21.0-0.9","prediction","","","",",",""
"null","<div style=""color:white; font-size:60px;"">+</div>","null","html-keyboard-response","607","1115108","0.0-21.0-1.9","fixation","","","","",""
"2251.464999999851","Stimuli/Hangul_M26.bmp","188","image-keyboard-response","608","1117370","0.0-21.0-2.9","c2_test",",","","","",","
"1069.58499999973","<p style=""color:white;""> Next Figure: Male or Female? </p>","190","html-keyboard-response","609","1118450","0.0-21.0-0.10","prediction","","","",".",""
"null","<div style=""color:white; font-size:60px;"">+</div>","null","html-keyboard-response","610","1119455","0.0-21.0-1.10","fixation","","","","",""
"1692.5200000000186","Stimuli/Hangul_F47.bmp","188","image-keyboard-response","611","1121161","0.0-21.0-2.10","c2_test",".","","","",","
"1285.6450000000186","<p style=""color:white;""> Next Figure: Male or Female? </p>","188","html-keyboard-response","612","1122450","0.0-21.0-0.11","prediction","","","",",",""
"null","<div style=""color:white; font-size:60px;"">+</div>","null","html-keyboard-response","613","1123468","0.0-21.0-1.11","fixation","","","","",""
"2889.059999999823","Stimuli/Hangul_F43.bmp","188","image-keyboard-response","614","1126360","0.0-21.0-2.11","c2_test",".","","","",","
"676.5200000000186","<p style=""color:white;""> Next Figure: Male or Female? </p>","188","html-keyboard-response","615","1127040","0.0-21.0-0.12","prediction","","","",",",""
"null","<div style=""color:white; font-size:60px;"">+</div>","null","html-keyboard-response","616","1128045","0.0-21.0-1.12","fixation","","","","",""
"1252.089999999851","Stimuli/Hangul_M44.bmp","190","image-keyboard-response","617","1129300","0.0-21.0-2.12","c2_test",",","","","","."
"783.2400000002235","<p style=""color:white;""> Next Figure: Male or Female? </p>","190","html-keyboard-response","618","1130089","0.0-21.0-0.13","prediction","","","",".",""
"null","<div style=""color:white; font-size:60px;"">+</div>","null","html-keyboard-response","619","1131099","0.0-21.0-1.13","fixation","","","","",""
"1407.630000000121","Stimuli/Hangul_F30.bmp","190","image-keyboard-response","620","1132512","0.0-21.0-2.13","c2_test",".","","","","."
"936.4900000002235","<p style=""color:white;""> Next Figure: Male or Female? </p>","190","html-keyboard-response","621","1133451","0.0-21.0-0.14","prediction","","","",".",""
"null","<div style=""color:white; font-size:60px;"">+</div>","null","html-keyboard-response","622","1134458","0.0-21.0-1.14","fixation","","","","",""
"1469.405000000028","Stimuli/Hangul_F36.bmp","188","image-keyboard-response","623","1135930","0.0-21.0-2.14","c2_test",".","","","",","
"1057.3700000001118","<p style=""color:white;""> Next Figure: Male or Female? </p>","188","html-keyboard-response","624","1136992","0.0-21.0-0.15","prediction","","","",",",""
"null","<div style=""color:white; font-size:60px;"">+</div>","null","html-keyboard-response","625","1138000","0.0-21.0-1.15","fixation","","","","",""
"2205.5200000000186","Stimuli/Hangul_M36.bmp","188","image-keyboard-response","626","1140213","0.0-21.0-2.15","c2_test",",","","","",","
"1242.1050000002142","<p style=""color:white;""> Next Figure: Male or Female? </p>","188","html-keyboard-response","627","1141458","0.0-21.0-0.16","prediction","","","",",",""
"null","<div style=""color:white; font-size:60px;"">+</div>","null","html-keyboard-response","628","1142474","0.0-21.0-1.16","fixation","","","","",""
"798.1450000002515","Stimuli/Hangul_F34.bmp","188","image-keyboard-response","629","1143278","0.0-21.0-2.16","c2_test",".","","","",","
"748.4150000000373","<p style=""color:white;""> Next Figure: Male or Female? </p>","188","html-keyboard-response","630","1144032","0.0-21.0-0.17","prediction","","","",",",""
"null","<div style=""color:white; font-size:60px;"">+</div>","null","html-keyboard-response","631","1145046","0.0-21.0-1.17","fixation","","","","",""
"1061.9250000000466","Stimuli/Hangul_M38.bmp","188","image-keyboard-response","632","1146112","0.0-21.0-2.17","c2_test",",","","","",","
"750.25","<p style=""color:white;""> Next Figure: Male or Female? </p>","188","html-keyboard-response","633","1146866","0.0-21.0-0.18","prediction","","","",",",""
"null","<div style=""color:white; font-size:60px;"">+</div>","null","html-keyboard-response","634","1147880","0.0-21.0-1.18","fixation","","","","",""
"934.839999999851","Stimuli/Hangul_F48.bmp","188","image-keyboard-response","635","1148819","0.0-21.0-2.18","c2_test",".","","","",","
"613.7550000003539","<p style=""color:white;""> Next Figure: Male or Female? </p>","188","html-keyboard-response","636","1149436","0.0-21.0-0.19","prediction","","","",",",""
"null","<div style=""color:white; font-size:60px;"">+</div>","null","html-keyboard-response","637","1150443","0.0-21.0-1.19","fixation","","","","",""
"1901.380000000354","Stimuli/Hangul_M40.bmp","190","image-keyboard-response","638","1152346","0.0-21.0-2.19","c2_test",",","","","","."
"825.8250000001863","<p style=""color:white;""> Next Figure: Male or Female? </p>","190","html-keyboard-response","639","1153176","0.0-21.0-0.20","prediction","","","",".",""
"null","<div style=""color:white; font-size:60px;"">+</div>","null","html-keyboard-response","640","1154182","0.0-21.0-1.20","fixation","","","","",""
"1350.9850000001024","Stimuli/Hangul_F28.bmp","188","image-keyboard-response","641","1155537","0.0-21.0-2.20","c2_test",".","","","",","
"769.4599999999627","<p style=""color:white;""> Next Figure: Male or Female? </p>","190","html-keyboard-response","642","1156309","0.0-21.0-0.21","prediction","","","",".",""
"null","<div style=""color:white; font-size:60px;"">+</div>","null","html-keyboard-response","643","1157318","0.0-21.0-1.21","fixation","","","","",""
"1624.3149999999441","Stimuli/Hangul_M41.bmp","190","image-keyboard-response","644","1158945","0.0-21.0-2.21","c2_test",",","","","","."
"573.0050000003539","<p style=""color:white;""> Next Figure: Male or Female? </p>","190","html-keyboard-response","645","1159521","0.0-21.0-0.22","prediction","","","",".",""
"null","<div style=""color:white; font-size:60px;"">+</div>","null","html-keyboard-response","646","1160541","0.0-21.0-1.22","fixation","","","","",""
"1265.5450000001583","Stimuli/Hangul_M29.bmp","190","image-keyboard-response","647","1161808","0.0-21.0-2.22","c2_test",",","","","","."
"726.9799999999814","<p style=""color:white;""> Next Figure: Male or Female? </p>","188","html-keyboard-response","648","1162538","0.0-21.0-0.23","prediction","","","",",",""
"null","<div style=""color:white; font-size:60px;"">+</div>","null","html-keyboard-response","649","1163555","0.0-21.0-1.23","fixation","","","","",""
"3167.429999999935","Stimuli/Hangul_M25.bmp","190","image-keyboard-response","650","1166725","0.0-21.0-2.23","c2_test",",","","","","."
"740.3450000002049","<p style=""color:white;""> Next Figure: Male or Female? </p>","190","html-keyboard-response","651","1167468","0.0-21.0-0.24","prediction","","","",".",""
"null","<div style=""color:white; font-size:60px;"">+</div>","null","html-keyboard-response","652","1168483","0.0-21.0-1.24","fixation","","","","",""
"933.2500000002328","Stimuli/Hangul_M39.bmp","190","image-keyboard-response","653","1169419","0.0-21.0-2.24","c2_test",",","","","","."
"592.2999999998137","<p style=""color:white;""> Next Figure: Male or Female? </p>","190","html-keyboard-response","654","1170018","0.0-21.0-0.25","prediction","","","",".",""
"null","<div style=""color:white; font-size:60px;"">+</div>","null","html-keyboard-response","655","1171024","0.0-21.0-1.25","fixation","","","","",""
"2710.785000000382","Stimuli/Hangul_F31.bmp","188","image-keyboard-response","656","1173740","0.0-21.0-2.25","c2_test",".","","","",","
